Equation,CorrectResponse,Correctbutton,trials_7.thisRepN,trials_7.thisTrialN,trials_7.thisN,trials_7.thisIndex,trials.thisRepN,trials.thisTrialN,trials.thisN,trials.thisIndex,trials_3.thisRepN,trials_3.thisTrialN,trials_3.thisN,trials_3.thisIndex,trials_2.thisRepN,trials_2.thisTrialN,trials_2.thisN,trials_2.thisIndex,trials_4.thisRepN,trials_4.thisTrialN,trials_4.thisN,trials_4.thisIndex,trials_5.thisRepN,trials_5.thisTrialN,trials_5.thisN,trials_5.thisIndex,thisRow.t,notes,code_marius.started,code_marius.stopped,welcome.started,welcome.stopped,instruction_study.started,instruction_study.stopped,fixationcross.started,fixationcross.stopped,blanc.started,blanc.stopped,study_control_probe.started,study_control_probe.stopped,responseKey,responseTime,scale_answer_2.keys,study_control_probe_2.started,study_control_probe_2.stopped,scale_answer_3.keys,scale_answer_3.rt,scale_answer_3.duration,blanc_2.started,blanc_2.stopped,test_attr_probe.started,test_attr_probe.stopped,recalled_attr,firstKeyTime,secondWordTime,blanc_3.started,blanc_3.stopped,test_sub_probe.started,test_sub_probe.stopped,recalled_sub,instruction_probe_end.started,instruction_probe_end.stopped,study.started,study.stopped,substantive,adjective,wordpair,task,condition,liste_sub_phase1,liste_adj_phase1,scale_answer.keys,scale_answer.rt,scale_answer.duration,code_defineWordsInit.started,code_defineWordsInit.stopped,liste_sub_phase2,study_control.started,study_control.stopped,scale_answer_4.keys,restudy_same.started,restudy_same.stopped,scale_answer_5.keys,restudy_different.started,restudy_different.stopped,scale_answer_6.keys,test_attr.started,correct,test_attr.stopped,test_sub.started,test_sub.stopped,scale_answer_5.rt,scale_answer_5.duration,distractortask.started,equation_text.started,distractortask.stopped,mouse_answer.x,mouse_answer.y,mouse_answer.leftButton,mouse_answer.midButton,mouse_answer.rightButton,mouse_answer.time,mouse_answer.clicked_name,feedback_distractortask.started,feedback_distractortask.stopped,free_recall.started,text_enter.started,key_resp.started,free_recall.stopped,key_resp.keys,key_resp.rt,key_resp.duration,free_recalled_sub,mouse_continue.x,mouse_continue.y,mouse_continue.leftButton,mouse_continue.midButton,mouse_continue.rightButton,mouse_continue.time,mouse_continue.clicked_name,cued_recall.started,text_enter_2.started,key_continue.started,cued_recall.stopped,recalled_attr1,key_continue.keys,key_continue.rt,key_continue.duration,cued_recall_2.started,text_enter_3.started,key_continue_2.started,cued_recall_2.stopped,recalled_attr2,key_continue_2.keys,key_resp_8.started,key_resp_8.keys,key_resp_8.rt,key_resp_8.duration,condition,date,expName,psychopyVersion,frameRate,participant,expStart,
,,,,,,,,,,,,,,,,,,,,,,,,,,,,,0.10520120000001043,0.10526679991744459,0.10527519998140633,9.652701499988325,,,,,,,,,,,,,,,,,,,,,,,,,,,,,,,,,,,,,3,,,,,,,,,,,,,,,,,,,,,,,,,,,,,,,,,,,,,,,,,,,,,,,,,,,,,,,,,,,,,,,,,,,,,,3,2023-12-04_09h52.57.638,watkins1,2023.2.3,99.76216694832176,40,2023-12-04 09h53.05.300957 +0000,
,,,,,,,,,,,,,,,,,,,,,,,,,,,,,,,,,9.652748799999245,50.188017099979334,,,,,,,,,,,,,,,,,,,,,,,,,,,,,,,,,,,3,,,,,,,,,,,,,,,,,,,,,,,,,,,,,,,,,,,,,,,,,,,,,,,,,,,,,,,,,,,,,,,,,,,,,,3,2023-12-04_09h52.57.638,watkins1,2023.2.3,99.76216694832176,40,2023-12-04 09h53.05.300957 +0000,
,,,0,0,0,0,,,,,,,,,,,,,,,,,,,,,51.20191950001754,,,,,,,,50.188032799982466,51.19194329995662,57.68834589992184,58.17956049996428,51.68388129991945,57.68818299996201,2,3.1325449999421835,None,58.17957089992706,64.1861372999847,2,3.1325449999421835,None,64.18643549992703,64.67768490000162,64.67769539996516,70.68251479999162,vergnügt,None,None,70.68273959995713,70.68276320002042,70.68277009995654,70.6828538000118,,,,,,,,,,3,,,,,,,,,,,,,,,,,,,,,,,,,,,,,,,,,,,,,,,,,,,,,,,,,,,,,,,,,,,,,,,,,,,,,,3,2023-12-04_09h52.57.638,watkins1,2023.2.3,99.76216694832176,40,2023-12-04 09h53.05.300957 +0000,
,,,,,,,,,,,,,,,,,,,,,,,,,,,,,,,,,,,,,,,,,,,,,,,,,,,,,,,,,,,,,70.68297510000411,75.6051473999396,,,,,,,3,,,,,,,,,,,,,,,,,,,,,,,,,,,,,,,,,,,,,,,,,,,,,,,,,,,,,,,,,,,,,,,,,,,,,,3,2023-12-04_09h52.57.638,watkins1,2023.2.3,99.76216694832176,40,2023-12-04 09h53.05.300957 +0000,
,,,,,,,0,0,0,0,,,,,,,,,,,,,,,,,76.61898169992492,,,,,,,,75.60516269993968,76.60904300003313,76.60950399993453,77.10098869993817,,,2,3.943269500043243,,,,,,,,,,,,,,,,,,,,,77.10099890001584,83.11087239999324,Kamera,nachhaltig,"['Kamera', 'nachhaltig']",test_adj,3,"['Kamera', 'Würfel', 'Tasse', 'Schlüssel', 'Kerze', 'Telefon', 'Lampe', 'Hut', 'Stift', 'Jacke', 'Vase', 'Tasche', 'Löffel', 'Brille', 'Rucksack', 'Uhr', 'Ring', 'Socke', 'Kiste', 'Blume', 'Trommel', 'Kette', 'Hammer', 'Eimer', 'Flasche', 'Geige', 'Fahrrad', 'Bürste', 'Schere', 'Buch']",['nachhaltig'],2,3.943269500043243,None,,,,,,,,,,,,,,,,,,,,,,,,,,,,,,,,,,,,,,,,,,,,,,,,,,,,,,,,,,,,,,,,,3,2023-12-04_09h52.57.638,watkins1,2023.2.3,99.76216694832176,40,2023-12-04 09h53.05.300957 +0000,
,,,,,,,1,0,1,0,,,,,,,,,,,,,,,,,83.1203617999563,,,,,,,,,,83.11151810002048,83.60243369999807,,,1,1.698856099974364,,,,,,,,,,,,,,,,,,,,,83.60244349995628,89.60408620000817,Würfel,krumm,"['Würfel', 'krumm']",test_adj,3,"['Kamera', 'Würfel', 'Tasse', 'Schlüssel', 'Kerze', 'Telefon', 'Lampe', 'Hut', 'Stift', 'Jacke', 'Vase', 'Tasche', 'Löffel', 'Brille', 'Rucksack', 'Uhr', 'Ring', 'Socke', 'Kiste', 'Blume', 'Trommel', 'Kette', 'Hammer', 'Eimer', 'Flasche', 'Geige', 'Fahrrad', 'Bürste', 'Schere', 'Buch']","['nachhaltig', 'krumm']",1,1.698856099974364,None,,,,,,,,,,,,,,,,,,,,,,,,,,,,,,,,,,,,,,,,,,,,,,,,,,,,,,,,,,,,,,,,,3,2023-12-04_09h52.57.638,watkins1,2023.2.3,99.76216694832176,40,2023-12-04 09h53.05.300957 +0000,
,,,,,,,2,0,2,0,,,,,,,,,,,,,,,,,89.61362860002555,,,,,,,,,,89.60461159993429,90.09576089994516,,,1,3.38939439994283,,,,,,,,,,,,,,,,,,,,,90.09577050001826,96.10587979992852,Tasse,schwer,"['Tasse', 'schwer']",restudy,3,"['Kamera', 'Würfel', 'Tasse', 'Schlüssel', 'Kerze', 'Telefon', 'Lampe', 'Hut', 'Stift', 'Jacke', 'Vase', 'Tasche', 'Löffel', 'Brille', 'Rucksack', 'Uhr', 'Ring', 'Socke', 'Kiste', 'Blume', 'Trommel', 'Kette', 'Hammer', 'Eimer', 'Flasche', 'Geige', 'Fahrrad', 'Bürste', 'Schere', 'Buch']","['nachhaltig', 'krumm', 'schwer']",1,3.38939439994283,None,,,,,,,,,,,,,,,,,,,,,,,,,,,,,,,,,,,,,,,,,,,,,,,,,,,,,,,,,,,,,,,,,3,2023-12-04_09h52.57.638,watkins1,2023.2.3,99.76216694832176,40,2023-12-04 09h53.05.300957 +0000,
,,,,,,,3,0,3,0,,,,,,,,,,,,,,,,,96.11535269999877,,,,,,,,,,96.10641439992469,96.5973935999209,,,1,3.4083688999526203,,,,,,,,,,,,,,,,,,,,,96.59740329999477,102.60115889995359,Schlüssel,hübsch,"['Schlüssel', 'hübsch']",test_adj,3,"['Kamera', 'Würfel', 'Tasse', 'Schlüssel', 'Kerze', 'Telefon', 'Lampe', 'Hut', 'Stift', 'Jacke', 'Vase', 'Tasche', 'Löffel', 'Brille', 'Rucksack', 'Uhr', 'Ring', 'Socke', 'Kiste', 'Blume', 'Trommel', 'Kette', 'Hammer', 'Eimer', 'Flasche', 'Geige', 'Fahrrad', 'Bürste', 'Schere', 'Buch']","['nachhaltig', 'krumm', 'schwer', 'hübsch']",1,3.4083688999526203,None,,,,,,,,,,,,,,,,,,,,,,,,,,,,,,,,,,,,,,,,,,,,,,,,,,,,,,,,,,,,,,,,,3,2023-12-04_09h52.57.638,watkins1,2023.2.3,99.76216694832176,40,2023-12-04 09h53.05.300957 +0000,
,,,,,,,4,0,4,0,,,,,,,,,,,,,,,,,102.61070389999077,,,,,,,,,,102.60170599992853,103.09273959998973,,,2,3.3296288999263197,,,,,,,,,,,,,,,,,,,,,103.09274929994717,109.10213369992562,Kerze,sauber,"['Kerze', 'sauber']",test_adj,3,"['Kamera', 'Würfel', 'Tasse', 'Schlüssel', 'Kerze', 'Telefon', 'Lampe', 'Hut', 'Stift', 'Jacke', 'Vase', 'Tasche', 'Löffel', 'Brille', 'Rucksack', 'Uhr', 'Ring', 'Socke', 'Kiste', 'Blume', 'Trommel', 'Kette', 'Hammer', 'Eimer', 'Flasche', 'Geige', 'Fahrrad', 'Bürste', 'Schere', 'Buch']","['nachhaltig', 'krumm', 'schwer', 'hübsch', 'sauber']",2,3.3296288999263197,None,,,,,,,,,,,,,,,,,,,,,,,,,,,,,,,,,,,,,,,,,,,,,,,,,,,,,,,,,,,,,,,,,3,2023-12-04_09h52.57.638,watkins1,2023.2.3,99.76216694832176,40,2023-12-04 09h53.05.300957 +0000,
,,,,,,,5,0,5,0,,,,,,,,,,,,,,,,,109.1115976999281,,,,,,,,,,109.10265539993998,109.59373770002276,,,1,4.532370200031437,,,,,,,,,,,,,,,,,,,,,109.59374799998477,115.59445420000702,Telefon,rustikal,"['Telefon', 'rustikal']",test_adj,3,"['Kamera', 'Würfel', 'Tasse', 'Schlüssel', 'Kerze', 'Telefon', 'Lampe', 'Hut', 'Stift', 'Jacke', 'Vase', 'Tasche', 'Löffel', 'Brille', 'Rucksack', 'Uhr', 'Ring', 'Socke', 'Kiste', 'Blume', 'Trommel', 'Kette', 'Hammer', 'Eimer', 'Flasche', 'Geige', 'Fahrrad', 'Bürste', 'Schere', 'Buch']","['nachhaltig', 'krumm', 'schwer', 'hübsch', 'sauber', 'rustikal']",1,4.532370200031437,None,,,,,,,,,,,,,,,,,,,,,,,,,,,,,,,,,,,,,,,,,,,,,,,,,,,,,,,,,,,,,,,,,3,2023-12-04_09h52.57.638,watkins1,2023.2.3,99.76216694832176,40,2023-12-04 09h53.05.300957 +0000,
,,,,,,,6,0,6,0,,,,,,,,,,,,,,,,,115.60393260000274,,,,,,,,,,115.59498910000548,116.08591120003257,,,3,1.9279433999909088,,,,,,,,,,,,,,,,,,,,,116.08592159999534,122.08765939995646,Lampe,neu,"['Lampe', 'neu']",restudy,3,"['Kamera', 'Würfel', 'Tasse', 'Schlüssel', 'Kerze', 'Telefon', 'Lampe', 'Hut', 'Stift', 'Jacke', 'Vase', 'Tasche', 'Löffel', 'Brille', 'Rucksack', 'Uhr', 'Ring', 'Socke', 'Kiste', 'Blume', 'Trommel', 'Kette', 'Hammer', 'Eimer', 'Flasche', 'Geige', 'Fahrrad', 'Bürste', 'Schere', 'Buch']","['nachhaltig', 'krumm', 'schwer', 'hübsch', 'sauber', 'rustikal', 'neu']",3,1.9279433999909088,None,,,,,,,,,,,,,,,,,,,,,,,,,,,,,,,,,,,,,,,,,,,,,,,,,,,,,,,,,,,,,,,,,3,2023-12-04_09h52.57.638,watkins1,2023.2.3,99.76216694832176,40,2023-12-04 09h53.05.300957 +0000,
,,,,,,,7,0,7,0,,,,,,,,,,,,,,,,,122.09707110002637,,,,,,,,,,122.08819059992675,122.57918270002119,,,3,3.074552100035362,,,,,,,,,,,,,,,,,,,,,122.57919219997711,128.58036519994494,Hut,breit,"['Hut', 'breit']",test_adj,3,"['Kamera', 'Würfel', 'Tasse', 'Schlüssel', 'Kerze', 'Telefon', 'Lampe', 'Hut', 'Stift', 'Jacke', 'Vase', 'Tasche', 'Löffel', 'Brille', 'Rucksack', 'Uhr', 'Ring', 'Socke', 'Kiste', 'Blume', 'Trommel', 'Kette', 'Hammer', 'Eimer', 'Flasche', 'Geige', 'Fahrrad', 'Bürste', 'Schere', 'Buch']","['nachhaltig', 'krumm', 'schwer', 'hübsch', 'sauber', 'rustikal', 'neu', 'breit']",3,3.074552100035362,None,,,,,,,,,,,,,,,,,,,,,,,,,,,,,,,,,,,,,,,,,,,,,,,,,,,,,,,,,,,,,,,,,3,2023-12-04_09h52.57.638,watkins1,2023.2.3,99.76216694832176,40,2023-12-04 09h53.05.300957 +0000,
,,,,,,,8,0,8,0,,,,,,,,,,,,,,,,,128.58984459994826,,,,,,,,,,128.58088489994407,129.07192609994672,,,2,2.326706500025466,,,,,,,,,,,,,,,,,,,,,129.07193610002287,135.07650129997637,Stift,lustig,"['Stift', 'lustig']",restudy,3,"['Kamera', 'Würfel', 'Tasse', 'Schlüssel', 'Kerze', 'Telefon', 'Lampe', 'Hut', 'Stift', 'Jacke', 'Vase', 'Tasche', 'Löffel', 'Brille', 'Rucksack', 'Uhr', 'Ring', 'Socke', 'Kiste', 'Blume', 'Trommel', 'Kette', 'Hammer', 'Eimer', 'Flasche', 'Geige', 'Fahrrad', 'Bürste', 'Schere', 'Buch']","['nachhaltig', 'krumm', 'schwer', 'hübsch', 'sauber', 'rustikal', 'neu', 'breit', 'lustig']",2,2.326706500025466,None,,,,,,,,,,,,,,,,,,,,,,,,,,,,,,,,,,,,,,,,,,,,,,,,,,,,,,,,,,,,,,,,,3,2023-12-04_09h52.57.638,watkins1,2023.2.3,99.76216694832176,40,2023-12-04 09h53.05.300957 +0000,
,,,,,,,9,0,9,0,,,,,,,,,,,,,,,,,135.08597120002378,,,,,,,,,,135.07701689994428,135.56815509998705,,,2,1.8854861999861896,,,,,,,,,,,,,,,,,,,,,135.5681655999506,141.5778355000075,Jacke,gepunktet,"['Jacke', 'gepunktet']",test_adj,3,"['Kamera', 'Würfel', 'Tasse', 'Schlüssel', 'Kerze', 'Telefon', 'Lampe', 'Hut', 'Stift', 'Jacke', 'Vase', 'Tasche', 'Löffel', 'Brille', 'Rucksack', 'Uhr', 'Ring', 'Socke', 'Kiste', 'Blume', 'Trommel', 'Kette', 'Hammer', 'Eimer', 'Flasche', 'Geige', 'Fahrrad', 'Bürste', 'Schere', 'Buch']","['nachhaltig', 'krumm', 'schwer', 'hübsch', 'sauber', 'rustikal', 'neu', 'breit', 'lustig', 'gepunktet']",2,1.8854861999861896,None,,,,,,,,,,,,,,,,,,,,,,,,,,,,,,,,,,,,,,,,,,,,,,,,,,,,,,,,,,,,,,,,,3,2023-12-04_09h52.57.638,watkins1,2023.2.3,99.76216694832176,40,2023-12-04 09h53.05.300957 +0000,
,,,,,,,10,0,10,0,,,,,,,,,,,,,,,,,141.5873297000071,,,,,,,,,,141.57835979992524,142.06912280002143,,,3,3.1847228999249637,,,,,,,,,,,,,,,,,,,,,142.0691326999804,148.07961839996278,Vase,klobig,"['Vase', 'klobig']",test_adj,3,"['Kamera', 'Würfel', 'Tasse', 'Schlüssel', 'Kerze', 'Telefon', 'Lampe', 'Hut', 'Stift', 'Jacke', 'Vase', 'Tasche', 'Löffel', 'Brille', 'Rucksack', 'Uhr', 'Ring', 'Socke', 'Kiste', 'Blume', 'Trommel', 'Kette', 'Hammer', 'Eimer', 'Flasche', 'Geige', 'Fahrrad', 'Bürste', 'Schere', 'Buch']","['nachhaltig', 'krumm', 'schwer', 'hübsch', 'sauber', 'rustikal', 'neu', 'breit', 'lustig', 'gepunktet', 'klobig']",3,3.1847228999249637,None,,,,,,,,,,,,,,,,,,,,,,,,,,,,,,,,,,,,,,,,,,,,,,,,,,,,,,,,,,,,,,,,,3,2023-12-04_09h52.57.638,watkins1,2023.2.3,99.76216694832176,40,2023-12-04 09h53.05.300957 +0000,
,,,,,,,11,0,11,0,,,,,,,,,,,,,,,,,148.0890972999623,,,,,,,,,,148.08014159998856,148.57122929999605,,,2,3.3261788999661803,,,,,,,,,,,,,,,,,,,,,148.57123929995578,154.57591549993958,Tasche,schmutzig,"['Tasche', 'schmutzig']",restudy,3,"['Kamera', 'Würfel', 'Tasse', 'Schlüssel', 'Kerze', 'Telefon', 'Lampe', 'Hut', 'Stift', 'Jacke', 'Vase', 'Tasche', 'Löffel', 'Brille', 'Rucksack', 'Uhr', 'Ring', 'Socke', 'Kiste', 'Blume', 'Trommel', 'Kette', 'Hammer', 'Eimer', 'Flasche', 'Geige', 'Fahrrad', 'Bürste', 'Schere', 'Buch']","['nachhaltig', 'krumm', 'schwer', 'hübsch', 'sauber', 'rustikal', 'neu', 'breit', 'lustig', 'gepunktet', 'klobig', 'schmutzig']",2,3.3261788999661803,None,,,,,,,,,,,,,,,,,,,,,,,,,,,,,,,,,,,,,,,,,,,,,,,,,,,,,,,,,,,,,,,,,3,2023-12-04_09h52.57.638,watkins1,2023.2.3,99.76216694832176,40,2023-12-04 09h53.05.300957 +0000,
,,,,,,,12,0,12,0,,,,,,,,,,,,,,,,,154.58538159995805,,,,,,,,,,154.57644450000953,155.0674577000318,,,3,1.3142506000585854,,,,,,,,,,,,,,,,,,,,,155.0674672999885,161.06836189993192,Löffel,kalt,"['Löffel', 'kalt']",restudy,3,"['Kamera', 'Würfel', 'Tasse', 'Schlüssel', 'Kerze', 'Telefon', 'Lampe', 'Hut', 'Stift', 'Jacke', 'Vase', 'Tasche', 'Löffel', 'Brille', 'Rucksack', 'Uhr', 'Ring', 'Socke', 'Kiste', 'Blume', 'Trommel', 'Kette', 'Hammer', 'Eimer', 'Flasche', 'Geige', 'Fahrrad', 'Bürste', 'Schere', 'Buch']","['nachhaltig', 'krumm', 'schwer', 'hübsch', 'sauber', 'rustikal', 'neu', 'breit', 'lustig', 'gepunktet', 'klobig', 'schmutzig', 'kalt']",3,1.3142506000585854,None,,,,,,,,,,,,,,,,,,,,,,,,,,,,,,,,,,,,,,,,,,,,,,,,,,,,,,,,,,,,,,,,,3,2023-12-04_09h52.57.638,watkins1,2023.2.3,99.76216694832176,40,2023-12-04 09h53.05.300957 +0000,
,,,,,,,13,0,13,0,,,,,,,,,,,,,,,,,161.0778605999658,,,,,,,,,,161.0688792000292,161.56004449992906,,,3,2.91746519994922,,,,,,,,,,,,,,,,,,,,,161.56005510000978,167.56142259994522,Brille,niedlich,"['Brille', 'niedlich']",restudy,3,"['Kamera', 'Würfel', 'Tasse', 'Schlüssel', 'Kerze', 'Telefon', 'Lampe', 'Hut', 'Stift', 'Jacke', 'Vase', 'Tasche', 'Löffel', 'Brille', 'Rucksack', 'Uhr', 'Ring', 'Socke', 'Kiste', 'Blume', 'Trommel', 'Kette', 'Hammer', 'Eimer', 'Flasche', 'Geige', 'Fahrrad', 'Bürste', 'Schere', 'Buch']","['nachhaltig', 'krumm', 'schwer', 'hübsch', 'sauber', 'rustikal', 'neu', 'breit', 'lustig', 'gepunktet', 'klobig', 'schmutzig', 'kalt', 'niedlich']",3,2.91746519994922,None,,,,,,,,,,,,,,,,,,,,,,,,,,,,,,,,,,,,,,,,,,,,,,,,,,,,,,,,,,,,,,,,,3,2023-12-04_09h52.57.638,watkins1,2023.2.3,99.76216694832176,40,2023-12-04 09h53.05.300957 +0000,
,,,,,,,14,0,14,0,,,,,,,,,,,,,,,,,167.57092289999127,,,,,,,,,,167.56195210001897,168.05300429998897,,,1,3.3927103999303654,,,,,,,,,,,,,,,,,,,,,168.05301409994718,174.05629490001593,Rucksack,strahlend,"['Rucksack', 'strahlend']",test_adj,3,"['Kamera', 'Würfel', 'Tasse', 'Schlüssel', 'Kerze', 'Telefon', 'Lampe', 'Hut', 'Stift', 'Jacke', 'Vase', 'Tasche', 'Löffel', 'Brille', 'Rucksack', 'Uhr', 'Ring', 'Socke', 'Kiste', 'Blume', 'Trommel', 'Kette', 'Hammer', 'Eimer', 'Flasche', 'Geige', 'Fahrrad', 'Bürste', 'Schere', 'Buch']","['nachhaltig', 'krumm', 'schwer', 'hübsch', 'sauber', 'rustikal', 'neu', 'breit', 'lustig', 'gepunktet', 'klobig', 'schmutzig', 'kalt', 'niedlich', 'strahlend']",1,3.3927103999303654,None,,,,,,,,,,,,,,,,,,,,,,,,,,,,,,,,,,,,,,,,,,,,,,,,,,,,,,,,,,,,,,,,,3,2023-12-04_09h52.57.638,watkins1,2023.2.3,99.76216694832176,40,2023-12-04 09h53.05.300957 +0000,
,,,,,,,15,0,15,0,,,,,,,,,,,,,,,,,174.06577200000174,,,,,,,,,,174.05681789992377,174.54780029994436,,,2,2.034112700028345,,,,,,,,,,,,,,,,,,,,,174.54781060002279,180.5494002000196,Uhr,matt,"['Uhr', 'matt']",restudy,3,"['Kamera', 'Würfel', 'Tasse', 'Schlüssel', 'Kerze', 'Telefon', 'Lampe', 'Hut', 'Stift', 'Jacke', 'Vase', 'Tasche', 'Löffel', 'Brille', 'Rucksack', 'Uhr', 'Ring', 'Socke', 'Kiste', 'Blume', 'Trommel', 'Kette', 'Hammer', 'Eimer', 'Flasche', 'Geige', 'Fahrrad', 'Bürste', 'Schere', 'Buch']","['nachhaltig', 'krumm', 'schwer', 'hübsch', 'sauber', 'rustikal', 'neu', 'breit', 'lustig', 'gepunktet', 'klobig', 'schmutzig', 'kalt', 'niedlich', 'strahlend', 'matt']",2,2.034112700028345,None,,,,,,,,,,,,,,,,,,,,,,,,,,,,,,,,,,,,,,,,,,,,,,,,,,,,,,,,,,,,,,,,,3,2023-12-04_09h52.57.638,watkins1,2023.2.3,99.76216694832176,40,2023-12-04 09h53.05.300957 +0000,
,,,,,,,16,0,16,0,,,,,,,,,,,,,,,,,180.5588658999186,,,,,,,,,,180.5499284999678,181.04091889993288,,,1,1.7818565999623388,,,,,,,,,,,,,,,,,,,,,181.04092850000598,187.04999939992558,Ring,nass,"['Ring', 'nass']",test_adj,3,"['Kamera', 'Würfel', 'Tasse', 'Schlüssel', 'Kerze', 'Telefon', 'Lampe', 'Hut', 'Stift', 'Jacke', 'Vase', 'Tasche', 'Löffel', 'Brille', 'Rucksack', 'Uhr', 'Ring', 'Socke', 'Kiste', 'Blume', 'Trommel', 'Kette', 'Hammer', 'Eimer', 'Flasche', 'Geige', 'Fahrrad', 'Bürste', 'Schere', 'Buch']","['nachhaltig', 'krumm', 'schwer', 'hübsch', 'sauber', 'rustikal', 'neu', 'breit', 'lustig', 'gepunktet', 'klobig', 'schmutzig', 'kalt', 'niedlich', 'strahlend', 'matt', 'nass']",1,1.7818565999623388,None,,,,,,,,,,,,,,,,,,,,,,,,,,,,,,,,,,,,,,,,,,,,,,,,,,,,,,,,,,,,,,,,,3,2023-12-04_09h52.57.638,watkins1,2023.2.3,99.76216694832176,40,2023-12-04 09h53.05.300957 +0000,
,,,,,,,17,0,17,0,,,,,,,,,,,,,,,,,187.05955689994153,,,,,,,,,,187.05051740002818,187.54160919995047,,,1,2.1688686000416055,,,,,,,,,,,,,,,,,,,,,187.54161960002966,193.54852900002152,Socke,blass,"['Socke', 'blass']",restudy,3,"['Kamera', 'Würfel', 'Tasse', 'Schlüssel', 'Kerze', 'Telefon', 'Lampe', 'Hut', 'Stift', 'Jacke', 'Vase', 'Tasche', 'Löffel', 'Brille', 'Rucksack', 'Uhr', 'Ring', 'Socke', 'Kiste', 'Blume', 'Trommel', 'Kette', 'Hammer', 'Eimer', 'Flasche', 'Geige', 'Fahrrad', 'Bürste', 'Schere', 'Buch']","['nachhaltig', 'krumm', 'schwer', 'hübsch', 'sauber', 'rustikal', 'neu', 'breit', 'lustig', 'gepunktet', 'klobig', 'schmutzig', 'kalt', 'niedlich', 'strahlend', 'matt', 'nass', 'blass']",1,2.1688686000416055,None,,,,,,,,,,,,,,,,,,,,,,,,,,,,,,,,,,,,,,,,,,,,,,,,,,,,,,,,,,,,,,,,,3,2023-12-04_09h52.57.638,watkins1,2023.2.3,99.76216694832176,40,2023-12-04 09h53.05.300957 +0000,
,,,,,,,18,0,18,0,,,,,,,,,,,,,,,,,193.55794879992027,,,,,,,,,,193.54904870002065,194.039860400022,,,3,1.574711799970828,,,,,,,,,,,,,,,,,,,,,194.03987079998478,200.04907359997742,Kiste,hohl,"['Kiste', 'hohl']",test_adj,3,"['Kamera', 'Würfel', 'Tasse', 'Schlüssel', 'Kerze', 'Telefon', 'Lampe', 'Hut', 'Stift', 'Jacke', 'Vase', 'Tasche', 'Löffel', 'Brille', 'Rucksack', 'Uhr', 'Ring', 'Socke', 'Kiste', 'Blume', 'Trommel', 'Kette', 'Hammer', 'Eimer', 'Flasche', 'Geige', 'Fahrrad', 'Bürste', 'Schere', 'Buch']","['nachhaltig', 'krumm', 'schwer', 'hübsch', 'sauber', 'rustikal', 'neu', 'breit', 'lustig', 'gepunktet', 'klobig', 'schmutzig', 'kalt', 'niedlich', 'strahlend', 'matt', 'nass', 'blass', 'hohl']",3,1.574711799970828,None,,,,,,,,,,,,,,,,,,,,,,,,,,,,,,,,,,,,,,,,,,,,,,,,,,,,,,,,,,,,,,,,,3,2023-12-04_09h52.57.638,watkins1,2023.2.3,99.76216694832176,40,2023-12-04 09h53.05.300957 +0000,
,,,,,,,19,0,19,0,,,,,,,,,,,,,,,,,200.058563199942,,,,,,,,,,200.049611800001,200.54072629997972,,,3,1.7537521000485867,,,,,,,,,,,,,,,,,,,,,200.5407361999387,206.54648279992398,Blume,gut,"['Blume', 'gut']",test_adj,3,"['Kamera', 'Würfel', 'Tasse', 'Schlüssel', 'Kerze', 'Telefon', 'Lampe', 'Hut', 'Stift', 'Jacke', 'Vase', 'Tasche', 'Löffel', 'Brille', 'Rucksack', 'Uhr', 'Ring', 'Socke', 'Kiste', 'Blume', 'Trommel', 'Kette', 'Hammer', 'Eimer', 'Flasche', 'Geige', 'Fahrrad', 'Bürste', 'Schere', 'Buch']","['nachhaltig', 'krumm', 'schwer', 'hübsch', 'sauber', 'rustikal', 'neu', 'breit', 'lustig', 'gepunktet', 'klobig', 'schmutzig', 'kalt', 'niedlich', 'strahlend', 'matt', 'nass', 'blass', 'hohl', 'gut']",3,1.7537521000485867,None,,,,,,,,,,,,,,,,,,,,,,,,,,,,,,,,,,,,,,,,,,,,,,,,,,,,,,,,,,,,,,,,,3,2023-12-04_09h52.57.638,watkins1,2023.2.3,99.76216694832176,40,2023-12-04 09h53.05.300957 +0000,
,,,,,,,20,0,20,0,,,,,,,,,,,,,,,,,206.55596209992655,,,,,,,,,,206.54701460001525,207.03798519994598,,,2,3.8474908999633044,,,,,,,,,,,,,,,,,,,,,207.0379950000206,213.0423560999334,Trommel,hässlich,"['Trommel', 'hässlich']",restudy,3,"['Kamera', 'Würfel', 'Tasse', 'Schlüssel', 'Kerze', 'Telefon', 'Lampe', 'Hut', 'Stift', 'Jacke', 'Vase', 'Tasche', 'Löffel', 'Brille', 'Rucksack', 'Uhr', 'Ring', 'Socke', 'Kiste', 'Blume', 'Trommel', 'Kette', 'Hammer', 'Eimer', 'Flasche', 'Geige', 'Fahrrad', 'Bürste', 'Schere', 'Buch']","['nachhaltig', 'krumm', 'schwer', 'hübsch', 'sauber', 'rustikal', 'neu', 'breit', 'lustig', 'gepunktet', 'klobig', 'schmutzig', 'kalt', 'niedlich', 'strahlend', 'matt', 'nass', 'blass', 'hohl', 'gut', 'hässlich']",2,3.8474908999633044,None,,,,,,,,,,,,,,,,,,,,,,,,,,,,,,,,,,,,,,,,,,,,,,,,,,,,,,,,,,,,,,,,,3,2023-12-04_09h52.57.638,watkins1,2023.2.3,99.76216694832176,40,2023-12-04 09h53.05.300957 +0000,
,,,,,,,21,0,21,0,,,,,,,,,,,,,,,,,213.05176469997969,,,,,,,,,,213.042901000008,213.5341105000116,,,1,1.4161362999584526,,,,,,,,,,,,,,,,,,,,,213.5341202999698,219.54252599994652,Kette,durchsichtig,"['Kette', 'durchsichtig']",test_adj,3,"['Kamera', 'Würfel', 'Tasse', 'Schlüssel', 'Kerze', 'Telefon', 'Lampe', 'Hut', 'Stift', 'Jacke', 'Vase', 'Tasche', 'Löffel', 'Brille', 'Rucksack', 'Uhr', 'Ring', 'Socke', 'Kiste', 'Blume', 'Trommel', 'Kette', 'Hammer', 'Eimer', 'Flasche', 'Geige', 'Fahrrad', 'Bürste', 'Schere', 'Buch']","['nachhaltig', 'krumm', 'schwer', 'hübsch', 'sauber', 'rustikal', 'neu', 'breit', 'lustig', 'gepunktet', 'klobig', 'schmutzig', 'kalt', 'niedlich', 'strahlend', 'matt', 'nass', 'blass', 'hohl', 'gut', 'hässlich', 'durchsichtig']",1,1.4161362999584526,None,,,,,,,,,,,,,,,,,,,,,,,,,,,,,,,,,,,,,,,,,,,,,,,,,,,,,,,,,,,,,,,,,3,2023-12-04_09h52.57.638,watkins1,2023.2.3,99.76216694832176,40,2023-12-04 09h53.05.300957 +0000,
,,,,,,,22,0,22,0,,,,,,,,,,,,,,,,,219.5519581999397,,,,,,,,,,219.54305209999438,220.034076299984,,,1,1.244276799960062,,,,,,,,,,,,,,,,,,,,,220.03408619994298,226.04335669998545,Hammer,biegsam,"['Hammer', 'biegsam']",restudy,3,"['Kamera', 'Würfel', 'Tasse', 'Schlüssel', 'Kerze', 'Telefon', 'Lampe', 'Hut', 'Stift', 'Jacke', 'Vase', 'Tasche', 'Löffel', 'Brille', 'Rucksack', 'Uhr', 'Ring', 'Socke', 'Kiste', 'Blume', 'Trommel', 'Kette', 'Hammer', 'Eimer', 'Flasche', 'Geige', 'Fahrrad', 'Bürste', 'Schere', 'Buch']","['nachhaltig', 'krumm', 'schwer', 'hübsch', 'sauber', 'rustikal', 'neu', 'breit', 'lustig', 'gepunktet', 'klobig', 'schmutzig', 'kalt', 'niedlich', 'strahlend', 'matt', 'nass', 'blass', 'hohl', 'gut', 'hässlich', 'durchsichtig', 'biegsam']",1,1.244276799960062,None,,,,,,,,,,,,,,,,,,,,,,,,,,,,,,,,,,,,,,,,,,,,,,,,,,,,,,,,,,,,,,,,,3,2023-12-04_09h52.57.638,watkins1,2023.2.3,99.76216694832176,40,2023-12-04 09h53.05.300957 +0000,
,,,,,,,23,0,23,0,,,,,,,,,,,,,,,,,226.0528789999662,,,,,,,,,,226.04388479993213,226.5352103000041,,,3,3.16640109999571,,,,,,,,,,,,,,,,,,,,,226.53522049996536,232.54584259993862,Eimer,robust,"['Eimer', 'robust']",restudy,3,"['Kamera', 'Würfel', 'Tasse', 'Schlüssel', 'Kerze', 'Telefon', 'Lampe', 'Hut', 'Stift', 'Jacke', 'Vase', 'Tasche', 'Löffel', 'Brille', 'Rucksack', 'Uhr', 'Ring', 'Socke', 'Kiste', 'Blume', 'Trommel', 'Kette', 'Hammer', 'Eimer', 'Flasche', 'Geige', 'Fahrrad', 'Bürste', 'Schere', 'Buch']","['nachhaltig', 'krumm', 'schwer', 'hübsch', 'sauber', 'rustikal', 'neu', 'breit', 'lustig', 'gepunktet', 'klobig', 'schmutzig', 'kalt', 'niedlich', 'strahlend', 'matt', 'nass', 'blass', 'hohl', 'gut', 'hässlich', 'durchsichtig', 'biegsam', 'robust']",3,3.16640109999571,None,,,,,,,,,,,,,,,,,,,,,,,,,,,,,,,,,,,,,,,,,,,,,,,,,,,,,,,,,,,,,,,,,3,2023-12-04_09h52.57.638,watkins1,2023.2.3,99.76216694832176,40,2023-12-04 09h53.05.300957 +0000,
,,,,,,,24,0,24,0,,,,,,,,,,,,,,,,,232.55530459992588,,,,,,,,,,232.5463639999507,233.03736259997822,,,3,3.3525583000155166,,,,,,,,,,,,,,,,,,,,,233.03737259993795,239.04019670002162,Flasche,elegant,"['Flasche', 'elegant']",restudy,3,"['Kamera', 'Würfel', 'Tasse', 'Schlüssel', 'Kerze', 'Telefon', 'Lampe', 'Hut', 'Stift', 'Jacke', 'Vase', 'Tasche', 'Löffel', 'Brille', 'Rucksack', 'Uhr', 'Ring', 'Socke', 'Kiste', 'Blume', 'Trommel', 'Kette', 'Hammer', 'Eimer', 'Flasche', 'Geige', 'Fahrrad', 'Bürste', 'Schere', 'Buch']","['nachhaltig', 'krumm', 'schwer', 'hübsch', 'sauber', 'rustikal', 'neu', 'breit', 'lustig', 'gepunktet', 'klobig', 'schmutzig', 'kalt', 'niedlich', 'strahlend', 'matt', 'nass', 'blass', 'hohl', 'gut', 'hässlich', 'durchsichtig', 'biegsam', 'robust', 'elegant']",3,3.3525583000155166,None,,,,,,,,,,,,,,,,,,,,,,,,,,,,,,,,,,,,,,,,,,,,,,,,,,,,,,,,,,,,,,,,,3,2023-12-04_09h52.57.638,watkins1,2023.2.3,99.76216694832176,40,2023-12-04 09h53.05.300957 +0000,
,,,,,,,25,0,25,0,,,,,,,,,,,,,,,,,239.04965129995253,,,,,,,,,,239.04072900000028,239.53163789992686,,,1,1.9457152000395581,,,,,,,,,,,,,,,,,,,,,239.53164840000682,245.5324716999894,Geige,schlicht,"['Geige', 'schlicht']",test_adj,3,"['Kamera', 'Würfel', 'Tasse', 'Schlüssel', 'Kerze', 'Telefon', 'Lampe', 'Hut', 'Stift', 'Jacke', 'Vase', 'Tasche', 'Löffel', 'Brille', 'Rucksack', 'Uhr', 'Ring', 'Socke', 'Kiste', 'Blume', 'Trommel', 'Kette', 'Hammer', 'Eimer', 'Flasche', 'Geige', 'Fahrrad', 'Bürste', 'Schere', 'Buch']","['nachhaltig', 'krumm', 'schwer', 'hübsch', 'sauber', 'rustikal', 'neu', 'breit', 'lustig', 'gepunktet', 'klobig', 'schmutzig', 'kalt', 'niedlich', 'strahlend', 'matt', 'nass', 'blass', 'hohl', 'gut', 'hässlich', 'durchsichtig', 'biegsam', 'robust', 'elegant', 'schlicht']",1,1.9457152000395581,None,,,,,,,,,,,,,,,,,,,,,,,,,,,,,,,,,,,,,,,,,,,,,,,,,,,,,,,,,,,,,,,,,3,2023-12-04_09h52.57.638,watkins1,2023.2.3,99.76216694832176,40,2023-12-04 09h53.05.300957 +0000,
,,,,,,,26,0,26,0,,,,,,,,,,,,,,,,,245.54194149991963,,,,,,,,,,245.53300279995892,246.0240112999454,,,3,1.430554199963808,,,,,,,,,,,,,,,,,,,,,246.02402190002613,252.0261874999851,Fahrrad,bunt,"['Fahrrad', 'bunt']",restudy,3,"['Kamera', 'Würfel', 'Tasse', 'Schlüssel', 'Kerze', 'Telefon', 'Lampe', 'Hut', 'Stift', 'Jacke', 'Vase', 'Tasche', 'Löffel', 'Brille', 'Rucksack', 'Uhr', 'Ring', 'Socke', 'Kiste', 'Blume', 'Trommel', 'Kette', 'Hammer', 'Eimer', 'Flasche', 'Geige', 'Fahrrad', 'Bürste', 'Schere', 'Buch']","['nachhaltig', 'krumm', 'schwer', 'hübsch', 'sauber', 'rustikal', 'neu', 'breit', 'lustig', 'gepunktet', 'klobig', 'schmutzig', 'kalt', 'niedlich', 'strahlend', 'matt', 'nass', 'blass', 'hohl', 'gut', 'hässlich', 'durchsichtig', 'biegsam', 'robust', 'elegant', 'schlicht', 'bunt']",3,1.430554199963808,None,,,,,,,,,,,,,,,,,,,,,,,,,,,,,,,,,,,,,,,,,,,,,,,,,,,,,,,,,,,,,,,,,3,2023-12-04_09h52.57.638,watkins1,2023.2.3,99.76216694832176,40,2023-12-04 09h53.05.300957 +0000,
,,,,,,,27,0,27,0,,,,,,,,,,,,,,,,,252.03571760002524,,,,,,,,,,252.02672449999955,252.5178420000011,,,2,3.847518799942918,,,,,,,,,,,,,,,,,,,,,252.51785269996617,258.5270427999785,Bürste,groß,"['Bürste', 'groß']",restudy,3,"['Kamera', 'Würfel', 'Tasse', 'Schlüssel', 'Kerze', 'Telefon', 'Lampe', 'Hut', 'Stift', 'Jacke', 'Vase', 'Tasche', 'Löffel', 'Brille', 'Rucksack', 'Uhr', 'Ring', 'Socke', 'Kiste', 'Blume', 'Trommel', 'Kette', 'Hammer', 'Eimer', 'Flasche', 'Geige', 'Fahrrad', 'Bürste', 'Schere', 'Buch']","['nachhaltig', 'krumm', 'schwer', 'hübsch', 'sauber', 'rustikal', 'neu', 'breit', 'lustig', 'gepunktet', 'klobig', 'schmutzig', 'kalt', 'niedlich', 'strahlend', 'matt', 'nass', 'blass', 'hohl', 'gut', 'hässlich', 'durchsichtig', 'biegsam', 'robust', 'elegant', 'schlicht', 'bunt', 'groß']",2,3.847518799942918,None,,,,,,,,,,,,,,,,,,,,,,,,,,,,,,,,,,,,,,,,,,,,,,,,,,,,,,,,,,,,,,,,,3,2023-12-04_09h52.57.638,watkins1,2023.2.3,99.76216694832176,40,2023-12-04 09h53.05.300957 +0000,
,,,,,,,28,0,28,0,,,,,,,,,,,,,,,,,258.53645569994114,,,,,,,,,,258.5275574999396,259.0186236000154,,,1,1.5716755000175908,,,,,,,,,,,,,,,,,,,,,259.01863389997743,265.02344329992775,Schere,flauschig,"['Schere', 'flauschig']",test_adj,3,"['Kamera', 'Würfel', 'Tasse', 'Schlüssel', 'Kerze', 'Telefon', 'Lampe', 'Hut', 'Stift', 'Jacke', 'Vase', 'Tasche', 'Löffel', 'Brille', 'Rucksack', 'Uhr', 'Ring', 'Socke', 'Kiste', 'Blume', 'Trommel', 'Kette', 'Hammer', 'Eimer', 'Flasche', 'Geige', 'Fahrrad', 'Bürste', 'Schere', 'Buch']","['nachhaltig', 'krumm', 'schwer', 'hübsch', 'sauber', 'rustikal', 'neu', 'breit', 'lustig', 'gepunktet', 'klobig', 'schmutzig', 'kalt', 'niedlich', 'strahlend', 'matt', 'nass', 'blass', 'hohl', 'gut', 'hässlich', 'durchsichtig', 'biegsam', 'robust', 'elegant', 'schlicht', 'bunt', 'groß', 'flauschig']",1,1.5716755000175908,None,,,,,,,,,,,,,,,,,,,,,,,,,,,,,,,,,,,,,,,,,,,,,,,,,,,,,,,,,,,,,,,,,3,2023-12-04_09h52.57.638,watkins1,2023.2.3,99.76216694832176,40,2023-12-04 09h53.05.300957 +0000,
,,,,,,,29,0,29,0,,,,,,,,,,,,,,,,,265.0329014000017,,,,,,,,,,265.0239678999642,265.5154939999338,,,2,4.234747100039385,,,,,,,,,,,,,,,,,,,,,265.51550460001454,271.521883099922,Buch,winzig,"['Buch', 'winzig']",restudy,3,"['Kamera', 'Würfel', 'Tasse', 'Schlüssel', 'Kerze', 'Telefon', 'Lampe', 'Hut', 'Stift', 'Jacke', 'Vase', 'Tasche', 'Löffel', 'Brille', 'Rucksack', 'Uhr', 'Ring', 'Socke', 'Kiste', 'Blume', 'Trommel', 'Kette', 'Hammer', 'Eimer', 'Flasche', 'Geige', 'Fahrrad', 'Bürste', 'Schere', 'Buch']","['nachhaltig', 'krumm', 'schwer', 'hübsch', 'sauber', 'rustikal', 'neu', 'breit', 'lustig', 'gepunktet', 'klobig', 'schmutzig', 'kalt', 'niedlich', 'strahlend', 'matt', 'nass', 'blass', 'hohl', 'gut', 'hässlich', 'durchsichtig', 'biegsam', 'robust', 'elegant', 'schlicht', 'bunt', 'groß', 'flauschig', 'winzig']",2,4.234747100039385,None,,,,,,,,,,,,,,,,,,,,,,,,,,,,,,,,,,,,,,,,,,,,,,,,,,,,,,,,,,,,,,,,,3,2023-12-04_09h52.57.638,watkins1,2023.2.3,99.76216694832176,40,2023-12-04 09h53.05.300957 +0000,
,,,,,,,,,,,0,0,0,0,,,,,,,,,,,,,271.5313900000183,,,,,,,,,,271.52272529993206,272.0133666000329,,,[],[],,,,,,,,,,,modern,None,None,,,,,,,,,,Ring,nass,"['Ring', 'nass']",test_adj,3,,,,,,271.5226506999461,271.5226982999593,"['Ring', 'Flasche', 'Eimer', 'Fahrrad', 'Buch', 'Würfel', 'Schlüssel', 'Trommel', 'Geige', 'Kiste', 'Hut', 'Löffel', 'Vase', 'Kette', 'Hammer', 'Tasse', 'Brille', 'Stift', 'Socke', 'Uhr', 'Jacke', 'Bürste', 'Kamera', 'Kerze', 'Lampe', 'Tasche', 'Schere', 'Rucksack', 'Telefon', 'Blume']",272.0133771999972,272.01594409998506,None,272.01612889999524,272.0185829999391,None,272.01874049997423,272.02130419993773,None,272.0214615999721,0,278.0262779999757,278.0262919999659,278.02746699994896,,,,,,,,,,,,,,,,,,,,,,,,,,,,,,,,,,,,,,,,,,,,,,,,3,2023-12-04_09h52.57.638,watkins1,2023.2.3,99.76216694832176,40,2023-12-04 09h53.05.300957 +0000,
,,,,,,,,,,,1,0,1,0,,,,,,,,,,,,,278.03608859993983,,,,,,,,,,278.0277558999369,278.51806099992245,,,[],[],,,,,,,,,,,,None,None,,,,,,,,,,Flasche,elegant,"['Flasche', 'elegant']",restudy,3,,,,,,278.02768880000804,278.02772759995423,"['Ring', 'Flasche', 'Eimer', 'Fahrrad', 'Buch', 'Würfel', 'Schlüssel', 'Trommel', 'Geige', 'Kiste', 'Hut', 'Löffel', 'Vase', 'Kette', 'Hammer', 'Tasse', 'Brille', 'Stift', 'Socke', 'Uhr', 'Jacke', 'Bürste', 'Kamera', 'Kerze', 'Lampe', 'Tasche', 'Schere', 'Rucksack', 'Telefon', 'Blume']",278.518072100007,278.52068219997454,None,278.5208056999836,284.52832519996446,3,284.52870319993235,284.5314360000193,None,284.5315487999469,,284.5330544000026,284.53306639997754,284.5342655000277,3.956997000030242,None,,,,,,,,,,,,,,,,,,,,,,,,,,,,,,,,,,,,,,,,,,,,,,3,2023-12-04_09h52.57.638,watkins1,2023.2.3,99.76216694832176,40,2023-12-04 09h53.05.300957 +0000,
,,,,,,,,,,,2,0,2,0,,,,,,,,,,,,,284.5377660000231,,,,,,,,,,284.5345497999806,285.0299904999556,,,[],[],,,,,,,,,,,,None,None,,,,,,,,,,Eimer,robust,"['Eimer', 'robust']",restudy,3,,,,,,284.53448439994827,284.534522300004,"['Ring', 'Flasche', 'Eimer', 'Fahrrad', 'Buch', 'Würfel', 'Schlüssel', 'Trommel', 'Geige', 'Kiste', 'Hut', 'Löffel', 'Vase', 'Kette', 'Hammer', 'Tasse', 'Brille', 'Stift', 'Socke', 'Uhr', 'Jacke', 'Bürste', 'Kamera', 'Kerze', 'Lampe', 'Tasche', 'Schere', 'Rucksack', 'Telefon', 'Blume']",285.0300012999214,285.0327078999253,None,285.03283349995036,291.03545359999407,3,291.0357515999349,291.0384176999796,None,291.03852780000307,,291.0397090999177,291.039720700006,291.0408819000004,1.36538750003092,None,,,,,,,,,,,,,,,,,,,,,,,,,,,,,,,,,,,,,,,,,,,,,,3,2023-12-04_09h52.57.638,watkins1,2023.2.3,99.76216694832176,40,2023-12-04 09h53.05.300957 +0000,
,,,,,,,,,,,3,0,3,0,,,,,,,,,,,,,291.0449254999403,,,,,,,,,,291.0411603000248,291.537081199931,,,[],[],,,,,,,,,,,,None,None,,,,,,,,,,Fahrrad,bunt,"['Fahrrad', 'bunt']",restudy,3,,,,,,291.04109670000616,291.04113419994246,"['Ring', 'Flasche', 'Eimer', 'Fahrrad', 'Buch', 'Würfel', 'Schlüssel', 'Trommel', 'Geige', 'Kiste', 'Hut', 'Löffel', 'Vase', 'Kette', 'Hammer', 'Tasse', 'Brille', 'Stift', 'Socke', 'Uhr', 'Jacke', 'Bürste', 'Kamera', 'Kerze', 'Lampe', 'Tasche', 'Schere', 'Rucksack', 'Telefon', 'Blume']",291.5370934000239,291.5399625999853,None,291.54009080003016,297.54098829999566,3,297.54129570000805,297.5438895999687,None,297.5440039000241,,297.54522909992374,297.5452414000174,297.54629690002184,1.30657420004718,None,,,,,,,,,,,,,,,,,,,,,,,,,,,,,,,,,,,,,,,,,,,,,,3,2023-12-04_09h52.57.638,watkins1,2023.2.3,99.76216694832176,40,2023-12-04 09h53.05.300957 +0000,
,,,,,,,,,,,4,0,4,0,,,,,,,,,,,,,297.5503845999483,,,,,,,,,,297.5465807999717,298.0428004999412,,,[],[],,,,,,,,,,,,None,None,,,,,,,,,,Buch,winzig,"['Buch', 'winzig']",restudy,3,,,,,,297.5465153999394,297.5465536999982,"['Ring', 'Flasche', 'Eimer', 'Fahrrad', 'Buch', 'Würfel', 'Schlüssel', 'Trommel', 'Geige', 'Kiste', 'Hut', 'Löffel', 'Vase', 'Kette', 'Hammer', 'Tasse', 'Brille', 'Stift', 'Socke', 'Uhr', 'Jacke', 'Bürste', 'Kamera', 'Kerze', 'Lampe', 'Tasche', 'Schere', 'Rucksack', 'Telefon', 'Blume']",298.0428110000212,298.04522339999676,None,298.04535069991834,304.04992679995485,2,304.0502416000236,304.0527883999748,None,304.05290220002644,,304.0539469999494,304.0539588999236,304.05514169996604,2.329148600110784,None,,,,,,,,,,,,,,,,,,,,,,,,,,,,,,,,,,,,,,,,,,,,,,3,2023-12-04_09h52.57.638,watkins1,2023.2.3,99.76216694832176,40,2023-12-04 09h53.05.300957 +0000,
,,,,,,,,,,,5,0,5,0,,,,,,,,,,,,,304.05940239992924,,,,,,,,,,304.0554251000285,304.5515569000272,,,[],[],,,,,,,,,,,,None,None,,,,,,,,,,Würfel,krumm,"['Würfel', 'krumm']",test_adj,3,,,,,,304.0553604000015,304.0553979999386,"['Ring', 'Flasche', 'Eimer', 'Fahrrad', 'Buch', 'Würfel', 'Schlüssel', 'Trommel', 'Geige', 'Kiste', 'Hut', 'Löffel', 'Vase', 'Kette', 'Hammer', 'Tasse', 'Brille', 'Stift', 'Socke', 'Uhr', 'Jacke', 'Bürste', 'Kamera', 'Kerze', 'Lampe', 'Tasche', 'Schere', 'Rucksack', 'Telefon', 'Blume']",304.5515679999953,304.5542388999602,None,304.5543619999662,304.5558123999508,None,304.5559218999697,304.5574935999466,None,304.5576020999579,0,310.5599555999506,310.5599695999408,310.5612638000166,,,,,,,,,,,,,,,,,,,,,,,,,,,,,,,,,,,,,,,,,,,,,,,,3,2023-12-04_09h52.57.638,watkins1,2023.2.3,99.76216694832176,40,2023-12-04 09h53.05.300957 +0000,
,,,,,,,,,,,6,0,6,0,,,,,,,,,,,,,310.5697479000082,,,,,,,,,,310.5615736999316,311.05176629999187,,,[],[],,,,,,,,,,,schön,None,None,,,,,,,,,,Schlüssel,hübsch,"['Schlüssel', 'hübsch']",test_adj,3,,,,,,310.56150890002027,310.5615455999505,"['Ring', 'Flasche', 'Eimer', 'Fahrrad', 'Buch', 'Würfel', 'Schlüssel', 'Trommel', 'Geige', 'Kiste', 'Hut', 'Löffel', 'Vase', 'Kette', 'Hammer', 'Tasse', 'Brille', 'Stift', 'Socke', 'Uhr', 'Jacke', 'Bürste', 'Kamera', 'Kerze', 'Lampe', 'Tasche', 'Schere', 'Rucksack', 'Telefon', 'Blume']",311.05177689995617,311.05451499996707,None,311.05463899997994,311.0572340999497,None,311.05734549998306,311.0599434999749,None,311.06005540001206,0,317.06614629994147,317.06616009993013,317.06746839999687,,,,,,,,,,,,,,,,,,,,,,,,,,,,,,,,,,,,,,,,,,,,,,,,3,2023-12-04_09h52.57.638,watkins1,2023.2.3,99.76216694832176,40,2023-12-04 09h53.05.300957 +0000,
,,,,,,,,,,,7,0,7,0,,,,,,,,,,,,,317.07589590002317,,,,,,,,,,317.0677544999635,317.5580337999854,,,[],[],,,,,,,,,,,,None,None,,,,,,,,,,Trommel,hässlich,"['Trommel', 'hässlich']",restudy,3,,,,,,317.067686400027,317.0677261999808,"['Ring', 'Flasche', 'Eimer', 'Fahrrad', 'Buch', 'Würfel', 'Schlüssel', 'Trommel', 'Geige', 'Kiste', 'Hut', 'Löffel', 'Vase', 'Kette', 'Hammer', 'Tasse', 'Brille', 'Stift', 'Socke', 'Uhr', 'Jacke', 'Bürste', 'Kamera', 'Kerze', 'Lampe', 'Tasche', 'Schere', 'Rucksack', 'Telefon', 'Blume']",317.558044699952,317.5607866999926,None,317.56091030000243,323.5711964999791,2,323.5714859999716,323.5742273000069,None,323.5743395999307,,323.57587029994465,323.5758822999196,323.57710460003,2.237311900011264,None,,,,,,,,,,,,,,,,,,,,,,,,,,,,,,,,,,,,,,,,,,,,,,3,2023-12-04_09h52.57.638,watkins1,2023.2.3,99.76216694832176,40,2023-12-04 09h53.05.300957 +0000,
,,,,,,,,,,,8,0,8,0,,,,,,,,,,,,,323.5807810999686,,,,,,,,,,323.57738389994483,324.0729172999272,,,[],[],,,,,,,,,,,schlicht,None,None,,,,,,,,,,Geige,schlicht,"['Geige', 'schlicht']",test_adj,3,,,,,,323.5773200999247,323.5773575999774,"['Ring', 'Flasche', 'Eimer', 'Fahrrad', 'Buch', 'Würfel', 'Schlüssel', 'Trommel', 'Geige', 'Kiste', 'Hut', 'Löffel', 'Vase', 'Kette', 'Hammer', 'Tasse', 'Brille', 'Stift', 'Socke', 'Uhr', 'Jacke', 'Bürste', 'Kamera', 'Kerze', 'Lampe', 'Tasche', 'Schere', 'Rucksack', 'Telefon', 'Blume']",324.0729277000064,324.0756198000163,None,324.07574230001774,324.0771528999321,None,324.07726409996394,324.0786819999339,None,324.0787914999528,0,330.08138480002526,330.0813987000147,330.08275109995157,,,,,,,,,,,,,,,,,,,,,,,,,,,,,,,,,,,,,,,,,,,,,,,,3,2023-12-04_09h52.57.638,watkins1,2023.2.3,99.76216694832176,40,2023-12-04 09h53.05.300957 +0000,
,,,,,,,,,,,9,0,9,0,,,,,,,,,,,,,330.0912943999283,,,,,,,,,,330.08303729991894,330.5733931999421,,,[],[],,,,,,,,,,,hohl,None,None,,,,,,,,,,Kiste,hohl,"['Kiste', 'hohl']",test_adj,3,,,,,,330.0829691999825,330.08300879993476,"['Ring', 'Flasche', 'Eimer', 'Fahrrad', 'Buch', 'Würfel', 'Schlüssel', 'Trommel', 'Geige', 'Kiste', 'Hut', 'Löffel', 'Vase', 'Kette', 'Hammer', 'Tasse', 'Brille', 'Stift', 'Socke', 'Uhr', 'Jacke', 'Bürste', 'Kamera', 'Kerze', 'Lampe', 'Tasche', 'Schere', 'Rucksack', 'Telefon', 'Blume']",330.5734041000251,330.5762711999705,None,330.57639629999176,330.5789792999858,None,330.5790905000176,330.5816792999394,None,330.5817887999583,0,336.5889290999621,336.58894349995535,336.5901018999284,,,,,,,,,,,,,,,,,,,,,,,,,,,,,,,,,,,,,,,,,,,,,,,,3,2023-12-04_09h52.57.638,watkins1,2023.2.3,99.76216694832176,40,2023-12-04 09h53.05.300957 +0000,
,,,,,,,,,,,10,0,10,0,,,,,,,,,,,,,336.59868169995025,,,,,,,,,,336.5903871000046,337.0808149999939,,,[],[],,,,,,,,,,,breit,None,None,,,,,,,,,,Hut,breit,"['Hut', 'breit']",test_adj,3,,,,,,336.5903184999479,336.59035870002117,"['Ring', 'Flasche', 'Eimer', 'Fahrrad', 'Buch', 'Würfel', 'Schlüssel', 'Trommel', 'Geige', 'Kiste', 'Hut', 'Löffel', 'Vase', 'Kette', 'Hammer', 'Tasse', 'Brille', 'Stift', 'Socke', 'Uhr', 'Jacke', 'Bürste', 'Kamera', 'Kerze', 'Lampe', 'Tasche', 'Schere', 'Rucksack', 'Telefon', 'Blume']",337.08082569995895,337.0834259999683,None,337.08355450001545,337.0858398999553,None,337.0859495999757,337.08819529996254,None,337.08830860001035,0,343.0933654999826,343.0933818999911,343.094680899987,,,,,,,,,,,,,,,,,,,,,,,,,,,,,,,,,,,,,,,,,,,,,,,,3,2023-12-04_09h52.57.638,watkins1,2023.2.3,99.76216694832176,40,2023-12-04 09h53.05.300957 +0000,
,,,,,,,,,,,11,0,11,0,,,,,,,,,,,,,343.1031745999353,,,,,,,,,,343.0949690999696,343.5851938999258,,,[],[],,,,,,,,,,,,None,None,,,,,,,,,,Löffel,kalt,"['Löffel', 'kalt']",restudy,3,,,,,,343.09490040002856,343.0949410999892,"['Ring', 'Flasche', 'Eimer', 'Fahrrad', 'Buch', 'Würfel', 'Schlüssel', 'Trommel', 'Geige', 'Kiste', 'Hut', 'Löffel', 'Vase', 'Kette', 'Hammer', 'Tasse', 'Brille', 'Stift', 'Socke', 'Uhr', 'Jacke', 'Bürste', 'Kamera', 'Kerze', 'Lampe', 'Tasche', 'Schere', 'Rucksack', 'Telefon', 'Blume']",343.5852046000073,343.58793959999457,None,343.5880635000067,349.5914919999195,3,349.5917913999874,349.59434940002393,None,349.59446029993705,,349.59594719996676,349.5959589999402,349.59699300001375,1.5938376999692991,None,,,,,,,,,,,,,,,,,,,,,,,,,,,,,,,,,,,,,,,,,,,,,,3,2023-12-04_09h52.57.638,watkins1,2023.2.3,99.76216694832176,40,2023-12-04 09h53.05.300957 +0000,
,,,,,,,,,,,12,0,12,0,,,,,,,,,,,,,349.60105369996745,,,,,,,,,,349.59727219992783,350.09303939994425,,,[],[],,,,,,,,,,,klobig,None,None,,,,,,,,,,Vase,klobig,"['Vase', 'klobig']",test_adj,3,,,,,,349.59720800002106,349.59724549995735,"['Ring', 'Flasche', 'Eimer', 'Fahrrad', 'Buch', 'Würfel', 'Schlüssel', 'Trommel', 'Geige', 'Kiste', 'Hut', 'Löffel', 'Vase', 'Kette', 'Hammer', 'Tasse', 'Brille', 'Stift', 'Socke', 'Uhr', 'Jacke', 'Bürste', 'Kamera', 'Kerze', 'Lampe', 'Tasche', 'Schere', 'Rucksack', 'Telefon', 'Blume']",350.09305030002724,350.09545849997085,None,350.0955820999807,350.0968855000101,None,350.0969942000229,350.0982930000173,None,350.0984033999266,0,356.1005319999531,356.1005461999448,356.1018602999393,,,,,,,,,,,,,,,,,,,,,,,,,,,,,,,,,,,,,,,,,,,,,,,,3,2023-12-04_09h52.57.638,watkins1,2023.2.3,99.76216694832176,40,2023-12-04 09h53.05.300957 +0000,
,,,,,,,,,,,13,0,13,0,,,,,,,,,,,,,356.11044079996645,,,,,,,,,,356.10215069993865,356.5925556999864,,,[],[],,,,,,,,,,,durchsichtig,None,None,,,,,,,,,,Kette,durchsichtig,"['Kette', 'durchsichtig']",test_adj,3,,,,,,356.1020812999923,356.10211989993695,"['Ring', 'Flasche', 'Eimer', 'Fahrrad', 'Buch', 'Würfel', 'Schlüssel', 'Trommel', 'Geige', 'Kiste', 'Hut', 'Löffel', 'Vase', 'Kette', 'Hammer', 'Tasse', 'Brille', 'Stift', 'Socke', 'Uhr', 'Jacke', 'Bürste', 'Kamera', 'Kerze', 'Lampe', 'Tasche', 'Schere', 'Rucksack', 'Telefon', 'Blume']",356.5925662999507,356.5952275999589,None,356.59535349998623,356.59788479993585,None,356.59799629996996,356.6006329000229,None,356.6007427999284,0,362.60606699995697,362.6060808999464,362.6075587000232,,,,,,,,,,,,,,,,,,,,,,,,,,,,,,,,,,,,,,,,,,,,,,,,3,2023-12-04_09h52.57.638,watkins1,2023.2.3,99.76216694832176,40,2023-12-04 09h53.05.300957 +0000,
,,,,,,,,,,,14,0,14,0,,,,,,,,,,,,,362.6158679999644,,,,,,,,,,362.6078483000165,363.0979398000054,,,[],[],,,,,,,,,,,,None,None,,,,,,,,,,Hammer,biegsam,"['Hammer', 'biegsam']",restudy,3,,,,,,362.6077788999537,362.6078196000308,"['Ring', 'Flasche', 'Eimer', 'Fahrrad', 'Buch', 'Würfel', 'Schlüssel', 'Trommel', 'Geige', 'Kiste', 'Hut', 'Löffel', 'Vase', 'Kette', 'Hammer', 'Tasse', 'Brille', 'Stift', 'Socke', 'Uhr', 'Jacke', 'Bürste', 'Kamera', 'Kerze', 'Lampe', 'Tasche', 'Schere', 'Rucksack', 'Telefon', 'Blume']",363.0979508999735,363.10081309999805,None,363.10093960002996,369.10334969998803,1,369.1036475999281,369.1063695999328,None,369.10648199997377,,369.10798829991836,369.108000200009,369.1092034999747,1.665825100033544,None,,,,,,,,,,,,,,,,,,,,,,,,,,,,,,,,,,,,,,,,,,,,,,3,2023-12-04_09h52.57.638,watkins1,2023.2.3,99.76216694832176,40,2023-12-04 09h53.05.300957 +0000,
,,,,,,,,,,,15,0,15,0,,,,,,,,,,,,,369.11275069997646,,,,,,,,,,369.10948530002497,369.605095100007,,,[],[],,,,,,,,,,,,None,None,,,,,,,,,,Tasse,schwer,"['Tasse', 'schwer']",restudy,3,,,,,,369.1094194999896,369.1094576999312,"['Ring', 'Flasche', 'Eimer', 'Fahrrad', 'Buch', 'Würfel', 'Schlüssel', 'Trommel', 'Geige', 'Kiste', 'Hut', 'Löffel', 'Vase', 'Kette', 'Hammer', 'Tasse', 'Brille', 'Stift', 'Socke', 'Uhr', 'Jacke', 'Bürste', 'Kamera', 'Kerze', 'Lampe', 'Tasche', 'Schere', 'Rucksack', 'Telefon', 'Blume']",369.60510639997665,369.6077985999873,None,369.6079246000154,375.61161359993275,1,375.6119097999763,375.6145894000074,None,375.6147013999289,,375.61586090002675,375.6158731000032,375.61706189997494,2.5903221999760717,None,,,,,,,,,,,,,,,,,,,,,,,,,,,,,,,,,,,,,,,,,,,,,,3,2023-12-04_09h52.57.638,watkins1,2023.2.3,99.76216694832176,40,2023-12-04 09h53.05.300957 +0000,
,,,,,,,,,,,16,0,16,0,,,,,,,,,,,,,375.62103509996086,,,,,,,,,,375.6173480999423,376.1131194999907,,,[],[],,,,,,,,,,,,None,None,,,,,,,,,,Brille,niedlich,"['Brille', 'niedlich']",restudy,3,,,,,,375.617279099999,375.6173180999467,"['Ring', 'Flasche', 'Eimer', 'Fahrrad', 'Buch', 'Würfel', 'Schlüssel', 'Trommel', 'Geige', 'Kiste', 'Hut', 'Löffel', 'Vase', 'Kette', 'Hammer', 'Tasse', 'Brille', 'Stift', 'Socke', 'Uhr', 'Jacke', 'Bürste', 'Kamera', 'Kerze', 'Lampe', 'Tasche', 'Schere', 'Rucksack', 'Telefon', 'Blume']",376.1131298999535,376.1159783999901,None,376.1161040000152,382.1262869000202,3,382.1265820999397,382.12927609996404,None,382.1293868999928,,382.13056640001014,382.1305781999836,382.13177390000783,1.090095299994573,None,,,,,,,,,,,,,,,,,,,,,,,,,,,,,,,,,,,,,,,,,,,,,,3,2023-12-04_09h52.57.638,watkins1,2023.2.3,99.76216694832176,40,2023-12-04 09h53.05.300957 +0000,
,,,,,,,,,,,17,0,17,0,,,,,,,,,,,,,382.13586219993886,,,,,,,,,,382.1320556999417,382.6279188999906,,,[],[],,,,,,,,,,,,None,None,,,,,,,,,,Stift,lustig,"['Stift', 'lustig']",restudy,3,,,,,,382.13198860001285,382.1320284999674,"['Ring', 'Flasche', 'Eimer', 'Fahrrad', 'Buch', 'Würfel', 'Schlüssel', 'Trommel', 'Geige', 'Kiste', 'Hut', 'Löffel', 'Vase', 'Kette', 'Hammer', 'Tasse', 'Brille', 'Stift', 'Socke', 'Uhr', 'Jacke', 'Bürste', 'Kamera', 'Kerze', 'Lampe', 'Tasche', 'Schere', 'Rucksack', 'Telefon', 'Blume']",382.6279299999587,382.63083959999494,None,382.6309662000276,388.63332829996943,2,388.6336251000175,388.6363312000176,None,388.6364428999368,,388.6375954999821,388.63760839996394,388.63877760001924,1.5113177000312135,None,,,,,,,,,,,,,,,,,,,,,,,,,,,,,,,,,,,,,,,,,,,,,,3,2023-12-04_09h52.57.638,watkins1,2023.2.3,99.76216694832176,40,2023-12-04 09h53.05.300957 +0000,
,,,,,,,,,,,18,0,18,0,,,,,,,,,,,,,388.6427978000138,,,,,,,,,,388.63905569992494,389.13479259994347,,,[],[],,,,,,,,,,,,None,None,,,,,,,,,,Socke,blass,"['Socke', 'blass']",restudy,3,,,,,,388.6389909000136,388.6390290999552,"['Ring', 'Flasche', 'Eimer', 'Fahrrad', 'Buch', 'Würfel', 'Schlüssel', 'Trommel', 'Geige', 'Kiste', 'Hut', 'Löffel', 'Vase', 'Kette', 'Hammer', 'Tasse', 'Brille', 'Stift', 'Socke', 'Uhr', 'Jacke', 'Bürste', 'Kamera', 'Kerze', 'Lampe', 'Tasche', 'Schere', 'Rucksack', 'Telefon', 'Blume']",389.1348034000257,389.13761560001876,None,389.13773720001336,395.13921559997834,1,395.1395149999298,395.1421356999781,None,395.14224710001145,,395.1434025999624,395.1434142999351,395.1445606999332,1.7166069999802858,None,,,,,,,,,,,,,,,,,,,,,,,,,,,,,,,,,,,,,,,,,,,,,,3,2023-12-04_09h52.57.638,watkins1,2023.2.3,99.76216694832176,40,2023-12-04 09h53.05.300957 +0000,
,,,,,,,,,,,19,0,19,0,,,,,,,,,,,,,395.14877009997144,,,,,,,,,,395.1448453000048,395.641134699923,,,[],[],,,,,,,,,,,,None,None,,,,,,,,,,Uhr,matt,"['Uhr', 'matt']",restudy,3,,,,,,395.14477949996945,395.144817900029,"['Ring', 'Flasche', 'Eimer', 'Fahrrad', 'Buch', 'Würfel', 'Schlüssel', 'Trommel', 'Geige', 'Kiste', 'Hut', 'Löffel', 'Vase', 'Kette', 'Hammer', 'Tasse', 'Brille', 'Stift', 'Socke', 'Uhr', 'Jacke', 'Bürste', 'Kamera', 'Kerze', 'Lampe', 'Tasche', 'Schere', 'Rucksack', 'Telefon', 'Blume']",395.641145600006,395.6437966999365,None,395.6439203999471,401.65396349993534,2,401.6542724999599,401.6566607999848,None,401.6567751999246,,401.6577948000049,401.65780689998064,401.6588464999804,1.5306841999990866,None,,,,,,,,,,,,,,,,,,,,,,,,,,,,,,,,,,,,,,,,,,,,,,3,2023-12-04_09h52.57.638,watkins1,2023.2.3,99.76216694832176,40,2023-12-04 09h53.05.300957 +0000,
,,,,,,,,,,,20,0,20,0,,,,,,,,,,,,,401.66344239993487,,,,,,,,,,401.659130099928,402.15585009998176,,,[],[],,,,,,,,,,,punktog,None,None,,,,,,,,,,Jacke,gepunktet,"['Jacke', 'gepunktet']",test_adj,3,,,,,,401.65906460001133,401.659103199956,"['Ring', 'Flasche', 'Eimer', 'Fahrrad', 'Buch', 'Würfel', 'Schlüssel', 'Trommel', 'Geige', 'Kiste', 'Hut', 'Löffel', 'Vase', 'Kette', 'Hammer', 'Tasse', 'Brille', 'Stift', 'Socke', 'Uhr', 'Jacke', 'Bürste', 'Kamera', 'Kerze', 'Lampe', 'Tasche', 'Schere', 'Rucksack', 'Telefon', 'Blume']",402.15586049994454,402.15837189997546,None,402.1584954999853,402.1599058000138,None,402.16001510003116,402.1615588000277,None,402.16166580002755,0,408.16455829993356,408.1645723999245,408.16591789992526,,,,,,,,,,,,,,,,,,,,,,,,,,,,,,,,,,,,,,,,,,,,,,,,3,2023-12-04_09h52.57.638,watkins1,2023.2.3,99.76216694832176,40,2023-12-04 09h53.05.300957 +0000,
,,,,,,,,,,,21,0,21,0,,,,,,,,,,,,,408.17433279997203,,,,,,,,,,408.1662040000083,408.65644519997295,,,[],[],,,,,,,,,,,,None,None,,,,,,,,,,Bürste,groß,"['Bürste', 'groß']",restudy,3,,,,,,408.16613579995465,408.1661750000203,"['Ring', 'Flasche', 'Eimer', 'Fahrrad', 'Buch', 'Würfel', 'Schlüssel', 'Trommel', 'Geige', 'Kiste', 'Hut', 'Löffel', 'Vase', 'Kette', 'Hammer', 'Tasse', 'Brille', 'Stift', 'Socke', 'Uhr', 'Jacke', 'Bürste', 'Kamera', 'Kerze', 'Lampe', 'Tasche', 'Schere', 'Rucksack', 'Telefon', 'Blume']",408.6564716999419,408.65936029993463,None,408.6594863999635,414.66354360000696,2,414.663841499947,414.6663730000146,None,414.6664853999391,,414.6679697999498,414.66798179992475,414.66901389998384,2.0989303999813274,None,,,,,,,,,,,,,,,,,,,,,,,,,,,,,,,,,,,,,,,,,,,,,,3,2023-12-04_09h52.57.638,watkins1,2023.2.3,99.76216694832176,40,2023-12-04 09h53.05.300957 +0000,
,,,,,,,,,,,22,0,22,0,,,,,,,,,,,,,414.67306629999075,,,,,,,,,,414.6692992999451,415.16513839992695,,,[],[],,,,,,,,,,,nachhaltig,None,None,,,,,,,,,,Kamera,nachhaltig,"['Kamera', 'nachhaltig']",test_adj,3,,,,,,414.6692336000269,414.6692724999739,"['Ring', 'Flasche', 'Eimer', 'Fahrrad', 'Buch', 'Würfel', 'Schlüssel', 'Trommel', 'Geige', 'Kiste', 'Hut', 'Löffel', 'Vase', 'Kette', 'Hammer', 'Tasse', 'Brille', 'Stift', 'Socke', 'Uhr', 'Jacke', 'Bürste', 'Kamera', 'Kerze', 'Lampe', 'Tasche', 'Schere', 'Rucksack', 'Telefon', 'Blume']",415.1651496000122,415.1676853999961,None,415.1678123000311,415.16923040000256,None,415.16933860001154,415.17075799999293,None,415.1708667000057,0,421.17305650003254,421.173070800025,421.1744820999447,,,,,,,,,,,,,,,,,,,,,,,,,,,,,,,,,,,,,,,,,,,,,,,,3,2023-12-04_09h52.57.638,watkins1,2023.2.3,99.76216694832176,40,2023-12-04 09h53.05.300957 +0000,
,,,,,,,,,,,23,0,23,0,,,,,,,,,,,,,421.182959800004,,,,,,,,,,421.1747689000331,421.6650117000099,,,[],[],,,,,,,,,,,sauber,None,None,,,,,,,,,,Kerze,sauber,"['Kerze', 'sauber']",test_adj,3,,,,,,421.1747004999779,421.1747402999317,"['Ring', 'Flasche', 'Eimer', 'Fahrrad', 'Buch', 'Würfel', 'Schlüssel', 'Trommel', 'Geige', 'Kiste', 'Hut', 'Löffel', 'Vase', 'Kette', 'Hammer', 'Tasse', 'Brille', 'Stift', 'Socke', 'Uhr', 'Jacke', 'Bürste', 'Kamera', 'Kerze', 'Lampe', 'Tasche', 'Schere', 'Rucksack', 'Telefon', 'Blume']",421.6650220999727,421.66777870000806,None,421.6679022000171,421.6704706000164,None,421.670581299928,421.67315809999127,None,421.6732658999972,0,427.67886280000675,427.6788765999954,427.6801741999807,,,,,,,,,,,,,,,,,,,,,,,,,,,,,,,,,,,,,,,,,,,,,,,,3,2023-12-04_09h52.57.638,watkins1,2023.2.3,99.76216694832176,40,2023-12-04 09h53.05.300957 +0000,
,,,,,,,,,,,24,0,24,0,,,,,,,,,,,,,427.68866600003093,,,,,,,,,,427.68046199996024,428.17105489992537,,,[],[],,,,,,,,,,,,None,None,,,,,,,,,,Lampe,neu,"['Lampe', 'neu']",restudy,3,,,,,,427.6803925000131,427.680433099973,"['Ring', 'Flasche', 'Eimer', 'Fahrrad', 'Buch', 'Würfel', 'Schlüssel', 'Trommel', 'Geige', 'Kiste', 'Hut', 'Löffel', 'Vase', 'Kette', 'Hammer', 'Tasse', 'Brille', 'Stift', 'Socke', 'Uhr', 'Jacke', 'Bürste', 'Kamera', 'Kerze', 'Lampe', 'Tasche', 'Schere', 'Rucksack', 'Telefon', 'Blume']",428.17106560000684,428.1739142999286,None,428.1740376999369,434.1786623999942,3,434.1789585999213,434.18158099998254,None,434.18169300002046,,434.18316210003104,434.183174100006,434.1842152000172,1.4804087999509647,None,,,,,,,,,,,,,,,,,,,,,,,,,,,,,,,,,,,,,,,,,,,,,,3,2023-12-04_09h52.57.638,watkins1,2023.2.3,99.76216694832176,40,2023-12-04 09h53.05.300957 +0000,
,,,,,,,,,,,25,0,25,0,,,,,,,,,,,,,434.188126699999,,,,,,,,,,434.1844994999701,434.680208100006,,,[],[],,,,,,,,,,,,None,None,,,,,,,,,,Tasche,schmutzig,"['Tasche', 'schmutzig']",restudy,3,,,,,,434.184433999937,434.1844718999928,"['Ring', 'Flasche', 'Eimer', 'Fahrrad', 'Buch', 'Würfel', 'Schlüssel', 'Trommel', 'Geige', 'Kiste', 'Hut', 'Löffel', 'Vase', 'Kette', 'Hammer', 'Tasse', 'Brille', 'Stift', 'Socke', 'Uhr', 'Jacke', 'Bürste', 'Kamera', 'Kerze', 'Lampe', 'Tasche', 'Schere', 'Rucksack', 'Telefon', 'Blume']",434.6802185999695,434.68273569992743,None,434.68285979994107,440.68444480001926,2,440.6847405999433,440.68758679996245,None,440.6876992000034,,440.6888807999203,440.6888927000109,440.69012199994177,3.379269600030966,None,,,,,,,,,,,,,,,,,,,,,,,,,,,,,,,,,,,,,,,,,,,,,,3,2023-12-04_09h52.57.638,watkins1,2023.2.3,99.76216694832176,40,2023-12-04 09h53.05.300957 +0000,
,,,,,,,,,,,26,0,26,0,,,,,,,,,,,,,440.6940200999379,,,,,,,,,,440.6904600999551,441.18607870000415,,,[],[],,,,,,,,,,,modern,None,None,,,,,,,,,,Schere,flauschig,"['Schere', 'flauschig']",test_adj,3,,,,,,440.6903929000255,440.69043179997243,"['Ring', 'Flasche', 'Eimer', 'Fahrrad', 'Buch', 'Würfel', 'Schlüssel', 'Trommel', 'Geige', 'Kiste', 'Hut', 'Löffel', 'Vase', 'Kette', 'Hammer', 'Tasse', 'Brille', 'Stift', 'Socke', 'Uhr', 'Jacke', 'Bürste', 'Kamera', 'Kerze', 'Lampe', 'Tasche', 'Schere', 'Rucksack', 'Telefon', 'Blume']",441.1860891999677,441.18884550000075,None,441.18897329992615,441.19040620001033,None,441.1905147000216,441.1919451999711,None,441.1920558999991,0,447.1944261000026,447.19444019999355,447.19581069995183,,,,,,,,,,,,,,,,,,,,,,,,,,,,,,,,,,,,,,,,,,,,,,,,3,2023-12-04_09h52.57.638,watkins1,2023.2.3,99.76216694832176,40,2023-12-04 09h53.05.300957 +0000,
,,,,,,,,,,,27,0,27,0,,,,,,,,,,,,,447.20418589992914,,,,,,,,,,447.196097399923,447.68620879994705,,,[],[],,,,,,,,,,,scheinend,None,None,,,,,,,,,,Rucksack,strahlend,"['Rucksack', 'strahlend']",test_adj,3,,,,,,447.1960299999919,447.19606889993884,"['Ring', 'Flasche', 'Eimer', 'Fahrrad', 'Buch', 'Würfel', 'Schlüssel', 'Trommel', 'Geige', 'Kiste', 'Hut', 'Löffel', 'Vase', 'Kette', 'Hammer', 'Tasse', 'Brille', 'Stift', 'Socke', 'Uhr', 'Jacke', 'Bürste', 'Kamera', 'Kerze', 'Lampe', 'Tasche', 'Schere', 'Rucksack', 'Telefon', 'Blume']",447.686219300027,447.68902089993935,None,447.689144999953,447.69179209996946,None,447.6919054000173,447.6945540999295,None,447.6946630999446,0,453.7000628999667,453.7000766999554,453.70145479997154,,,,,,,,,,,,,,,,,,,,,,,,,,,,,,,,,,,,,,,,,,,,,,,,3,2023-12-04_09h52.57.638,watkins1,2023.2.3,99.76216694832176,40,2023-12-04 09h53.05.300957 +0000,
,,,,,,,,,,,28,0,28,0,,,,,,,,,,,,,453.70991819992196,,,,,,,,,,453.7017448999686,454.19200089992955,,,[],[],,,,,,,,,,,rustikal,None,None,,,,,,,,,,Telefon,rustikal,"['Telefon', 'rustikal']",test_adj,3,,,,,,453.7016762000276,453.7017162999837,"['Ring', 'Flasche', 'Eimer', 'Fahrrad', 'Buch', 'Würfel', 'Schlüssel', 'Trommel', 'Geige', 'Kiste', 'Hut', 'Löffel', 'Vase', 'Kette', 'Hammer', 'Tasse', 'Brille', 'Stift', 'Socke', 'Uhr', 'Jacke', 'Bürste', 'Kamera', 'Kerze', 'Lampe', 'Tasche', 'Schere', 'Rucksack', 'Telefon', 'Blume']",454.1920117000118,454.19495639996603,None,454.1950806999812,454.19770449993666,None,454.19781629997306,454.2004516000161,None,454.20056070003193,0,460.20614289992955,460.2061569999205,460.20754929992836,,,,,,,,,,,,,,,,,,,,,,,,,,,,,,,,,,,,,,,,,,,,,,,,3,2023-12-04_09h52.57.638,watkins1,2023.2.3,99.76216694832176,40,2023-12-04 09h53.05.300957 +0000,
,,,,,,,,,,,29,0,29,0,,,,,,,,,,,,,460.21594189992175,,,,,,,,,,460.2078382000327,460.6979169999249,,,[],[],,,,,,,,,,,gut,None,None,,,,,,,,,,Blume,gut,"['Blume', 'gut']",test_adj,3,,,,,,460.2077677999623,460.20780879992526,"['Ring', 'Flasche', 'Eimer', 'Fahrrad', 'Buch', 'Würfel', 'Schlüssel', 'Trommel', 'Geige', 'Kiste', 'Hut', 'Löffel', 'Vase', 'Kette', 'Hammer', 'Tasse', 'Brille', 'Stift', 'Socke', 'Uhr', 'Jacke', 'Bürste', 'Kamera', 'Kerze', 'Lampe', 'Tasche', 'Schere', 'Rucksack', 'Telefon', 'Blume']",460.6979280000087,460.7006801000098,None,460.7008059999207,460.70338389999233,None,460.70349430001806,460.7064348999411,None,460.7065461999737,0,466.7124173999764,466.7124315999681,466.7137053000042,,,,,,,,,,,,,,,,,,,,,,,,,,,,,,,,,,,,,,,,,,,,,,,,3,2023-12-04_09h52.57.638,watkins1,2023.2.3,99.76216694832176,40,2023-12-04 09h53.05.300957 +0000,
,,,,,,,,,,,,,,,,,,,,,,,,,,,,,,,,,,,,,,,,,,,,,,,,,,,,,,,,,,,,,,,,,,,,,3,,,,,,,,,,,,,,,,,,,,,,,,,,,,,,,,,,,,,,,,,,,,,,,,,,,,,,,,,,,,,,,,,,,,,,3,2023-12-04_09h52.57.638,watkins1,2023.2.3,99.76216694832176,40,2023-12-04 09h53.05.300957 +0000,
(6 x 3) + 10 = 27 ,Incorrect,button_incorrect,,,,,,,,,,,,,0,0,0,8,,,,,,,,,479.3371334000258,,,,,,,,478.30575619998854,479.3093358000042,,,,,['button_incorrect'],[2.0712334000272676],,,,,,,,,,,,,,,,,,,,,,,,,,distractorTask,3,,,,,,,,,,,,,,,,,,,,,,,,,479.32562999997754,479.3371334000258,481.40219249995425,[-0.287962962962963],[-0.39537037037037037],[1],[0],[0],[2.0712334000272676],['button_incorrect'],481.402865299955,482.4058916999493,,,,,,,,,,,,,,,,,,,,,,,,,,,,,,,,,,3,2023-12-04_09h52.57.638,watkins1,2023.2.3,99.76216694832176,40,2023-12-04 09h53.05.300957 +0000,
(25 : 5) + 5 = 9 ,Incorrect,button_incorrect,,,,,,,,,,,,,0,1,1,6,,,,,,,,,482.4158254999202,,,,,,,,,,,,,,['button_incorrect'],[2.1466913000913337],,,,,,,,,,,,,,,,,,,,,,,,,,distractorTask,3,,,,,,,,,,,,,,,,,,,,,,,,,482.4060826000059,482.4158254999202,484.55595850001555,[-0.38981481481481484],[-0.38981481481481484],[1],[0],[0],[2.1466913000913337],['button_incorrect'],484.5563428000314,485.55956259998493,,,,,,,,,,,,,,,,,,,,,,,,,,,,,,,,,,3,2023-12-04_09h52.57.638,watkins1,2023.2.3,99.76216694832176,40,2023-12-04 09h53.05.300957 +0000,
(54 : 6) - 10 = 0 ,Incorrect,button_incorrect,,,,,,,,,,,,,0,2,2,5,,,,,,,,,485.5696226999862,,,,,,,,,,,,,,['button_incorrect'],[3.16160089999903],,,,,,,,,,,,,,,,,,,,,,,,,,distractorTask,3,,,,,,,,,,,,,,,,,,,,,,,,,485.55975269991904,485.5696226999862,488.7239191000117,[-0.3398148148148148],[-0.3888888888888889],[1],[0],[0],[3.16160089999903],['button_incorrect'],488.7243073999416,489.72757969994564,,,,,,,,,,,,,,,,,,,,,,,,,,,,,,,,,,3,2023-12-04_09h52.57.638,watkins1,2023.2.3,99.76216694832176,40,2023-12-04 09h53.05.300957 +0000,
(9 x 5) - 9 = 36 ,Correct,button_correct,,,,,,,,,,,,,0,3,3,4,,,,,,,,,489.7375293999212,,,,,,,,,,,,,,['button_correct'],[2.0070552999386564],,,,,,,,,,,,,,,,,,,,,,,,,,distractorTask,3,,,,,,,,,,,,,,,,,,,,,,,,,489.7277703,489.7375293999212,491.7365516999271,[0.35185185185185186],[-0.3907407407407407],[1],[0],[0],[2.0070552999386564],['button_correct'],491.73693419992924,492.740756199928,,,,,,,,,,,,,,,,,,,,,,,,,,,,,,,,,,3,2023-12-04_09h52.57.638,watkins1,2023.2.3,99.76216694832176,40,2023-12-04 09h53.05.300957 +0000,
(40 : 5) + 8 = 15 ,Incorrect,button_incorrect,,,,,,,,,,,,,0,4,4,7,,,,,,,,,492.7507879999466,,,,,,,,,,,,,,['button_incorrect'],[1.6041966000339016],,,,,,,,,,,,,,,,,,,,,,,,,,distractorTask,3,,,,,,,,,,,,,,,,,,,,,,,,,492.7409473999869,492.7507879999466,494.34793529997114,[-0.3138888888888889],[-0.3787037037037037],[1],[0],[0],[1.6041966000339016],['button_incorrect'],494.34831199992914,495.3516291999258,,,,,,,,,,,,,,,,,,,,,,,,,,,,,,,,,,3,2023-12-04_09h52.57.638,watkins1,2023.2.3,99.76216694832176,40,2023-12-04 09h53.05.300957 +0000,
(7 x 6) + 9 = 48 ,Incorrect,button_incorrect,,,,,,,,,,,,,0,5,5,9,,,,,,,,,495.36155229993165,,,,,,,,,,,,,,['button_correct'],"[1.6655374000547454, 1.966813600040041]",,,,,,,,,,,,,,,,,,,,,,,,,,distractorTask,3,,,,,,,,,,,,,,,,,,,,,,,,,495.3518602999393,495.36155229993165,497.3205556999892,"[0.33796296296296297, 0.35]","[-0.35555555555555557, -0.3787037037037037]","[1, 1]","[0, 0]","[0, 0]","[1.6655374000547454, 1.966813600040041]",['button_correct'],497.3209555000067,498.3242331999354,,,,,,,,,,,,,,,,,,,,,,,,,,,,,,,,,,3,2023-12-04_09h52.57.638,watkins1,2023.2.3,99.76216694832176,40,2023-12-04 09h53.05.300957 +0000,
(4 : 2) + 4 = 6 ,Correct,button_correct,,,,,,,,,,,,,0,6,6,1,,,,,,,,,498.33417990000453,,,,,,,,,,,,,,['button_correct'],"[2.589495199965313, 2.8807467999868095]",,,,,,,,,,,,,,,,,,,,,,,,,,distractorTask,3,,,,,,,,,,,,,,,,,,,,,,,,,498.324429799919,498.33417990000453,501.20686789997853,"[0.42592592592592593, 0.4083333333333333]","[-0.41203703703703703, -0.4074074074074074]","[1, 1]","[0, 0]","[0, 0]","[2.589495199965313, 2.8807467999868095]",['button_correct'],501.20728229999077,502.2105872000102,,,,,,,,,,,,,,,,,,,,,,,,,,,,,,,,,,3,2023-12-04_09h52.57.638,watkins1,2023.2.3,99.76216694832176,40,2023-12-04 09h53.05.300957 +0000,
(28 : 7) - 3 = 1 ,Correct,button_correct,,,,,,,,,,,,,0,7,7,0,,,,,,,,,502.2205707000103,,,,,,,,,,,,,,['button_incorrect'],[2.207519600051455],,,,,,,,,,,,,,,,,,,,,,,,,,distractorTask,3,,,,,,,,,,,,,,,,,,,,,,,,,502.21078239998315,502.2205707000103,504.4200382999843,[-0.3101851851851852],[-0.387037037037037],[1],[0],[0],[2.207519600051455],['button_incorrect'],504.42042799992487,505.4239109000191,,,,,,,,,,,,,,,,,,,,,,,,,,,,,,,,,,3,2023-12-04_09h52.57.638,watkins1,2023.2.3,99.76216694832176,40,2023-12-04 09h53.05.300957 +0000,
(80 : 10) + 9 = 17 ,Correct,button_correct,,,,,,,,,,,,,0,8,8,3,,,,,,,,,505.4338942000177,,,,,,,,,,,,,,['button_correct'],[2.730066700023599],,,,,,,,,,,,,,,,,,,,,,,,,,distractorTask,3,,,,,,,,,,,,,,,,,,,,,,,,,505.42410479998216,505.4338942000177,508.15601729997434,[0.39444444444444443],[-0.4046296296296296],[1],[0],[0],[2.730066700023599],['button_correct'],508.15639629994985,509.1597598999506,,,,,,,,,,,,,,,,,,,,,,,,,,,,,,,,,,3,2023-12-04_09h52.57.638,watkins1,2023.2.3,99.76216694832176,40,2023-12-04 09h53.05.300957 +0000,
(2 x 5) + 3 = 13 ,Correct,button_correct,,,,,,,,,,,,,0,9,9,2,,,,,,,,,509.16983639996033,,,,,,,,,,,,,,['button_correct'],[1.5146953000221401],,,,,,,,,,,,,,,,,,,,,,,,,,distractorTask,3,,,,,,,,,,,,,,,,,,,,,,,,,509.1599484999897,509.16983639996033,510.67634330003057,[0.35648148148148145],[-0.3814814814814815],[1],[0],[0],[1.5146953000221401],['button_correct'],510.6767159999581,511.68036909995135,,,,,,,,,,,,,,,,,,,,,,,,,,,,,,,,,,3,2023-12-04_09h52.57.638,watkins1,2023.2.3,99.76216694832176,40,2023-12-04 09h53.05.300957 +0000,
,,,,,,,,,,,,,,,,,,,,,,,,,,,,,,,,,,,,,,,,,,,,,,,,,,,,,,,,,,,,,,,,,,,,,3,,,,,,,,,,,,,,,,,,,,,,,,,,,,,,,,,,,,,,,,,,,,,,,,,,,,,,,,,,,,,,,,,,,,,,3,2023-12-04_09h52.57.638,watkins1,2023.2.3,99.76216694832176,40,2023-12-04 09h53.05.300957 +0000,
,,,,,,,,,,,,,,,,,,,0,0,0,0,,,,,520.1842269999906,,,,,,,,,,,,,,Rucksack,8.63393669994548,,,,,,,,,,,,2.6102889999747276,5.613179799984209,,,,,,,,,,,,,freeRecallSub,3,,,,,,,,,,,,,,,,,,,,,,,,,,,,,,,,,,,,,520.1756550000282,520.1842269999906,520.1842269999906,528.8217460999731,return,8.63393669994548,None,Rucksack,"[-0.012962962962962963, -0.014814814814814815]","[0.03148148148148148, 0.03981481481481482]","[1, 1]","[0, 0]","[0, 0]","[1.5555495000444353, 2.188106100074947]",[],,,,,,,,,,,,,,,,,,,3,2023-12-04_09h52.57.638,watkins1,2023.2.3,99.76216694832176,40,2023-12-04 09h53.05.300957 +0000,
,,,,,,,,,,,,,,,,,,,1,0,1,0,,,,,528.8339605999645,,,,,,,,,,,,,,Blume,1.7762824000092223,,,,,,,,,,,,0.7654342000605538,None,,,,,,,,,,,,,freeRecallSub,3,,,,,,,,,,,,,,,,,,,,,,,,,,,,,,,,,,,,,528.8235391000053,528.8339605999645,528.8339605999645,530.6133455999661,return,1.7762824000092223,None,Blume,[],[],[],[],[],[],[],,,,,,,,,,,,,,,,,,,3,2023-12-04_09h52.57.638,watkins1,2023.2.3,99.76216694832176,40,2023-12-04 09h53.05.300957 +0000,
,,,,,,,,,,,,,,,,,,,2,0,2,0,,,,,530.6240296999458,,,,,,,,,,,,,,Tasche,1.586241599987261,,,,,,,,,,,,0.20078339998144656,None,,,,,,,,,,,,,freeRecallSub,3,,,,,,,,,,,,,,,,,,,,,,,,,,,,,,,,,,,,,530.614596099942,530.6240296999458,530.6240296999458,532.2113277999451,return,1.586241599987261,None,Tasche,[],[],[],[],[],[],[],,,,,,,,,,,,,,,,,,,3,2023-12-04_09h52.57.638,watkins1,2023.2.3,99.76216694832176,40,2023-12-04 09h53.05.300957 +0000,
,,,,,,,,,,,,,,,,,,,3,0,3,0,,,,,532.2219176000217,,,,,,,,,,,,,,Telefon,1.7963234999915585,,,,,,,,,,,,0.26071840000804514,None,,,,,,,,,,,,,freeRecallSub,3,,,,,,,,,,,,,,,,,,,,,,,,,,,,,,,,,,,,,532.2125771000283,532.2219176000217,532.2219176000217,534.0197253000224,return,1.7963234999915585,None,Telefon,[],[],[],[],[],[],[],,,,,,,,,,,,,,,,,,,3,2023-12-04_09h52.57.638,watkins1,2023.2.3,99.76216694832176,40,2023-12-04 09h53.05.300957 +0000,
,,,,,,,,,,,,,,,,,,,4,0,4,0,,,,,534.0308947999729,,,,,,,,,,,,,,Lampe,1.187279700068757,,,,,,,,,,,,0.1814374999376014,None,,,,,,,,,,,,,freeRecallSub,3,,,,,,,,,,,,,,,,,,,,,,,,,,,,,,,,,,,,,534.0209821999306,534.0308947999729,534.0308947999729,535.2265228999313,return,1.187279700068757,None,Lampe,[],[],[],[],[],[],[],,,,,,,,,,,,,,,,,,,3,2023-12-04_09h52.57.638,watkins1,2023.2.3,99.76216694832176,40,2023-12-04 09h53.05.300957 +0000,
,,,,,,,,,,,,,,,,,,,5,0,5,0,,,,,535.2377165999496,,,,,,,,,,,,,,Jacke,7.9644458999391645,,,,,,,,,,,,0.6636691000312567,3.4351905999938026,,,,,,,,,,,,,freeRecallSub,3,,,,,,,,,,,,,,,,,,,,,,,,,,,,,,,,,,,,,535.2277849999955,535.2377165999496,535.2377165999496,543.2118965999689,return,7.9644458999391645,None,Jacke,[],[],[],[],[],[],[],,,,,,,,,,,,,,,,,,,3,2023-12-04_09h52.57.638,watkins1,2023.2.3,99.76216694832176,40,2023-12-04 09h53.05.300957 +0000,
,,,,,,,,,,,,,,,,,,,6,0,6,0,,,,,543.2235587999457,,,,,,,,,,,,,,Kamera,1.6027331000659615,,,,,,,,,,,,0.2426149999955669,None,,,,,,,,,,,,,freeRecallSub,3,,,,,,,,,,,,,,,,,,,,,,,,,,,,,,,,,,,,,543.2131540999981,543.2235587999457,543.2235587999457,544.8313374000136,return,1.6027331000659615,None,Kamera,[],[],[],[],[],[],[],,,,,,,,,,,,,,,,,,,3,2023-12-04_09h52.57.638,watkins1,2023.2.3,99.76216694832176,40,2023-12-04 09h53.05.300957 +0000,
,,,,,,,,,,,,,,,,,,,7,0,7,0,,,,,544.8432089999551,,,,,,,,,,,,,,Löffel,3.159203900024295,,,,,,,,,,,,0.20302709995303303,None,,,,,,,,,,,,,freeRecallSub,3,,,,,,,,,,,,,,,,,,,,,,,,,,,,,,,,,,,,,544.8327779999236,544.8432089999551,544.8432089999551,548.0087711999658,return,3.159203900024295,None,Löffel,[],[],[],[],[],[],[],,,,,,,,,,,,,,,,,,,3,2023-12-04_09h52.57.638,watkins1,2023.2.3,99.76216694832176,40,2023-12-04 09h53.05.300957 +0000,
,,,,,,,,,,,,,,,,,,,8,0,8,0,,,,,548.02050470002,,,,,,,,,,,,,,Eimer,30.117671499960124,,,,,,,,,,,,27.638950200052932,None,,,,,,,,,,,,,freeRecallSub,3,,,,,,,,,,,,,,,,,,,,,,,,,,,,,,,,,,,,,548.0100392999593,548.02050470002,548.02050470002,578.1396970999194,return,30.117671499960124,None,Eimer,[],[],[],[],[],[],[],,,,,,,,,,,,,,,,,,,3,2023-12-04_09h52.57.638,watkins1,2023.2.3,99.76216694832176,40,2023-12-04 09h53.05.300957 +0000,
,,,,,,,,,,,,,,,,,,,9,0,9,0,,,,,578.151784799993,,,,,,,,,,,,,,Kiste,3.970294600003399,,,,,,,,,,,,3.0151240000268444,None,,,,,,,,,,,,,freeRecallSub,3,,,,,,,,,,,,,,,,,,,,,,,,,,,,,,,,,,,,,578.1409541999456,578.151784799993,578.151784799993,582.1300618000096,return,3.970294600003399,None,Kiste,[],[],[],[],[],[],[],,,,,,,,,,,,,,,,,,,3,2023-12-04_09h52.57.638,watkins1,2023.2.3,99.76216694832176,40,2023-12-04 09h53.05.300957 +0000,
,,,,,,,,,,,,,,,,,,,10,0,10,0,,,,,582.1424338999204,,,,,,,,,,,,,,Würfel,8.27579300000798,,,,,,,,,,,,6.62076329998672,None,,,,,,,,,,,,,freeRecallSub,3,,,,,,,,,,,,,,,,,,,,,,,,,,,,,,,,,,,,,582.1313168000197,582.1424338999204,582.1424338999204,590.419100399944,return,8.27579300000798,None,Würfel,[],[],[],[],[],[],[],,,,,,,,,,,,,,,,,,,3,2023-12-04_09h52.57.638,watkins1,2023.2.3,99.76216694832176,40,2023-12-04 09h53.05.300957 +0000,
,,,,,,,,,,,,,,,,,,,11,0,11,0,,,,,590.4315814999864,,,,,,,,,,,,,,Hund,4.73046480002813,,,,,,,,,,,,0.736372800078243,None,,,,,,,,,,,,,freeRecallSub,3,,,,,,,,,,,,,,,,,,,,,,,,,,,,,,,,,,,,,590.4203467000043,590.4315814999864,590.4315814999864,595.163876799983,return,4.73046480002813,None,Hund,[],[],[],[],[],[],[],,,,,,,,,,,,,,,,,,,3,2023-12-04_09h52.57.638,watkins1,2023.2.3,99.76216694832176,40,2023-12-04 09h53.05.300957 +0000,
,,,,,,,,,,,,,,,,,,,12,0,12,0,,,,,595.1766800000332,,,,,,,,,,,,,,Katze,0.9774451999692246,,,,,,,,,,,,0.1041119999717921,None,,,,,,,,,,,,,freeRecallSub,3,,,,,,,,,,,,,,,,,,,,,,,,,,,,,,,,,,,,,595.1651380999247,595.1766800000332,595.1766800000332,596.1630798999686,return,0.9774451999692246,None,Katze,[],[],[],[],[],[],[],,,,,,,,,,,,,,,,,,,3,2023-12-04_09h52.57.638,watkins1,2023.2.3,99.76216694832176,40,2023-12-04 09h53.05.300957 +0000,
,,,,,,,,,,,,,,,,,,,13,0,13,0,,,,,596.1761750000296,,,,,,,,,,,,,,Vase,7.425955299986526,,,,,,,,,,,,6.501282299985178,None,,,,,,,,,,,,,freeRecallSub,3,,,,,,,,,,,,,,,,,,,,,,,,,,,,,,,,,,,,,596.1643337999703,596.1761750000296,596.1761750000296,603.6094673000043,return,7.425955299986526,None,Vase,[],[],[],[],[],[],[],,,,,,,,,,,,,,,,,,,3,2023-12-04_09h52.57.638,watkins1,2023.2.3,99.76216694832176,40,2023-12-04 09h53.05.300957 +0000,
,,,,,,,,,,,,,,,,,,,14,0,14,0,,,,,603.6225635999581,,,,,,,,,,,,,,Kette,36.707578200032,,,,,,,,,,,,35.834419800085016,None,,,,,,,,,,,,,freeRecallSub,3,,,,,,,,,,,,,,,,,,,,,,,,,,,,,,,,,,,,,603.6107418999309,603.6225635999581,603.6225635999581,640.3388757000212,return,36.707578200032,None,Kette,[],[],[],[],[],[],[],,,,,,,,,,,,,,,,,,,3,2023-12-04_09h52.57.638,watkins1,2023.2.3,99.76216694832176,40,2023-12-04 09h53.05.300957 +0000,
,,,,,,,,,,,,,,,,,,,15,0,15,0,,,,,640.3519017000217,,,,,,,,,,,,,,,[],,,,,,,,,,,,None,None,,,,,,,,,,,,,freeRecallSub,3,,,,,,,,,,,,,,,,,,,,,,,,,,,,,,,,,,,,,640.3401386999758,640.3519017000217,640.3519017000217,660.5182194999652,None,,,,[0.17777777777777778],[-0.39166666666666666],[1],[0],[0],[20.172624900005758],"['button_continue', 'continue_text']",,,,,,,,,,,,,,,,,,,3,2023-12-04_09h52.57.638,watkins1,2023.2.3,99.76216694832176,40,2023-12-04 09h53.05.300957 +0000,
,,,,,,,,,,,,,,,,,,,,,,,,,,,,,,,,,,,,,,,,,,,,,,,,,,,,,,,,,,,,,,,,,,,,,3,,,,,,,,,,,,,,,,,,,,,,,,,,,,,,,,,,,,,,,,,,,,,,,,,,,,,,,,,,,,,,,,,,,,,,3,2023-12-04_09h52.57.638,watkins1,2023.2.3,99.76216694832176,40,2023-12-04 09h53.05.300957 +0000,
,,,,,,,,,,,,,,,,,,,,,,,0,0,0,0,670.5414252999472,,,,,,,,,,678.518576500006,679.0167870000005,,,,7.9725137000204995,,,,,,,,,,,,None,None,,,,,,,,,,Socke,,,cuedRecallAdj,3,,,,,,,,,,,,,,,,,,,0,,,,,,,,,,,,,,,,,,,,,,,,,,,,,,,,,670.5321995000122,670.5414252999472,670.5414252999472,678.5152233999688,modern,return,7.9725137000204995,None,678.5156104000052,678.5247751999414,678.5247751999414,678.5184280999238,,None,,,,,3,2023-12-04_09h52.57.638,watkins1,2023.2.3,99.76216694832176,40,2023-12-04 09h53.05.300957 +0000,
,,,,,,,,,,,,,,,,,,,,,,,1,0,1,0,679.0267874000128,,,,,,,,,,681.1592567999614,681.6578649999574,,,,2.1271014999365434,,,,,,,,,,,,None,None,,,,,,,,,,Hammer,,,cuedRecallAdj,3,,,,,,,,,,,,,,,,,,,0,,,,,,,,,,,,,,,,,,,,,,,,,,,,,,,,,679.0170213999227,679.0267874000128,679.0267874000128,681.1562036999967,biegsam,return,2.1271014999365434,None,681.1564690999221,681.1657360999379,681.1657360999379,681.1591538999928,,None,,,,,3,2023-12-04_09h52.57.638,watkins1,2023.2.3,99.76216694832176,40,2023-12-04 09h53.05.300957 +0000,
,,,,,,,,,,,,,,,,,,,,,,,2,0,2,0,681.6678198999725,,,,,,,,,,685.4569848999381,685.9556817000266,,,,3.7821286000544205,,,,,,,,,,,,None,None,,,,,,,,,,Eimer,,,cuedRecallAdj,3,,,,,,,,,,,,,,,,,,,0,,,,,,,,,,,,,,,,,,,,,,,,,,,,,,,,,681.6581027000211,681.6678198999725,681.6678198999725,685.4539796999888,robust,return,3.7821286000544205,None,685.4542527999729,685.4635235000169,685.4635235000169,685.4568839999847,,None,,,,,3,2023-12-04_09h52.57.638,watkins1,2023.2.3,99.76216694832176,40,2023-12-04 09h53.05.300957 +0000,
,,,,,,,,,,,,,,,,,,,,,,,3,0,3,0,685.9656309999991,,,,,,,,,,691.0199560999172,691.5187770000193,,,,5.044363699969836,,,,,,,,,,,,None,None,,,,,,,,,,Jacke,,,cuedRecallAdj,3,,,,,,,,,,,,,,,,,,,0,,,,,,,,,,,,,,,,,,,,,,,,,,,,,,,,,685.9559262000257,685.9656309999991,685.9656309999991,691.0168910999782,gepunktet,return,5.044363699969836,None,691.0171591999242,691.0265735000139,691.0265735000139,691.0198556999676,,None,,,,,3,2023-12-04_09h52.57.638,watkins1,2023.2.3,99.76216694832176,40,2023-12-04 09h53.05.300957 +0000,
,,,,,,,,,,,,,,,,,,,,,,,4,0,4,0,691.5287682999624,,,,,,,,,,698.6222727999557,699.120891999919,,,,7.089189899968915,,,,,,,,,,,,None,None,,,,,,,,,,Stift,,,cuedRecallAdj,3,,,,,,,,,,,,,,,,,,,0,,,,,,,,,,,,,,,,,,,,,,,,,,,,,,,,,691.5190238999203,691.5287682999624,691.5287682999624,698.6191148000071,lustig,return,7.089189899968915,None,698.6193854999729,698.6286089000059,698.6286089000059,698.6221716,,None,,,,,3,2023-12-04_09h52.57.638,watkins1,2023.2.3,99.76216694832176,40,2023-12-04 09h53.05.300957 +0000,
,,,,,,,,,,,,,,,,,,,,,,,5,0,5,0,699.1308422000147,,,,,,,,,,701.1020544000203,701.6011729999445,,,,1.9590210999595001,,,,,,,,,,,,None,None,,,,,,,,,,Fahrrad,,,cuedRecallAdj,3,,,,,,,,,,,,,,,,,,,0,,,,,,,,,,,,,,,,,,,,,,,,,,,,,,,,,699.1211304999888,699.1308422000147,699.1308422000147,701.0991714999545,bunt,return,1.9590210999595001,None,701.0994374000002,701.1089979999233,701.1089979999233,701.1019527999451,,None,,,,,3,2023-12-04_09h52.57.638,watkins1,2023.2.3,99.76216694832176,40,2023-12-04 09h53.05.300957 +0000,
,,,,,,,,,,,,,,,,,,,,,,,6,0,6,0,701.6111267999513,,,,,,,,,,703.3014556999551,703.8003077999456,,,,1.6866971000563353,,,,,,,,,,,,None,None,,,,,,,,,,Tasse,,,cuedRecallAdj,3,,,,,,,,,,,,,,,,,,,0,,,,,,,,,,,,,,,,,,,,,,,,,,,,,,,,,701.6014194999589,701.6111267999513,701.6111267999513,703.298495199997,schwer,return,1.6866971000563353,None,703.2987610999262,703.3079623000231,703.3079623000231,703.301354700001,,None,,,,,3,2023-12-04_09h52.57.638,watkins1,2023.2.3,99.76216694832176,40,2023-12-04 09h53.05.300957 +0000,
,,,,,,,,,,,,,,,,,,,,,,,7,0,7,0,703.8102550000185,,,,,,,,,,708.83537659992,709.3339107999345,,,,5.015687000006437,,,,,,,,,,,,None,None,,,,,,,,,,Tasche,,,cuedRecallAdj,3,,,,,,,,,,,,,,,,,,,0,,,,,,,,,,,,,,,,,,,,,,,,,,,,,,,,,703.8005530999508,703.8102550000185,703.8102550000185,708.8323096999666,schmutzig,return,5.015687000006437,None,708.8325780000305,708.8418339999625,708.8418339999625,708.8352760999696,,None,,,,,3,2023-12-04_09h52.57.638,watkins1,2023.2.3,99.76216694832176,40,2023-12-04 09h53.05.300957 +0000,
,,,,,,,,,,,,,,,,,,,,,,,8,0,8,0,709.3439678000286,,,,,,,,,,725.1506388999987,725.649374499917,,,,15.801917299977504,,,,,,,,,,,,None,None,,,,,,,,,,Bürste,,,cuedRecallAdj,3,,,,,,,,,,,,,,,,,,,0,,,,,,,,,,,,,,,,,,,,,,,,,,,,,,,,,709.3341514000203,709.3439678000286,709.3439678000286,725.1476318999194,gross,return,15.801917299977504,None,725.147901999997,725.1572701999685,725.1572701999685,725.1505369999213,,None,,,,,3,2023-12-04_09h52.57.638,watkins1,2023.2.3,99.76216694832176,40,2023-12-04 09h53.05.300957 +0000,
,,,,,,,,,,,,,,,,,,,,,,,9,0,9,0,725.6593141999329,,,,,,,,,,729.8701448999345,730.3691343999235,,,,4.198563600075431,,,,,,,,,,,,None,None,,,,,,,,,,Kiste,,,cuedRecallAdj,3,,,,,,,,,,,,,,,,,,,0,,,,,,,,,,,,,,,,,,,,,,,,,,,,,,,,,725.6496186000295,725.6593141999329,725.6593141999329,729.867277399986,hohl,return,4.198563600075431,None,729.867547199945,729.8770975000225,729.8770975000225,729.8700425999705,,None,,,,,3,2023-12-04_09h52.57.638,watkins1,2023.2.3,99.76216694832176,40,2023-12-04 09h53.05.300957 +0000,
,,,,,,,,,,,,,,,,,,,,,,,10,0,10,0,730.3791839999612,,,,,,,,,,732.4813281999668,732.9799799999455,,,,2.094777400023304,,,,,,,,,,,,None,None,,,,,,,,,,Lampe,,,cuedRecallAdj,3,,,,,,,,,,,,,,,,,,,0,,,,,,,,,,,,,,,,,,,,,,,,,,,,,,,,,730.3693796999287,730.3791839999612,730.3791839999612,732.4783353999956,modern,return,2.094777400023304,None,732.4786021999316,732.4878158000065,732.4878158000065,732.4812259000028,,None,,,,,3,2023-12-04_09h52.57.638,watkins1,2023.2.3,99.76216694832176,40,2023-12-04 09h53.05.300957 +0000,
,,,,,,,,,,,,,,,,,,,,,,,11,0,11,0,732.9898885999573,,,,,,,,,,734.8314471999183,735.330043099937,,,,1.8358490000246093,,,,,,,,,,,,None,None,,,,,,,,,,Kerze,,,cuedRecallAdj,3,,,,,,,,,,,,,,,,,,,0,,,,,,,,,,,,,,,,,,,,,,,,,,,,,,,,,732.9802198000252,732.9898885999573,732.9898885999573,734.8282396999421,sauber,return,1.8358490000246093,None,734.8285019999603,734.8378270999528,734.8378270999528,734.8313465999672,,None,,,,,3,2023-12-04_09h52.57.638,watkins1,2023.2.3,99.76216694832176,40,2023-12-04 09h53.05.300957 +0000,
,,,,,,,,,,,,,,,,,,,,,,,12,0,12,0,735.3399893000023,,,,,,,,,,737.8938292999519,738.3926909000147,,,,2.549843700020574,,,,,,,,,,,,None,None,,,,,,,,,,Hut,,,cuedRecallAdj,3,,,,,,,,,,,,,,,,,,,0,,,,,,,,,,,,,,,,,,,,,,,,,,,,,,,,,735.3302871999331,735.3399893000023,735.3399893000023,737.8910222999984,breit,return,2.549843700020574,None,737.8912927999627,737.9005393999396,737.9005393999396,737.8937280999962,,None,,,,,3,2023-12-04_09h52.57.638,watkins1,2023.2.3,99.76216694832176,40,2023-12-04 09h53.05.300957 +0000,
,,,,,,,,,,,,,,,,,,,,,,,13,0,13,0,738.4026359999552,,,,,,,,,,743.2162227999652,743.7147829999449,,,,4.80719640001189,,,,,,,,,,,,None,None,,,,,,,,,,Trommel,,,cuedRecallAdj,3,,,,,,,,,,,,,,,,,,,0,,,,,,,,,,,,,,,,,,,,,,,,,,,,,,,,,738.3929382999195,738.4026359999552,738.4026359999552,743.2131549000042,hässlich,return,4.80719640001189,None,743.2134212999372,743.2226984000299,743.2226984000299,743.2161206000019,,None,,,,,3,2023-12-04_09h52.57.638,watkins1,2023.2.3,99.76216694832176,40,2023-12-04 09h53.05.300957 +0000,
,,,,,,,,,,,,,,,,,,,,,,,14,0,14,0,743.724733299925,,,,,,,,,,748.227043199935,748.7256626000162,,,,4.4930815999396145,,,,,,,,,,,,None,None,,,,,,,,,,Würfel,,,cuedRecallAdj,3,,,,,,,,,,,,,,,,,,,0,,,,,,,,,,,,,,,,,,,,,,,,,,,,,,,,,743.7150244999211,743.724733299925,743.724733299925,748.2240022999467,wabbelig,return,4.4930815999396145,None,748.2242664999794,748.2335463999771,748.2335463999771,748.2269425999839,,None,,,,,3,2023-12-04_09h52.57.638,watkins1,2023.2.3,99.76216694832176,40,2023-12-04 09h53.05.300957 +0000,
,,,,,,,,,,,,,,,,,,,,,,,15,0,15,0,748.7355591999367,,,,,,,,,,752.23367649992,752.7321345999371,,,,3.4902827000478283,,,,,,,,,,,,None,None,,,,,,,,,,Kamera,,,cuedRecallAdj,3,,,,,,,,,,,,,,,,,,,0,,,,,,,,,,,,,,,,,,,,,,,,,,,,,,,,,748.7259037999902,748.7355591999367,748.7355591999367,752.2304988999385,nachhaltig,return,3.4902827000478283,None,752.2307579999324,752.2400433999719,752.2400433999719,752.2335771999788,,None,,,,,3,2023-12-04_09h52.57.638,watkins1,2023.2.3,99.76216694832176,40,2023-12-04 09h53.05.300957 +0000,
,,,,,,,,,,,,,,,,,,,,,,,16,0,16,0,752.7421449000249,,,,,,,,,,755.2263896999648,755.7251252999995,,,,2.475590099929832,,,,,,,,,,,,None,None,,,,,,,,,,Vase,,,cuedRecallAdj,3,,,,,,,,,,,,,,,,,,,0,,,,,,,,,,,,,,,,,,,,,,,,,,,,,,,,,752.7323755000252,752.7421449000249,752.7421449000249,755.2235188999912,klobig,return,2.475590099929832,None,755.2237851999234,755.2330427999841,755.2330427999841,755.2262880000053,,None,,,,,3,2023-12-04_09h52.57.638,watkins1,2023.2.3,99.76216694832176,40,2023-12-04 09h53.05.300957 +0000,
,,,,,,,,,,,,,,,,,,,,,,,17,0,17,0,755.7350184000097,,,,,,,,,,759.5145572000183,760.0130663999589,,,,3.770677200052887,,,,,,,,,,,,None,None,,,,,,,,,,Telefon,,,cuedRecallAdj,3,,,,,,,,,,,,,,,,,,,0,,,,,,,,,,,,,,,,,,,,,,,,,,,,,,,,,755.7253712000092,755.7350184000097,755.7350184000097,759.511270100018,rustikal,return,3.770677200052887,None,759.5115399999777,759.5209419999737,759.5209419999737,759.5144534999272,,None,,,,,3,2023-12-04_09h52.57.638,watkins1,2023.2.3,99.76216694832176,40,2023-12-04 09h53.05.300957 +0000,
,,,,,,,,,,,,,,,,,,,,,,,18,0,18,0,760.023018399952,,,,,,,,,,765.0373585999478,765.5358810999896,,,,5.010791299981065,,,,,,,,,,,,None,None,,,,,,,,,,Geige,,,cuedRecallAdj,3,,,,,,,,,,,,,,,,,,,0,,,,,,,,,,,,,,,,,,,,,,,,,,,,,,,,,760.0133067999268,760.023018399952,760.023018399952,765.0343255000189,schlicht,return,5.010791299981065,None,765.0345999000128,765.0438687999267,765.0438687999267,765.0372560999822,,None,,,,,3,2023-12-04_09h52.57.638,watkins1,2023.2.3,99.76216694832176,40,2023-12-04 09h53.05.300957 +0000,
,,,,,,,,,,,,,,,,,,,,,,,19,0,19,0,765.5457785000326,,,,,,,,,,770.7408890000079,771.2395033999346,,,,5.183987199910916,,,,,,,,,,,,None,None,,,,,,,,,,Rucksack,,,cuedRecallAdj,3,,,,,,,,,,,,,,,,,,,0,,,,,,,,,,,,,,,,,,,,,,,,,,,,,,,,,765.5361318999203,765.5457785000326,765.5457785000326,770.7377936999546,scheinend,return,5.183987199910916,None,770.7380632000277,770.7475148999365,770.7475148999365,770.7407864999259,,None,,,,,3,2023-12-04_09h52.57.638,watkins1,2023.2.3,99.76216694832176,40,2023-12-04 09h53.05.300957 +0000,
,,,,,,,,,,,,,,,,,,,,,,,20,0,20,0,771.2494975000154,,,,,,,,,,772.9098731999984,773.4088630999904,,,,1.6483712999615818,,,,,,,,,,,,None,None,,,,,,,,,,Löffel,,,cuedRecallAdj,3,,,,,,,,,,,,,,,,,,,0,,,,,,,,,,,,,,,,,,,,,,,,,,,,,,,,,771.2397483999375,771.2494975000154,771.2494975000154,772.9069925999502,kalt,return,1.6483712999615818,None,772.9072591000004,772.9167167999549,772.9167167999549,772.9097713999217,,None,,,,,3,2023-12-04_09h52.57.638,watkins1,2023.2.3,99.76216694832176,40,2023-12-04 09h53.05.300957 +0000,
,,,,,,,,,,,,,,,,,,,,,,,21,0,21,0,773.4187628999352,,,,,,,,,,776.1334655999672,776.6320839999244,,,,2.7110212000552565,,,,,,,,,,,,None,None,,,,,,,,,,Buch,,,cuedRecallAdj,3,,,,,,,,,,,,,,,,,,,0,,,,,,,,,,,,,,,,,,,,,,,,,,,,,,,,,773.4091028999537,773.4187628999352,773.4187628999352,776.1306080999784,winzig,return,2.7110212000552565,None,776.1308755999198,776.1400966999354,776.1400966999354,776.1333639000077,,None,,,,,3,2023-12-04_09h52.57.638,watkins1,2023.2.3,99.76216694832176,40,2023-12-04 09h53.05.300957 +0000,
,,,,,,,,,,,,,,,,,,,,,,,22,0,22,0,776.6421074999962,,,,,,,,,,779.7786015999736,780.2773511999985,,,,3.127719599986449,,,,,,,,,,,,None,None,,,,,,,,,,Brille,,,cuedRecallAdj,3,,,,,,,,,,,,,,,,,,,0,,,,,,,,,,,,,,,,,,,,,,,,,,,,,,,,,776.6323335999623,776.6421074999962,776.6421074999962,779.7755604999838,niedlich,return,3.127719599986449,None,779.7758274999214,779.7850625999272,779.7850625999272,779.7784999000141,,None,,,,,3,2023-12-04_09h52.57.638,watkins1,2023.2.3,99.76216694832176,40,2023-12-04 09h53.05.300957 +0000,
,,,,,,,,,,,,,,,,,,,,,,,23,0,23,0,780.2874021999305,,,,,,,,,,783.4643289999804,783.9629112000111,,,,3.170352599932812,,,,,,,,,,,,None,None,,,,,,,,,,Schlüssel,,,cuedRecallAdj,3,,,,,,,,,,,,,,,,,,,0,,,,,,,,,,,,,,,,,,,,,,,,,,,,,,,,,780.2775912999641,780.2874021999305,780.2874021999305,783.4612023999216,schön,return,3.170352599932812,None,783.4614864999894,783.4707352999831,783.4707352999831,783.4642261000117,,None,,,,,3,2023-12-04_09h52.57.638,watkins1,2023.2.3,99.76216694832176,40,2023-12-04 09h53.05.300957 +0000,
,,,,,,,,,,,,,,,,,,,,,,,24,0,24,0,783.9729110000189,,,,,,,,,,785.7336989999749,786.2324638999999,,,,1.7568042000057176,,,,,,,,,,,,None,None,,,,,,,,,,Blume,,,cuedRecallAdj,3,,,,,,,,,,,,,,,,,,,0,,,,,,,,,,,,,,,,,,,,,,,,,,,,,,,,,783.9631539999973,783.9729110000189,783.9729110000189,785.7308570999885,gut,return,1.7568042000057176,None,785.7311244999291,785.7403200999834,785.7403200999834,785.7335973000154,,None,,,,,3,2023-12-04_09h52.57.638,watkins1,2023.2.3,99.76216694832176,40,2023-12-04 09h53.05.300957 +0000,
,,,,,,,,,,,,,,,,,,,,,,,25,0,25,0,786.2424132999731,,,,,,,,,,788.2541047999403,788.7528312000213,,,,2.007393400068395,,,,,,,,,,,,None,None,,,,,,,,,,Uhr,,,cuedRecallAdj,3,,,,,,,,,,,,,,,,,,,0,,,,,,,,,,,,,,,,,,,,,,,,,,,,,,,,,786.2327111000195,786.2424132999731,786.2424132999731,788.251439100015,matt,return,2.007393400068395,None,788.2517026999267,788.2610245000105,788.2610245000105,788.2539992999518,,None,,,,,3,2023-12-04_09h52.57.638,watkins1,2023.2.3,99.76216694832176,40,2023-12-04 09h53.05.300957 +0000,
,,,,,,,,,,,,,,,,,,,,,,,26,0,26,0,788.7628162000328,,,,,,,,,,794.8015477999579,795.3006230000174,,,,6.030945500009693,,,,,,,,,,,,None,None,,,,,,,,,,Ring,,,cuedRecallAdj,3,,,,,,,,,,,,,,,,,,,0,,,,,,,,,,,,,,,,,,,,,,,,,,,,,,,,,788.7530662999488,788.7628162000328,788.7628162000328,794.7986824000254,neu,return,6.030945500009693,None,794.7989512999775,794.8081974999513,794.8081974999513,794.8014477000106,,None,,,,,3,2023-12-04_09h52.57.638,watkins1,2023.2.3,99.76216694832176,40,2023-12-04 09h53.05.300957 +0000,
,,,,,,,,,,,,,,,,,,,,,,,27,0,27,0,795.3105619000271,,,,,,,,,,798.1960925000021,798.6947451999877,,,,2.8751861999044195,,,,,,,,,,,,None,None,,,,,,,,,,Kette,,,cuedRecallAdj,3,,,,,,,,,,,,,,,,,,,0,,,,,,,,,,,,,,,,,,,,,,,,,,,,,,,,,795.3008654000005,795.3105619000271,795.3105619000271,798.1929713999853,durchsichtig,return,2.8751861999044195,None,798.1932431999594,798.2026189999888,798.2026189999888,798.1959916999331,,None,,,,,3,2023-12-04_09h52.57.638,watkins1,2023.2.3,99.76216694832176,40,2023-12-04 09h53.05.300957 +0000,
,,,,,,,,,,,,,,,,,,,,,,,28,0,28,0,798.7047900999896,,,,,,,,,,803.1667390000075,803.6653626000043,,,,4.456899099983275,,,,,,,,,,,,None,None,,,,,,,,,,Flasche,,,cuedRecallAdj,3,,,,,,,,,,,,,,,,,,,0,,,,,,,,,,,,,,,,,,,,,,,,,,,,,,,,,798.6950055999914,798.7047900999896,798.7047900999896,803.1636665000115,elegant,return,4.456899099983275,None,803.1639298999216,803.1732574999332,803.1732574999332,803.166634800029,,None,,,,,3,2023-12-04_09h52.57.638,watkins1,2023.2.3,99.76216694832176,40,2023-12-04 09h53.05.300957 +0000,
,,,,,,,,,,,,,,,,,,,,,,,29,0,29,0,803.6752662999788,,,,,,,,,,815.5280582000269,816.026722199982,,,,11.846405499964021,,,,,,,,,,,,None,None,,,,,,,,,,Schere,,,cuedRecallAdj,3,,,,,,,,,,,,,,,,,,,0,,,,,,,,,,,,,,,,,,,,,,,,,,,,,,,,,803.6656007999554,803.6752662999788,803.6752662999788,815.5250390999718,stumpf,return,11.846405499964021,None,815.5253041000105,815.534645000007,815.534645000007,815.5279563999502,,None,,,,,3,2023-12-04_09h52.57.638,watkins1,2023.2.3,99.76216694832176,40,2023-12-04 09h53.05.300957 +0000,
,,,,,,,,,,,,,,,,,,,,,,,,,,,,,,,,,,,,,,,,,,,,,,,,,,,,,,,,,,,,,,,,,,,,,3,,,,,,,,,,,,,,,,,,,,,,,,,,,,,,,,,,,,,,,,,,,,,,,,,,,,,,,,,,,,,,,,,,816.04341319995,q,5073.108432100038,None,3,2023-12-04_09h52.57.638,watkins1,2023.2.3,99.76216694832176,40,2023-12-04 09h53.05.300957 +0000,
