Equation,CorrectResponse,Correctbutton,trials_7.thisRepN,trials_7.thisTrialN,trials_7.thisN,trials_7.thisIndex,trials.thisRepN,trials.thisTrialN,trials.thisN,trials.thisIndex,trials_3.thisRepN,trials_3.thisTrialN,trials_3.thisN,trials_3.thisIndex,trials_2.thisRepN,trials_2.thisTrialN,trials_2.thisN,trials_2.thisIndex,trials_4.thisRepN,trials_4.thisTrialN,trials_4.thisN,trials_4.thisIndex,trials_5.thisRepN,trials_5.thisTrialN,trials_5.thisN,trials_5.thisIndex,thisRow.t,notes,list_sub_restudy,list_sub_testsub,code_marius.started,code_marius.stopped,welcome.started,welcome.stopped,instruction_study.started,instruction_study.stopped,fixationcross.started,fixationcross.stopped,blanc.started,blanc.stopped,study_control_probe.started,study_control_probe.stopped,responseKey,responseTime,scale_answer_2.keys,study_control_probe_2.started,study_control_probe_2.stopped,scale_answer_3.keys,blanc_2.started,blanc_2.stopped,test_attr_probe.started,test_attr_probe.stopped,recalled_attr,firstKeyTime,secondWordTime,blanc_3.started,blanc_3.stopped,test_sub_probe.started,test_sub_probe.stopped,recalled_sub,instruction_probe_end.started,instruction_probe_end.stopped,study.started,study.stopped,substantive,adjective,wordpair,task,condition,liste_sub_phase1,liste_adj_phase1,scale_answer.keys,scale_answer.rt,scale_answer.duration,code_defineWordsInit.started,code_defineWordsInit.stopped,liste_sub_phase2,study_control.started,study_control.stopped,scale_answer_4.keys,restudy_same.started,restudy_same.stopped,scale_answer_5.keys,scale_answer_5.rt,scale_answer_5.duration,restudy_different.started,restudy_different.stopped,scale_answer_6.keys,test_attr.started,test_attr.stopped,test_sub.started,test_sub.stopped,correct,distractortask.started,equation_text.started,distractortask.stopped,mouse_answer.x,mouse_answer.y,mouse_answer.leftButton,mouse_answer.midButton,mouse_answer.rightButton,mouse_answer.time,mouse_answer.clicked_name,feedback_distractortask.started,feedback_distractortask.stopped,free_recall.started,text_enter.started,key_resp.started,free_recall.stopped,key_resp.keys,key_resp.rt,key_resp.duration,free_recalled_sub,mouse_continue.x,mouse_continue.y,mouse_continue.leftButton,mouse_continue.midButton,mouse_continue.rightButton,mouse_continue.time,mouse_continue.clicked_name,cued_recall.started,text_enter_2.started,key_continue.started,cued_recall.stopped,recalled_attr1,key_continue.keys,key_continue.rt,key_continue.duration,cued_recall_2.started,text_enter_3.started,key_continue_2.started,cued_recall_2.stopped,recalled_attr2,key_continue_2.keys,key_resp_8.started,key_resp_8.keys,key_resp_8.rt,key_resp_8.duration,condition,date,expName,psychopyVersion,frameRate,participant,expStart,
,,,,,,,,,,,,,,,,,,,,,,,,,,,,,"['Kette', 'Uhr', 'Hammer', 'Hut', 'Eimer', 'Kamera', 'Vase', 'Rucksack', 'Geige', 'Telefon', 'Lampe', 'Tasse', 'Schlüssel', 'Tasche', 'Löffel']","['Blume', 'Würfel', 'Trommel', 'Jacke', 'Bürste', 'Stift', 'Flasche', 'Schere', 'Socke', 'Kiste', 'Fahrrad', 'Kerze', 'Brille', 'Ring', 'Buch']",0.10968889994546771,0.10975839989259839,0.10976650007069111,9.187426100019366,,,,,,,,,,,,,,,,,,,,,,,,,,,,,,,,,,,2,,,,,,,,,,,,,,,,,,,,,,,,,,,,,,,,,,,,,,,,,,,,,,,,,,,,,,,,,,,,,,,,,,,,,,2,2023-12-11_13h35.59.746,watkins1,2023.2.3,99.77689892077603,58,2023-12-11 13h36.06.638189 +0000,
,,,,,,,,,,,,,,,,,,,,,,,,,,,,,,,,,,,9.187474200036377,10.868940200190991,,,,,,,,,,,,,,,,,,,,,,,,,,,,,,,,,2,,,,,,,,,,,,,,,,,,,,,,,,,,,,,,,,,,,,,,,,,,,,,,,,,,,,,,,,,,,,,,,,,,,,,,2,2023-12-11_13h35.59.746,watkins1,2023.2.3,99.77689892077603,58,2023-12-11 13h36.06.638189 +0000,
,,,0,0,0,0,,,,,,,,,,,,,,,,,,,,,11.882682799827307,,,,,,,,,,10.8689557001926,11.87270289985463,18.372403000015765,18.8637434002012,12.36460979981348,18.372239700052887,[],[],None,18.863753899931908,24.866305000148714,None,24.866453900001943,24.866476899944246,24.866483899764717,24.866631200071424,,3.173137799836695,5.462147099897265,24.866811899933964,25.357653399929404,25.3576652999036,31.36209570011124,,,,,,,,,,2,,,,,,,,,,,,,,,,,,,,,,,,,,,,,,,,,,,,,,,,,,,,,,,,,,,,,,,,,,,,,,,,,,,,,,2,2023-12-11_13h35.59.746,watkins1,2023.2.3,99.77689892077603,58,2023-12-11 13h36.06.638189 +0000,
,,,,,,,,,,,,,,,,,,,,,,,,,,,,,,,,,,,,,,,,,,,,,,,,,,,,,,,,,,,,,31.362254899926484,43.283832400105894,,,,,,,2,,,,,,,,,,,,,,,,,,,,,,,,,,,,,,,,,,,,,,,,,,,,,,,,,,,,,,,,,,,,,,,,,,,,,,2,2023-12-11_13h35.59.746,watkins1,2023.2.3,99.77689892077603,58,2023-12-11 13h36.06.638189 +0000,
,,,,,,,0,0,0,0,,,,,,,,,,,,,,,,,44.29741510003805,,,,,,,,,,43.28384999977425,44.28743549995124,44.287899899762124,44.779381699860096,,,None,[],,,,,,,,,,,,,,,,,,,44.779391900170594,50.78462880011648,Telefon,zart,"['Telefon', 'zart']",restudy,2,"['Telefon', 'Uhr', 'Tasche', 'Trommel', 'Kette', 'Geige', 'Buch', 'Kiste', 'Ring', 'Vase', 'Stift', 'Kamera', 'Blume', 'Brille', 'Eimer', 'Hut', 'Hammer', 'Bürste', 'Fahrrad', 'Würfel', 'Schlüssel', 'Lampe', 'Schere', 'Socke', 'Jacke', 'Rucksack', 'Tasse', 'Löffel', 'Kerze', 'Flasche']",['zart'],None,,,,,,,,,,,,,,,,,,,,,,,,,,,,,,,,,,,,,,,,,,,,,,,,,,,,,,,,,,,,,,,,,,,2,2023-12-11_13h35.59.746,watkins1,2023.2.3,99.77689892077603,58,2023-12-11 13h36.06.638189 +0000,
,,,,,,,1,0,1,0,,,,,,,,,,,,,,,,,50.79408370004967,,,,,,,,,,,,50.785063799936324,51.2760466998443,,,3,1.1604081001132727,,,,,,,,,,,,,,,,,,,51.27605709992349,57.28024319978431,Uhr,flach,"['Uhr', 'flach']",restudy,2,"['Telefon', 'Uhr', 'Tasche', 'Trommel', 'Kette', 'Geige', 'Buch', 'Kiste', 'Ring', 'Vase', 'Stift', 'Kamera', 'Blume', 'Brille', 'Eimer', 'Hut', 'Hammer', 'Bürste', 'Fahrrad', 'Würfel', 'Schlüssel', 'Lampe', 'Schere', 'Socke', 'Jacke', 'Rucksack', 'Tasse', 'Löffel', 'Kerze', 'Flasche']","['zart', 'flach']",3,1.1604081001132727,None,,,,,,,,,,,,,,,,,,,,,,,,,,,,,,,,,,,,,,,,,,,,,,,,,,,,,,,,,,,,,,,,,2,2023-12-11_13h35.59.746,watkins1,2023.2.3,99.77689892077603,58,2023-12-11 13h36.06.638189 +0000,
,,,,,,,2,0,2,0,,,,,,,,,,,,,,,,,57.28984009986743,,,,,,,,,,,,57.280850399751216,57.771852700039744,,,2,2.2731453999876976,,,,,,,,,,,,,,,,,,,57.77186329988763,63.773741600103676,Tasche,blass,"['Tasche', 'blass']",restudy,2,"['Telefon', 'Uhr', 'Tasche', 'Trommel', 'Kette', 'Geige', 'Buch', 'Kiste', 'Ring', 'Vase', 'Stift', 'Kamera', 'Blume', 'Brille', 'Eimer', 'Hut', 'Hammer', 'Bürste', 'Fahrrad', 'Würfel', 'Schlüssel', 'Lampe', 'Schere', 'Socke', 'Jacke', 'Rucksack', 'Tasse', 'Löffel', 'Kerze', 'Flasche']","['zart', 'flach', 'blass']",2,2.2731453999876976,None,,,,,,,,,,,,,,,,,,,,,,,,,,,,,,,,,,,,,,,,,,,,,,,,,,,,,,,,,,,,,,,,,2,2023-12-11_13h35.59.746,watkins1,2023.2.3,99.77689892077603,58,2023-12-11 13h36.06.638189 +0000,
,,,,,,,3,0,3,0,,,,,,,,,,,,,,,,,63.783206399995834,,,,,,,,,,,,63.77427370008081,64.26518899993971,,,3,1.8999457000754774,,,,,,,,,,,,,,,,,,,64.26519919978455,70.27379949996248,Trommel,elegant,"['Trommel', 'elegant']",test_sub,2,"['Telefon', 'Uhr', 'Tasche', 'Trommel', 'Kette', 'Geige', 'Buch', 'Kiste', 'Ring', 'Vase', 'Stift', 'Kamera', 'Blume', 'Brille', 'Eimer', 'Hut', 'Hammer', 'Bürste', 'Fahrrad', 'Würfel', 'Schlüssel', 'Lampe', 'Schere', 'Socke', 'Jacke', 'Rucksack', 'Tasse', 'Löffel', 'Kerze', 'Flasche']","['zart', 'flach', 'blass', 'elegant']",3,1.8999457000754774,None,,,,,,,,,,,,,,,,,,,,,,,,,,,,,,,,,,,,,,,,,,,,,,,,,,,,,,,,,,,,,,,,,2,2023-12-11_13h35.59.746,watkins1,2023.2.3,99.77689892077603,58,2023-12-11 13h36.06.638189 +0000,
,,,,,,,4,0,4,0,,,,,,,,,,,,,,,,,70.28333179978654,,,,,,,,,,,,70.27434259979054,70.7653224999085,,,1,1.8869575997814536,,,,,,,,,,,,,,,,,,,70.76533329999074,76.76691940007731,Kette,verspielt,"['Kette', 'verspielt']",restudy,2,"['Telefon', 'Uhr', 'Tasche', 'Trommel', 'Kette', 'Geige', 'Buch', 'Kiste', 'Ring', 'Vase', 'Stift', 'Kamera', 'Blume', 'Brille', 'Eimer', 'Hut', 'Hammer', 'Bürste', 'Fahrrad', 'Würfel', 'Schlüssel', 'Lampe', 'Schere', 'Socke', 'Jacke', 'Rucksack', 'Tasse', 'Löffel', 'Kerze', 'Flasche']","['zart', 'flach', 'blass', 'elegant', 'verspielt']",1,1.8869575997814536,None,,,,,,,,,,,,,,,,,,,,,,,,,,,,,,,,,,,,,,,,,,,,,,,,,,,,,,,,,,,,,,,,,2,2023-12-11_13h35.59.746,watkins1,2023.2.3,99.77689892077603,58,2023-12-11 13h36.06.638189 +0000,
,,,,,,,5,0,5,0,,,,,,,,,,,,,,,,,76.77639009989798,,,,,,,,,,,,76.76745510008186,77.25836209999397,,,3,1.7224808000028133,,,,,,,,,,,,,,,,,,,77.25837180018425,83.25998590001836,Geige,glatt,"['Geige', 'glatt']",restudy,2,"['Telefon', 'Uhr', 'Tasche', 'Trommel', 'Kette', 'Geige', 'Buch', 'Kiste', 'Ring', 'Vase', 'Stift', 'Kamera', 'Blume', 'Brille', 'Eimer', 'Hut', 'Hammer', 'Bürste', 'Fahrrad', 'Würfel', 'Schlüssel', 'Lampe', 'Schere', 'Socke', 'Jacke', 'Rucksack', 'Tasse', 'Löffel', 'Kerze', 'Flasche']","['zart', 'flach', 'blass', 'elegant', 'verspielt', 'glatt']",3,1.7224808000028133,None,,,,,,,,,,,,,,,,,,,,,,,,,,,,,,,,,,,,,,,,,,,,,,,,,,,,,,,,,,,,,,,,,2,2023-12-11_13h35.59.746,watkins1,2023.2.3,99.77689892077603,58,2023-12-11 13h36.06.638189 +0000,
,,,,,,,6,0,6,0,,,,,,,,,,,,,,,,,83.26944570010528,,,,,,,,,,,,83.2605202998966,83.75144510017708,,,1,3.020818800199777,,,,,,,,,,,,,,,,,,,83.75145580014214,89.75308849988505,Buch,nachhaltig,"['Buch', 'nachhaltig']",test_sub,2,"['Telefon', 'Uhr', 'Tasche', 'Trommel', 'Kette', 'Geige', 'Buch', 'Kiste', 'Ring', 'Vase', 'Stift', 'Kamera', 'Blume', 'Brille', 'Eimer', 'Hut', 'Hammer', 'Bürste', 'Fahrrad', 'Würfel', 'Schlüssel', 'Lampe', 'Schere', 'Socke', 'Jacke', 'Rucksack', 'Tasse', 'Löffel', 'Kerze', 'Flasche']","['zart', 'flach', 'blass', 'elegant', 'verspielt', 'glatt', 'nachhaltig']",1,3.020818800199777,None,,,,,,,,,,,,,,,,,,,,,,,,,,,,,,,,,,,,,,,,,,,,,,,,,,,,,,,,,,,,,,,,,2,2023-12-11_13h35.59.746,watkins1,2023.2.3,99.77689892077603,58,2023-12-11 13h36.06.638189 +0000,
,,,,,,,7,0,7,0,,,,,,,,,,,,,,,,,89.76251559983939,,,,,,,,,,,,89.75362249976024,90.24475339986384,,,1,2.920379600021988,,,,,,,,,,,,,,,,,,,90.24477910017595,96.24541890015826,Kiste,winzig,"['Kiste', 'winzig']",test_sub,2,"['Telefon', 'Uhr', 'Tasche', 'Trommel', 'Kette', 'Geige', 'Buch', 'Kiste', 'Ring', 'Vase', 'Stift', 'Kamera', 'Blume', 'Brille', 'Eimer', 'Hut', 'Hammer', 'Bürste', 'Fahrrad', 'Würfel', 'Schlüssel', 'Lampe', 'Schere', 'Socke', 'Jacke', 'Rucksack', 'Tasse', 'Löffel', 'Kerze', 'Flasche']","['zart', 'flach', 'blass', 'elegant', 'verspielt', 'glatt', 'nachhaltig', 'winzig']",1,2.920379600021988,None,,,,,,,,,,,,,,,,,,,,,,,,,,,,,,,,,,,,,,,,,,,,,,,,,,,,,,,,,,,,,,,,,2,2023-12-11_13h35.59.746,watkins1,2023.2.3,99.77689892077603,58,2023-12-11 13h36.06.638189 +0000,
,,,,,,,8,0,8,0,,,,,,,,,,,,,,,,,96.25488719996065,,,,,,,,,,,,96.24594409996644,96.73684469982982,,,1,1.916194099932909,,,,,,,,,,,,,,,,,,,96.73685629991814,102.74311419995502,Ring,breit,"['Ring', 'breit']",test_sub,2,"['Telefon', 'Uhr', 'Tasche', 'Trommel', 'Kette', 'Geige', 'Buch', 'Kiste', 'Ring', 'Vase', 'Stift', 'Kamera', 'Blume', 'Brille', 'Eimer', 'Hut', 'Hammer', 'Bürste', 'Fahrrad', 'Würfel', 'Schlüssel', 'Lampe', 'Schere', 'Socke', 'Jacke', 'Rucksack', 'Tasse', 'Löffel', 'Kerze', 'Flasche']","['zart', 'flach', 'blass', 'elegant', 'verspielt', 'glatt', 'nachhaltig', 'winzig', 'breit']",1,1.916194099932909,None,,,,,,,,,,,,,,,,,,,,,,,,,,,,,,,,,,,,,,,,,,,,,,,,,,,,,,,,,,,,,,,,,2,2023-12-11_13h35.59.746,watkins1,2023.2.3,99.77689892077603,58,2023-12-11 13h36.06.638189 +0000,
,,,,,,,9,0,9,0,,,,,,,,,,,,,,,,,102.75251730019227,,,,,,,,,,,,102.74366729985923,103.23457610001788,,,1,2.2024106001481414,,,,,,,,,,,,,,,,,,,103.2345862002112,109.23770149983466,Vase,strahlend,"['Vase', 'strahlend']",restudy,2,"['Telefon', 'Uhr', 'Tasche', 'Trommel', 'Kette', 'Geige', 'Buch', 'Kiste', 'Ring', 'Vase', 'Stift', 'Kamera', 'Blume', 'Brille', 'Eimer', 'Hut', 'Hammer', 'Bürste', 'Fahrrad', 'Würfel', 'Schlüssel', 'Lampe', 'Schere', 'Socke', 'Jacke', 'Rucksack', 'Tasse', 'Löffel', 'Kerze', 'Flasche']","['zart', 'flach', 'blass', 'elegant', 'verspielt', 'glatt', 'nachhaltig', 'winzig', 'breit', 'strahlend']",1,2.2024106001481414,None,,,,,,,,,,,,,,,,,,,,,,,,,,,,,,,,,,,,,,,,,,,,,,,,,,,,,,,,,,,,,,,,,2,2023-12-11_13h35.59.746,watkins1,2023.2.3,99.77689892077603,58,2023-12-11 13h36.06.638189 +0000,
,,,,,,,10,0,10,0,,,,,,,,,,,,,,,,,109.24717660015449,,,,,,,,,,,,109.23821950005367,109.72916659992188,,,2,2.8917442997917533,,,,,,,,,,,,,,,,,,,109.72917710011825,115.73281880002469,Stift,dick,"['Stift', 'dick']",test_sub,2,"['Telefon', 'Uhr', 'Tasche', 'Trommel', 'Kette', 'Geige', 'Buch', 'Kiste', 'Ring', 'Vase', 'Stift', 'Kamera', 'Blume', 'Brille', 'Eimer', 'Hut', 'Hammer', 'Bürste', 'Fahrrad', 'Würfel', 'Schlüssel', 'Lampe', 'Schere', 'Socke', 'Jacke', 'Rucksack', 'Tasse', 'Löffel', 'Kerze', 'Flasche']","['zart', 'flach', 'blass', 'elegant', 'verspielt', 'glatt', 'nachhaltig', 'winzig', 'breit', 'strahlend', 'dick']",2,2.8917442997917533,None,,,,,,,,,,,,,,,,,,,,,,,,,,,,,,,,,,,,,,,,,,,,,,,,,,,,,,,,,,,,,,,,,2,2023-12-11_13h35.59.746,watkins1,2023.2.3,99.77689892077603,58,2023-12-11 13h36.06.638189 +0000,
,,,,,,,11,0,11,0,,,,,,,,,,,,,,,,,115.74229290010408,,,,,,,,,,,,115.73334390018135,116.2242196998559,,,1,1.7815887001343071,,,,,,,,,,,,,,,,,,,116.22422980004922,122.22985079977661,Kamera,kalt,"['Kamera', 'kalt']",restudy,2,"['Telefon', 'Uhr', 'Tasche', 'Trommel', 'Kette', 'Geige', 'Buch', 'Kiste', 'Ring', 'Vase', 'Stift', 'Kamera', 'Blume', 'Brille', 'Eimer', 'Hut', 'Hammer', 'Bürste', 'Fahrrad', 'Würfel', 'Schlüssel', 'Lampe', 'Schere', 'Socke', 'Jacke', 'Rucksack', 'Tasse', 'Löffel', 'Kerze', 'Flasche']","['zart', 'flach', 'blass', 'elegant', 'verspielt', 'glatt', 'nachhaltig', 'winzig', 'breit', 'strahlend', 'dick', 'kalt']",1,1.7815887001343071,None,,,,,,,,,,,,,,,,,,,,,,,,,,,,,,,,,,,,,,,,,,,,,,,,,,,,,,,,,,,,,,,,,2,2023-12-11_13h35.59.746,watkins1,2023.2.3,99.77689892077603,58,2023-12-11 13h36.06.638189 +0000,
,,,,,,,12,0,12,0,,,,,,,,,,,,,,,,,122.23929389985278,,,,,,,,,,,,122.23037749994546,122.72154519986361,,,1,3.579235500190407,,,,,,,,,,,,,,,,,,,122.72155580017716,128.7254459001124,Blume,glänzend,"['Blume', 'glänzend']",test_sub,2,"['Telefon', 'Uhr', 'Tasche', 'Trommel', 'Kette', 'Geige', 'Buch', 'Kiste', 'Ring', 'Vase', 'Stift', 'Kamera', 'Blume', 'Brille', 'Eimer', 'Hut', 'Hammer', 'Bürste', 'Fahrrad', 'Würfel', 'Schlüssel', 'Lampe', 'Schere', 'Socke', 'Jacke', 'Rucksack', 'Tasse', 'Löffel', 'Kerze', 'Flasche']","['zart', 'flach', 'blass', 'elegant', 'verspielt', 'glatt', 'nachhaltig', 'winzig', 'breit', 'strahlend', 'dick', 'kalt', 'glänzend']",1,3.579235500190407,None,,,,,,,,,,,,,,,,,,,,,,,,,,,,,,,,,,,,,,,,,,,,,,,,,,,,,,,,,,,,,,,,,2,2023-12-11_13h35.59.746,watkins1,2023.2.3,99.77689892077603,58,2023-12-11 13h36.06.638189 +0000,
,,,,,,,13,0,13,0,,,,,,,,,,,,,,,,,128.73479889985174,,,,,,,,,,,,128.72597949998453,129.21699049975723,,,1,3.1806638003326952,,,,,,,,,,,,,,,,,,,129.21700040018186,135.2212991998531,Brille,robust,"['Brille', 'robust']",test_sub,2,"['Telefon', 'Uhr', 'Tasche', 'Trommel', 'Kette', 'Geige', 'Buch', 'Kiste', 'Ring', 'Vase', 'Stift', 'Kamera', 'Blume', 'Brille', 'Eimer', 'Hut', 'Hammer', 'Bürste', 'Fahrrad', 'Würfel', 'Schlüssel', 'Lampe', 'Schere', 'Socke', 'Jacke', 'Rucksack', 'Tasse', 'Löffel', 'Kerze', 'Flasche']","['zart', 'flach', 'blass', 'elegant', 'verspielt', 'glatt', 'nachhaltig', 'winzig', 'breit', 'strahlend', 'dick', 'kalt', 'glänzend', 'robust']",1,3.1806638003326952,None,,,,,,,,,,,,,,,,,,,,,,,,,,,,,,,,,,,,,,,,,,,,,,,,,,,,,,,,,,,,,,,,,2,2023-12-11_13h35.59.746,watkins1,2023.2.3,99.77689892077603,58,2023-12-11 13h36.06.638189 +0000,
,,,,,,,14,0,14,0,,,,,,,,,,,,,,,,,135.23077630018815,,,,,,,,,,,,135.22182800015435,135.71416250010952,,,1,2.738965699914843,,,,,,,,,,,,,,,,,,,135.7141730999574,141.71561719989404,Eimer,lang,"['Eimer', 'lang']",restudy,2,"['Telefon', 'Uhr', 'Tasche', 'Trommel', 'Kette', 'Geige', 'Buch', 'Kiste', 'Ring', 'Vase', 'Stift', 'Kamera', 'Blume', 'Brille', 'Eimer', 'Hut', 'Hammer', 'Bürste', 'Fahrrad', 'Würfel', 'Schlüssel', 'Lampe', 'Schere', 'Socke', 'Jacke', 'Rucksack', 'Tasse', 'Löffel', 'Kerze', 'Flasche']","['zart', 'flach', 'blass', 'elegant', 'verspielt', 'glatt', 'nachhaltig', 'winzig', 'breit', 'strahlend', 'dick', 'kalt', 'glänzend', 'robust', 'lang']",1,2.738965699914843,None,,,,,,,,,,,,,,,,,,,,,,,,,,,,,,,,,,,,,,,,,,,,,,,,,,,,,,,,,,,,,,,,,2,2023-12-11_13h35.59.746,watkins1,2023.2.3,99.77689892077603,58,2023-12-11 13h36.06.638189 +0000,
,,,,,,,15,0,15,0,,,,,,,,,,,,,,,,,141.72515669977292,,,,,,,,,,,,141.7161542000249,142.20733579993248,,,3,1.638010200113058,,,,,,,,,,,,,,,,,,,142.20734620001167,148.21640679985285,Hut,nass,"['Hut', 'nass']",restudy,2,"['Telefon', 'Uhr', 'Tasche', 'Trommel', 'Kette', 'Geige', 'Buch', 'Kiste', 'Ring', 'Vase', 'Stift', 'Kamera', 'Blume', 'Brille', 'Eimer', 'Hut', 'Hammer', 'Bürste', 'Fahrrad', 'Würfel', 'Schlüssel', 'Lampe', 'Schere', 'Socke', 'Jacke', 'Rucksack', 'Tasse', 'Löffel', 'Kerze', 'Flasche']","['zart', 'flach', 'blass', 'elegant', 'verspielt', 'glatt', 'nachhaltig', 'winzig', 'breit', 'strahlend', 'dick', 'kalt', 'glänzend', 'robust', 'lang', 'nass']",3,1.638010200113058,None,,,,,,,,,,,,,,,,,,,,,,,,,,,,,,,,,,,,,,,,,,,,,,,,,,,,,,,,,,,,,,,,,2,2023-12-11_13h35.59.746,watkins1,2023.2.3,99.77689892077603,58,2023-12-11 13h36.06.638189 +0000,
,,,,,,,16,0,16,0,,,,,,,,,,,,,,,,,148.2258174000308,,,,,,,,,,,,148.21693779993802,148.7079606000334,,,2,3.193408699706197,,,,,,,,,,,,,,,,,,,148.70797180011868,154.7155544999987,Hammer,schlicht,"['Hammer', 'schlicht']",restudy,2,"['Telefon', 'Uhr', 'Tasche', 'Trommel', 'Kette', 'Geige', 'Buch', 'Kiste', 'Ring', 'Vase', 'Stift', 'Kamera', 'Blume', 'Brille', 'Eimer', 'Hut', 'Hammer', 'Bürste', 'Fahrrad', 'Würfel', 'Schlüssel', 'Lampe', 'Schere', 'Socke', 'Jacke', 'Rucksack', 'Tasse', 'Löffel', 'Kerze', 'Flasche']","['zart', 'flach', 'blass', 'elegant', 'verspielt', 'glatt', 'nachhaltig', 'winzig', 'breit', 'strahlend', 'dick', 'kalt', 'glänzend', 'robust', 'lang', 'nass', 'schlicht']",2,3.193408699706197,None,,,,,,,,,,,,,,,,,,,,,,,,,,,,,,,,,,,,,,,,,,,,,,,,,,,,,,,,,,,,,,,,,2,2023-12-11_13h35.59.746,watkins1,2023.2.3,99.77689892077603,58,2023-12-11 13h36.06.638189 +0000,
,,,,,,,17,0,17,0,,,,,,,,,,,,,,,,,154.72511480003595,,,,,,,,,,,,154.7160860002041,155.20712199993432,,,3,2.5738548999652267,,,,,,,,,,,,,,,,,,,155.20713200001046,161.21312330011278,Bürste,sauber,"['Bürste', 'sauber']",test_sub,2,"['Telefon', 'Uhr', 'Tasche', 'Trommel', 'Kette', 'Geige', 'Buch', 'Kiste', 'Ring', 'Vase', 'Stift', 'Kamera', 'Blume', 'Brille', 'Eimer', 'Hut', 'Hammer', 'Bürste', 'Fahrrad', 'Würfel', 'Schlüssel', 'Lampe', 'Schere', 'Socke', 'Jacke', 'Rucksack', 'Tasse', 'Löffel', 'Kerze', 'Flasche']","['zart', 'flach', 'blass', 'elegant', 'verspielt', 'glatt', 'nachhaltig', 'winzig', 'breit', 'strahlend', 'dick', 'kalt', 'glänzend', 'robust', 'lang', 'nass', 'schlicht', 'sauber']",3,2.5738548999652267,None,,,,,,,,,,,,,,,,,,,,,,,,,,,,,,,,,,,,,,,,,,,,,,,,,,,,,,,,,,,,,,,,,2,2023-12-11_13h35.59.746,watkins1,2023.2.3,99.77689892077603,58,2023-12-11 13h36.06.638189 +0000,
,,,,,,,18,0,18,0,,,,,,,,,,,,,,,,,161.22258660010993,,,,,,,,,,,,161.21364870015532,161.70463400008157,,,1,2.9084344999864697,,,,,,,,,,,,,,,,,,,161.70464430004358,167.7125878999941,Fahrrad,flauschig,"['Fahrrad', 'flauschig']",test_sub,2,"['Telefon', 'Uhr', 'Tasche', 'Trommel', 'Kette', 'Geige', 'Buch', 'Kiste', 'Ring', 'Vase', 'Stift', 'Kamera', 'Blume', 'Brille', 'Eimer', 'Hut', 'Hammer', 'Bürste', 'Fahrrad', 'Würfel', 'Schlüssel', 'Lampe', 'Schere', 'Socke', 'Jacke', 'Rucksack', 'Tasse', 'Löffel', 'Kerze', 'Flasche']","['zart', 'flach', 'blass', 'elegant', 'verspielt', 'glatt', 'nachhaltig', 'winzig', 'breit', 'strahlend', 'dick', 'kalt', 'glänzend', 'robust', 'lang', 'nass', 'schlicht', 'sauber', 'flauschig']",1,2.9084344999864697,None,,,,,,,,,,,,,,,,,,,,,,,,,,,,,,,,,,,,,,,,,,,,,,,,,,,,,,,,,,,,,,,,,2,2023-12-11_13h35.59.746,watkins1,2023.2.3,99.77689892077603,58,2023-12-11 13h36.06.638189 +0000,
,,,,,,,19,0,19,0,,,,,,,,,,,,,,,,,167.7224371000193,,,,,,,,,,,,167.71313109993935,168.20481560006738,,,3,1.6482055000960827,,,,,,,,,,,,,,,,,,,168.20482619991526,174.21510560018942,Würfel,bunt,"['Würfel', 'bunt']",test_sub,2,"['Telefon', 'Uhr', 'Tasche', 'Trommel', 'Kette', 'Geige', 'Buch', 'Kiste', 'Ring', 'Vase', 'Stift', 'Kamera', 'Blume', 'Brille', 'Eimer', 'Hut', 'Hammer', 'Bürste', 'Fahrrad', 'Würfel', 'Schlüssel', 'Lampe', 'Schere', 'Socke', 'Jacke', 'Rucksack', 'Tasse', 'Löffel', 'Kerze', 'Flasche']","['zart', 'flach', 'blass', 'elegant', 'verspielt', 'glatt', 'nachhaltig', 'winzig', 'breit', 'strahlend', 'dick', 'kalt', 'glänzend', 'robust', 'lang', 'nass', 'schlicht', 'sauber', 'flauschig', 'bunt']",3,1.6482055000960827,None,,,,,,,,,,,,,,,,,,,,,,,,,,,,,,,,,,,,,,,,,,,,,,,,,,,,,,,,,,,,,,,,,2,2023-12-11_13h35.59.746,watkins1,2023.2.3,99.77689892077603,58,2023-12-11 13h36.06.638189 +0000,
,,,,,,,20,0,20,0,,,,,,,,,,,,,,,,,174.22467079991475,,,,,,,,,,,,174.21563850017264,174.70664149988443,,,2,3.4109821999445558,,,,,,,,,,,,,,,,,,,174.7066521998495,180.71503790002316,Schlüssel,hohl,"['Schlüssel', 'hohl']",restudy,2,"['Telefon', 'Uhr', 'Tasche', 'Trommel', 'Kette', 'Geige', 'Buch', 'Kiste', 'Ring', 'Vase', 'Stift', 'Kamera', 'Blume', 'Brille', 'Eimer', 'Hut', 'Hammer', 'Bürste', 'Fahrrad', 'Würfel', 'Schlüssel', 'Lampe', 'Schere', 'Socke', 'Jacke', 'Rucksack', 'Tasse', 'Löffel', 'Kerze', 'Flasche']","['zart', 'flach', 'blass', 'elegant', 'verspielt', 'glatt', 'nachhaltig', 'winzig', 'breit', 'strahlend', 'dick', 'kalt', 'glänzend', 'robust', 'lang', 'nass', 'schlicht', 'sauber', 'flauschig', 'bunt', 'hohl']",2,3.4109821999445558,None,,,,,,,,,,,,,,,,,,,,,,,,,,,,,,,,,,,,,,,,,,,,,,,,,,,,,,,,,,,,,,,,,2,2023-12-11_13h35.59.746,watkins1,2023.2.3,99.77689892077603,58,2023-12-11 13h36.06.638189 +0000,
,,,,,,,21,0,21,0,,,,,,,,,,,,,,,,,180.7246138001792,,,,,,,,,,,,180.7155700000003,181.20655060000718,,,1,5.094430699944496,,,,,,,,,,,,,,,,,,,181.20656100008637,187.2158443997614,Lampe,niedlich,"['Lampe', 'niedlich']",restudy,2,"['Telefon', 'Uhr', 'Tasche', 'Trommel', 'Kette', 'Geige', 'Buch', 'Kiste', 'Ring', 'Vase', 'Stift', 'Kamera', 'Blume', 'Brille', 'Eimer', 'Hut', 'Hammer', 'Bürste', 'Fahrrad', 'Würfel', 'Schlüssel', 'Lampe', 'Schere', 'Socke', 'Jacke', 'Rucksack', 'Tasse', 'Löffel', 'Kerze', 'Flasche']","['zart', 'flach', 'blass', 'elegant', 'verspielt', 'glatt', 'nachhaltig', 'winzig', 'breit', 'strahlend', 'dick', 'kalt', 'glänzend', 'robust', 'lang', 'nass', 'schlicht', 'sauber', 'flauschig', 'bunt', 'hohl', 'niedlich']",1,5.094430699944496,None,,,,,,,,,,,,,,,,,,,,,,,,,,,,,,,,,,,,,,,,,,,,,,,,,,,,,,,,,,,,,,,,,2,2023-12-11_13h35.59.746,watkins1,2023.2.3,99.77689892077603,58,2023-12-11 13h36.06.638189 +0000,
,,,,,,,22,0,22,0,,,,,,,,,,,,,,,,,187.2253613998182,,,,,,,,,,,,187.21637709997594,187.70739899994805,,,2,3.7783441999927163,,,,,,,,,,,,,,,,,,,187.70740929991007,193.71119510009885,Schere,gut,"['Schere', 'gut']",test_sub,2,"['Telefon', 'Uhr', 'Tasche', 'Trommel', 'Kette', 'Geige', 'Buch', 'Kiste', 'Ring', 'Vase', 'Stift', 'Kamera', 'Blume', 'Brille', 'Eimer', 'Hut', 'Hammer', 'Bürste', 'Fahrrad', 'Würfel', 'Schlüssel', 'Lampe', 'Schere', 'Socke', 'Jacke', 'Rucksack', 'Tasse', 'Löffel', 'Kerze', 'Flasche']","['zart', 'flach', 'blass', 'elegant', 'verspielt', 'glatt', 'nachhaltig', 'winzig', 'breit', 'strahlend', 'dick', 'kalt', 'glänzend', 'robust', 'lang', 'nass', 'schlicht', 'sauber', 'flauschig', 'bunt', 'hohl', 'niedlich', 'gut']",2,3.7783441999927163,None,,,,,,,,,,,,,,,,,,,,,,,,,,,,,,,,,,,,,,,,,,,,,,,,,,,,,,,,,,,,,,,,,2,2023-12-11_13h35.59.746,watkins1,2023.2.3,99.77689892077603,58,2023-12-11 13h36.06.638189 +0000,
,,,,,,,23,0,23,0,,,,,,,,,,,,,,,,,193.72065739985555,,,,,,,,,,,,193.7117249001749,194.20257980003953,,,2,3.0429221000522375,,,,,,,,,,,,,,,,,,,194.2025903998874,200.20920589985326,Socke,dunkel,"['Socke', 'dunkel']",test_sub,2,"['Telefon', 'Uhr', 'Tasche', 'Trommel', 'Kette', 'Geige', 'Buch', 'Kiste', 'Ring', 'Vase', 'Stift', 'Kamera', 'Blume', 'Brille', 'Eimer', 'Hut', 'Hammer', 'Bürste', 'Fahrrad', 'Würfel', 'Schlüssel', 'Lampe', 'Schere', 'Socke', 'Jacke', 'Rucksack', 'Tasse', 'Löffel', 'Kerze', 'Flasche']","['zart', 'flach', 'blass', 'elegant', 'verspielt', 'glatt', 'nachhaltig', 'winzig', 'breit', 'strahlend', 'dick', 'kalt', 'glänzend', 'robust', 'lang', 'nass', 'schlicht', 'sauber', 'flauschig', 'bunt', 'hohl', 'niedlich', 'gut', 'dunkel']",2,3.0429221000522375,None,,,,,,,,,,,,,,,,,,,,,,,,,,,,,,,,,,,,,,,,,,,,,,,,,,,,,,,,,,,,,,,,,2,2023-12-11_13h35.59.746,watkins1,2023.2.3,99.77689892077603,58,2023-12-11 13h36.06.638189 +0000,
,,,,,,,24,0,24,0,,,,,,,,,,,,,,,,,200.21867399988696,,,,,,,,,,,,200.20975309982896,200.7008866998367,,,3,2.855930700432509,,,,,,,,,,,,,,,,,,,200.7008970999159,206.7017274000682,Jacke,kaputt,"['Jacke', 'kaputt']",test_sub,2,"['Telefon', 'Uhr', 'Tasche', 'Trommel', 'Kette', 'Geige', 'Buch', 'Kiste', 'Ring', 'Vase', 'Stift', 'Kamera', 'Blume', 'Brille', 'Eimer', 'Hut', 'Hammer', 'Bürste', 'Fahrrad', 'Würfel', 'Schlüssel', 'Lampe', 'Schere', 'Socke', 'Jacke', 'Rucksack', 'Tasse', 'Löffel', 'Kerze', 'Flasche']","['zart', 'flach', 'blass', 'elegant', 'verspielt', 'glatt', 'nachhaltig', 'winzig', 'breit', 'strahlend', 'dick', 'kalt', 'glänzend', 'robust', 'lang', 'nass', 'schlicht', 'sauber', 'flauschig', 'bunt', 'hohl', 'niedlich', 'gut', 'dunkel', 'kaputt']",3,2.855930700432509,None,,,,,,,,,,,,,,,,,,,,,,,,,,,,,,,,,,,,,,,,,,,,,,,,,,,,,,,,,,,,,,,,,2,2023-12-11_13h35.59.746,watkins1,2023.2.3,99.77689892077603,58,2023-12-11 13h36.06.638189 +0000,
,,,,,,,25,0,25,0,,,,,,,,,,,,,,,,,206.71120710019022,,,,,,,,,,,,206.70226019993424,207.19328369991854,,,1,2.524040199816227,,,,,,,,,,,,,,,,,,,207.19329380011186,213.20253380015492,Rucksack,kratzig,"['Rucksack', 'kratzig']",restudy,2,"['Telefon', 'Uhr', 'Tasche', 'Trommel', 'Kette', 'Geige', 'Buch', 'Kiste', 'Ring', 'Vase', 'Stift', 'Kamera', 'Blume', 'Brille', 'Eimer', 'Hut', 'Hammer', 'Bürste', 'Fahrrad', 'Würfel', 'Schlüssel', 'Lampe', 'Schere', 'Socke', 'Jacke', 'Rucksack', 'Tasse', 'Löffel', 'Kerze', 'Flasche']","['zart', 'flach', 'blass', 'elegant', 'verspielt', 'glatt', 'nachhaltig', 'winzig', 'breit', 'strahlend', 'dick', 'kalt', 'glänzend', 'robust', 'lang', 'nass', 'schlicht', 'sauber', 'flauschig', 'bunt', 'hohl', 'niedlich', 'gut', 'dunkel', 'kaputt', 'kratzig']",1,2.524040199816227,None,,,,,,,,,,,,,,,,,,,,,,,,,,,,,,,,,,,,,,,,,,,,,,,,,,,,,,,,,,,,,,,,,2,2023-12-11_13h35.59.746,watkins1,2023.2.3,99.77689892077603,58,2023-12-11 13h36.06.638189 +0000,
,,,,,,,26,0,26,0,,,,,,,,,,,,,,,,,213.21197099983692,,,,,,,,,,,,213.20319279981777,213.69380330014974,,,3,1.158824299927801,,,,,,,,,,,,,,,,,,,213.69381449976936,219.70191599987447,Tasse,groß,"['Tasse', 'groß']",restudy,2,"['Telefon', 'Uhr', 'Tasche', 'Trommel', 'Kette', 'Geige', 'Buch', 'Kiste', 'Ring', 'Vase', 'Stift', 'Kamera', 'Blume', 'Brille', 'Eimer', 'Hut', 'Hammer', 'Bürste', 'Fahrrad', 'Würfel', 'Schlüssel', 'Lampe', 'Schere', 'Socke', 'Jacke', 'Rucksack', 'Tasse', 'Löffel', 'Kerze', 'Flasche']","['zart', 'flach', 'blass', 'elegant', 'verspielt', 'glatt', 'nachhaltig', 'winzig', 'breit', 'strahlend', 'dick', 'kalt', 'glänzend', 'robust', 'lang', 'nass', 'schlicht', 'sauber', 'flauschig', 'bunt', 'hohl', 'niedlich', 'gut', 'dunkel', 'kaputt', 'kratzig', 'groß']",3,1.158824299927801,None,,,,,,,,,,,,,,,,,,,,,,,,,,,,,,,,,,,,,,,,,,,,,,,,,,,,,,,,,,,,,,,,,2,2023-12-11_13h35.59.746,watkins1,2023.2.3,99.77689892077603,58,2023-12-11 13h36.06.638189 +0000,
,,,,,,,27,0,27,0,,,,,,,,,,,,,,,,,219.71142720011994,,,,,,,,,,,,219.7024443000555,220.19342220015824,,,1,1.9309764998033643,,,,,,,,,,,,,,,,,,,220.1934322998859,226.20337769994512,Löffel,biegsam,"['Löffel', 'biegsam']",restudy,2,"['Telefon', 'Uhr', 'Tasche', 'Trommel', 'Kette', 'Geige', 'Buch', 'Kiste', 'Ring', 'Vase', 'Stift', 'Kamera', 'Blume', 'Brille', 'Eimer', 'Hut', 'Hammer', 'Bürste', 'Fahrrad', 'Würfel', 'Schlüssel', 'Lampe', 'Schere', 'Socke', 'Jacke', 'Rucksack', 'Tasse', 'Löffel', 'Kerze', 'Flasche']","['zart', 'flach', 'blass', 'elegant', 'verspielt', 'glatt', 'nachhaltig', 'winzig', 'breit', 'strahlend', 'dick', 'kalt', 'glänzend', 'robust', 'lang', 'nass', 'schlicht', 'sauber', 'flauschig', 'bunt', 'hohl', 'niedlich', 'gut', 'dunkel', 'kaputt', 'kratzig', 'groß', 'biegsam']",1,1.9309764998033643,None,,,,,,,,,,,,,,,,,,,,,,,,,,,,,,,,,,,,,,,,,,,,,,,,,,,,,,,,,,,,,,,,,2,2023-12-11_13h35.59.746,watkins1,2023.2.3,99.77689892077603,58,2023-12-11 13h36.06.638189 +0000,
,,,,,,,28,0,28,0,,,,,,,,,,,,,,,,,226.21280780015513,,,,,,,,,,,,226.2039124001749,226.6950729000382,,,3,2.614226399920881,,,,,,,,,,,,,,,,,,,226.69508370012045,232.70158969983459,Kerze,teuer,"['Kerze', 'teuer']",test_sub,2,"['Telefon', 'Uhr', 'Tasche', 'Trommel', 'Kette', 'Geige', 'Buch', 'Kiste', 'Ring', 'Vase', 'Stift', 'Kamera', 'Blume', 'Brille', 'Eimer', 'Hut', 'Hammer', 'Bürste', 'Fahrrad', 'Würfel', 'Schlüssel', 'Lampe', 'Schere', 'Socke', 'Jacke', 'Rucksack', 'Tasse', 'Löffel', 'Kerze', 'Flasche']","['zart', 'flach', 'blass', 'elegant', 'verspielt', 'glatt', 'nachhaltig', 'winzig', 'breit', 'strahlend', 'dick', 'kalt', 'glänzend', 'robust', 'lang', 'nass', 'schlicht', 'sauber', 'flauschig', 'bunt', 'hohl', 'niedlich', 'gut', 'dunkel', 'kaputt', 'kratzig', 'groß', 'biegsam', 'teuer']",3,2.614226399920881,None,,,,,,,,,,,,,,,,,,,,,,,,,,,,,,,,,,,,,,,,,,,,,,,,,,,,,,,,,,,,,,,,,2,2023-12-11_13h35.59.746,watkins1,2023.2.3,99.77689892077603,58,2023-12-11 13h36.06.638189 +0000,
,,,,,,,29,0,29,0,,,,,,,,,,,,,,,,,232.71102769998834,,,,,,,,,,,,232.7021173001267,233.1931186998263,,,1,3.516037499997765,,,,,,,,,,,,,,,,,,,233.19312869990245,239.20266490010545,Flasche,gepunktet,"['Flasche', 'gepunktet']",test_sub,2,"['Telefon', 'Uhr', 'Tasche', 'Trommel', 'Kette', 'Geige', 'Buch', 'Kiste', 'Ring', 'Vase', 'Stift', 'Kamera', 'Blume', 'Brille', 'Eimer', 'Hut', 'Hammer', 'Bürste', 'Fahrrad', 'Würfel', 'Schlüssel', 'Lampe', 'Schere', 'Socke', 'Jacke', 'Rucksack', 'Tasse', 'Löffel', 'Kerze', 'Flasche']","['zart', 'flach', 'blass', 'elegant', 'verspielt', 'glatt', 'nachhaltig', 'winzig', 'breit', 'strahlend', 'dick', 'kalt', 'glänzend', 'robust', 'lang', 'nass', 'schlicht', 'sauber', 'flauschig', 'bunt', 'hohl', 'niedlich', 'gut', 'dunkel', 'kaputt', 'kratzig', 'groß', 'biegsam', 'teuer', 'gepunktet']",1,3.516037499997765,None,,,,,,,,,,,,,,,,,,,,,,,,,,,,,,,,,,,,,,,,,,,,,,,,,,,,,,,,,,,,,,,,,2,2023-12-11_13h35.59.746,watkins1,2023.2.3,99.77689892077603,58,2023-12-11 13h36.06.638189 +0000,
,,,,,,,,,,,0,0,0,0,,,,,,,,,,,,,239.2121015000157,,,,,,,,,,,,239.20352520002052,239.69436630001292,,,[],[],,,,,,,,,,None,None,,,,,,,,,,Kamera,kalt,"['Kamera', 'kalt']",restudy,2,,,,,,239.20344949979335,239.2034979998134,"['Kamera', 'Kiste', 'Löffel', 'Blume', 'Hammer', 'Kerze', 'Geige', 'Kette', 'Brille', 'Eimer', 'Rucksack', 'Uhr', 'Würfel', 'Ring', 'Lampe', 'Buch', 'Flasche', 'Vase', 'Stift', 'Socke', 'Tasche', 'Bürste', 'Trommel', 'Schere', 'Schlüssel', 'Telefon', 'Tasse', 'Fahrrad', 'Hut', 'Jacke']",239.69437790010124,239.69724040012807,None,239.6974307000637,245.7028930997476,2,3.891751800198108,None,245.70331380004063,245.70611929986626,None,245.70628699986264,245.70746489986777,245.70747700007632,245.70850950013846,,,,,,,,,,,,,,,,,,,,,,,,,,,,,,,,,,,,,,,,,,,,,,,2,2023-12-11_13h35.59.746,watkins1,2023.2.3,99.77689892077603,58,2023-12-11 13h36.06.638189 +0000,
,,,,,,,,,,,1,0,1,0,,,,,,,,,,,,,245.7124009002,,,,,,,,,,,,245.70880169980228,246.2043490000069,,,[],[],,,,,,,,,,5.64149669976905,None,,,,,gr,,,,,Kiste,winzig,"['Kiste', 'winzig']",test_sub,2,,,,,,245.70873369975016,245.70877429982647,"['Kamera', 'Kiste', 'Löffel', 'Blume', 'Hammer', 'Kerze', 'Geige', 'Kette', 'Brille', 'Eimer', 'Rucksack', 'Uhr', 'Würfel', 'Ring', 'Lampe', 'Buch', 'Flasche', 'Vase', 'Stift', 'Socke', 'Tasche', 'Bürste', 'Trommel', 'Schere', 'Schlüssel', 'Telefon', 'Tasse', 'Fahrrad', 'Hut', 'Jacke']",246.20435950020328,246.20700189983472,None,246.20712810009718,246.2085485998541,None,,,246.20865879999474,246.21008160011843,None,246.2101930999197,246.21135509992018,246.2113675000146,252.21485950006172,0,,,,,,,,,,,,,,,,,,,,,,,,,,,,,,,,,,,,,,,,,,,,,,2,2023-12-11_13h35.59.746,watkins1,2023.2.3,99.77689892077603,58,2023-12-11 13h36.06.638189 +0000,
,,,,,,,,,,,2,0,2,0,,,,,,,,,,,,,252.22466300008819,,,,,,,,,,,,252.21514419978485,252.70661660004407,,,[],[],,,,,,,,,,None,None,,,,,,,,,,Löffel,biegsam,"['Löffel', 'biegsam']",restudy,2,,,,,,252.21507959999144,252.215116399806,"['Kamera', 'Kiste', 'Löffel', 'Blume', 'Hammer', 'Kerze', 'Geige', 'Kette', 'Brille', 'Eimer', 'Rucksack', 'Uhr', 'Würfel', 'Ring', 'Lampe', 'Buch', 'Flasche', 'Vase', 'Stift', 'Socke', 'Tasche', 'Bürste', 'Trommel', 'Schere', 'Schlüssel', 'Telefon', 'Tasse', 'Fahrrad', 'Hut', 'Jacke']",252.70662690000609,252.70989790000021,None,252.71002350002527,258.71903649996966,3,2.119650799781084,None,258.7193343997933,258.72206469997764,None,258.72217899980024,258.72336270008236,258.72337409993634,258.7248749998398,,,,,,,,,,,,,,,,,,,,,,,,,,,,,,,,,,,,,,,,,,,,,,,2,2023-12-11_13h35.59.746,watkins1,2023.2.3,99.77689892077603,58,2023-12-11 13h36.06.638189 +0000,
,,,,,,,,,,,3,0,3,0,,,,,,,,,,,,,258.7285004002042,,,,,,,,,,,,258.7251595999114,259.22052760003135,,,[],[],,,,,,,,,,1.87619120022282,None,,,,,scheinen,,,,,Blume,glänzend,"['Blume', 'glänzend']",test_sub,2,,,,,,258.72509329998866,258.7251324998215,"['Kamera', 'Kiste', 'Löffel', 'Blume', 'Hammer', 'Kerze', 'Geige', 'Kette', 'Brille', 'Eimer', 'Rucksack', 'Uhr', 'Würfel', 'Ring', 'Lampe', 'Buch', 'Flasche', 'Vase', 'Stift', 'Socke', 'Tasche', 'Bürste', 'Trommel', 'Schere', 'Schlüssel', 'Telefon', 'Tasse', 'Fahrrad', 'Hut', 'Jacke']",259.22053729975596,259.2232292997651,None,259.223358000163,259.22477919980884,None,,,259.22488889982924,259.226294899825,None,259.2264045998454,259.2275462001562,259.2275584000163,265.2306300997734,0,,,,,,,,,,,,,,,,,,,,,,,,,,,,,,,,,,,,,,,,,,,,,,2,2023-12-11_13h35.59.746,watkins1,2023.2.3,99.77689892077603,58,2023-12-11 13h36.06.638189 +0000,
,,,,,,,,,,,4,0,4,0,,,,,,,,,,,,,265.2404259000905,,,,,,,,,,,,265.23092269990593,265.7223535999656,,,[],[],,,,,,,,,,None,None,,,,,,,,,,Hammer,schlicht,"['Hammer', 'schlicht']",restudy,2,,,,,,265.2308442001231,265.23089359980077,"['Kamera', 'Kiste', 'Löffel', 'Blume', 'Hammer', 'Kerze', 'Geige', 'Kette', 'Brille', 'Eimer', 'Rucksack', 'Uhr', 'Würfel', 'Ring', 'Lampe', 'Buch', 'Flasche', 'Vase', 'Stift', 'Socke', 'Tasche', 'Bürste', 'Trommel', 'Schere', 'Schlüssel', 'Telefon', 'Tasse', 'Fahrrad', 'Hut', 'Jacke']",265.72236410016194,265.72521719988436,None,265.72534269979224,271.7273788000457,2,1.9281147997826338,None,271.72767659975216,271.73037549993023,None,271.7304874002002,271.7316859997809,271.73169749975204,271.7333495998755,,,,,,,,,,,,,,,,,,,,,,,,,,,,,,,,,,,,,,,,,,,,,,,2,2023-12-11_13h35.59.746,watkins1,2023.2.3,99.77689892077603,58,2023-12-11 13h36.06.638189 +0000,
,,,,,,,,,,,5,0,5,0,,,,,,,,,,,,,271.7368998997845,,,,,,,,,,,,271.7336337999441,272.2289995998144,,,[],[],,,,,,,,,,1.8958208002150059,3.733489400241524,,,,,Geld,,,,,Kerze,teuer,"['Kerze', 'teuer']",test_sub,2,,,,,,271.7335676001385,271.7336067999713,"['Kamera', 'Kiste', 'Löffel', 'Blume', 'Hammer', 'Kerze', 'Geige', 'Kette', 'Brille', 'Eimer', 'Rucksack', 'Uhr', 'Würfel', 'Ring', 'Lampe', 'Buch', 'Flasche', 'Vase', 'Stift', 'Socke', 'Tasche', 'Bürste', 'Trommel', 'Schere', 'Schlüssel', 'Telefon', 'Tasse', 'Fahrrad', 'Hut', 'Jacke']",272.22900940012187,272.23171520000324,None,272.2318385001272,272.2332473997958,None,,,272.23335730005056,272.23474900005385,None,272.2348571000621,272.23599010007456,272.236002500169,278.23885009996593,0,,,,,,,,,,,,,,,,,,,,,,,,,,,,,,,,,,,,,,,,,,,,,,2,2023-12-11_13h35.59.746,watkins1,2023.2.3,99.77689892077603,58,2023-12-11 13h36.06.638189 +0000,
,,,,,,,,,,,6,0,6,0,,,,,,,,,,,,,278.24865109985694,,,,,,,,,,,,278.2391276997514,278.73062149994075,,,[],[],,,,,,,,,,None,None,,,,,,,,,,Geige,glatt,"['Geige', 'glatt']",restudy,2,,,,,,278.23906139982864,278.2390994997695,"['Kamera', 'Kiste', 'Löffel', 'Blume', 'Hammer', 'Kerze', 'Geige', 'Kette', 'Brille', 'Eimer', 'Rucksack', 'Uhr', 'Würfel', 'Ring', 'Lampe', 'Buch', 'Flasche', 'Vase', 'Stift', 'Socke', 'Tasche', 'Bürste', 'Trommel', 'Schere', 'Schlüssel', 'Telefon', 'Tasse', 'Fahrrad', 'Hut', 'Jacke']",278.730632300023,278.73333670012653,None,278.7334631998092,284.7381548001431,1,3.5041012996807694,None,284.7384573998861,284.74107499979436,None,284.74118980020285,284.74233039980754,284.74234199989587,284.7437859000638,,,,,,,,,,,,,,,,,,,,,,,,,,,,,,,,,,,,,,,,,,,,,,,2,2023-12-11_13h35.59.746,watkins1,2023.2.3,99.77689892077603,58,2023-12-11 13h36.06.638189 +0000,
,,,,,,,,,,,7,0,7,0,,,,,,,,,,,,,284.74763230001554,,,,,,,,,,,,284.74406599998474,285.23968990007415,,,[],[],,,,,,,,,,None,None,,,,,,,,,,Kette,verspielt,"['Kette', 'verspielt']",restudy,2,,,,,,284.744001199957,284.7440391997807,"['Kamera', 'Kiste', 'Löffel', 'Blume', 'Hammer', 'Kerze', 'Geige', 'Kette', 'Brille', 'Eimer', 'Rucksack', 'Uhr', 'Würfel', 'Ring', 'Lampe', 'Buch', 'Flasche', 'Vase', 'Stift', 'Socke', 'Tasche', 'Bürste', 'Trommel', 'Schere', 'Schlüssel', 'Telefon', 'Tasse', 'Fahrrad', 'Hut', 'Jacke']",285.23969969991595,285.2424515997991,None,285.2425710000098,291.25216760020703,2,3.9471570001915097,None,291.25246710004285,291.2552167000249,None,291.2553310999647,291.2564795999788,291.25649099983275,291.25772699993104,,,,,,,,,,,,,,,,,,,,,,,,,,,,,,,,,,,,,,,,,,,,,,,2,2023-12-11_13h35.59.746,watkins1,2023.2.3,99.77689892077603,58,2023-12-11 13h36.06.638189 +0000,
,,,,,,,,,,,8,0,8,0,,,,,,,,,,,,,291.2616086998023,,,,,,,,,,,,291.25800949987024,291.7536710998975,,,[],[],,,,,,,,,,3.212360099889338,None,,,,,kalt,,,,,Brille,robust,"['Brille', 'robust']",test_sub,2,,,,,,291.25794429983944,291.2579823997803,"['Kamera', 'Kiste', 'Löffel', 'Blume', 'Hammer', 'Kerze', 'Geige', 'Kette', 'Brille', 'Eimer', 'Rucksack', 'Uhr', 'Würfel', 'Ring', 'Lampe', 'Buch', 'Flasche', 'Vase', 'Stift', 'Socke', 'Tasche', 'Bürste', 'Trommel', 'Schere', 'Schlüssel', 'Telefon', 'Tasse', 'Fahrrad', 'Hut', 'Jacke']",291.7536818999797,291.7564468998462,None,291.7566158999689,291.7580430000089,None,,,291.7581529999152,291.7595882997848,None,291.75969769991934,291.7608640999533,291.7608766001649,297.7645564000122,0,,,,,,,,,,,,,,,,,,,,,,,,,,,,,,,,,,,,,,,,,,,,,,2,2023-12-11_13h35.59.746,watkins1,2023.2.3,99.77689892077603,58,2023-12-11 13h36.06.638189 +0000,
,,,,,,,,,,,9,0,9,0,,,,,,,,,,,,,297.77430980000645,,,,,,,,,,,,297.7648427998647,298.25667400006205,,,[],[],,,,,,,,,,None,None,,,,,,,,,,Eimer,lang,"['Eimer', 'lang']",restudy,2,,,,,,297.76477470016107,297.7648124997504,"['Kamera', 'Kiste', 'Löffel', 'Blume', 'Hammer', 'Kerze', 'Geige', 'Kette', 'Brille', 'Eimer', 'Rucksack', 'Uhr', 'Würfel', 'Ring', 'Lampe', 'Buch', 'Flasche', 'Vase', 'Stift', 'Socke', 'Tasche', 'Bürste', 'Trommel', 'Schere', 'Schlüssel', 'Telefon', 'Tasse', 'Fahrrad', 'Hut', 'Jacke']",298.25668449979275,298.25976209994406,None,298.25988959986717,304.2639847001992,1,1.5459359004162252,None,304.2642946001142,304.26682880008593,None,304.2669416000135,304.26808980014175,304.2681013997644,304.26944239996374,,,,,,,,,,,,,,,,,,,,,,,,,,,,,,,,,,,,,,,,,,,,,,,2,2023-12-11_13h35.59.746,watkins1,2023.2.3,99.77689892077603,58,2023-12-11 13h36.06.638189 +0000,
,,,,,,,,,,,10,0,10,0,,,,,,,,,,,,,304.2733930000104,,,,,,,,,,,,304.2697251001373,304.76558970008045,,,[],[],,,,,,,,,,None,None,,,,,,,,,,Rucksack,kratzig,"['Rucksack', 'kratzig']",restudy,2,,,,,,304.26965739997104,304.26969570014626,"['Kamera', 'Kiste', 'Löffel', 'Blume', 'Hammer', 'Kerze', 'Geige', 'Kette', 'Brille', 'Eimer', 'Rucksack', 'Uhr', 'Würfel', 'Ring', 'Lampe', 'Buch', 'Flasche', 'Vase', 'Stift', 'Socke', 'Tasche', 'Bürste', 'Trommel', 'Schere', 'Schlüssel', 'Telefon', 'Tasse', 'Fahrrad', 'Hut', 'Jacke']",304.76560109993443,304.76819679979235,None,304.76832190016285,310.7705986001529,1,1.5013178000226617,None,310.77089230017737,310.77360250009224,None,310.77371439989656,310.7749338997528,310.77494530007243,310.7761325999163,,,,,,,,,,,,,,,,,,,,,,,,,,,,,,,,,,,,,,,,,,,,,,,2,2023-12-11_13h35.59.746,watkins1,2023.2.3,99.77689892077603,58,2023-12-11 13h36.06.638189 +0000,
,,,,,,,,,,,11,0,11,0,,,,,,,,,,,,,310.78005659999326,,,,,,,,,,,,310.77641330007464,311.27196610020474,,,[],[],,,,,,,,,,None,None,,,,,,,,,,Uhr,flach,"['Uhr', 'flach']",restudy,2,,,,,,310.776348200161,310.7763867001049,"['Kamera', 'Kiste', 'Löffel', 'Blume', 'Hammer', 'Kerze', 'Geige', 'Kette', 'Brille', 'Eimer', 'Rucksack', 'Uhr', 'Würfel', 'Ring', 'Lampe', 'Buch', 'Flasche', 'Vase', 'Stift', 'Socke', 'Tasche', 'Bürste', 'Trommel', 'Schere', 'Schlüssel', 'Telefon', 'Tasse', 'Fahrrad', 'Hut', 'Jacke']",311.2719769999385,311.2744919001125,None,311.2746158000082,317.28307860018685,2,2.6353875999338925,None,317.2833781000227,317.2858385001309,None,317.2859506001696,317.28695400012657,317.2869655000977,317.2881009001285,,,,,,,,,,,,,,,,,,,,,,,,,,,,,,,,,,,,,,,,,,,,,,,2,2023-12-11_13h35.59.746,watkins1,2023.2.3,99.77689892077603,58,2023-12-11 13h36.06.638189 +0000,
,,,,,,,,,,,12,0,12,0,,,,,,,,,,,,,317.29250600002706,,,,,,,,,,,,317.2883812999353,317.7844635001384,,,[],[],,,,,,,,,,2.0770732001401484,None,,,,,Farbe,,,,,Würfel,bunt,"['Würfel', 'bunt']",test_sub,2,,,,,,317.28831569990143,317.28835419984534,"['Kamera', 'Kiste', 'Löffel', 'Blume', 'Hammer', 'Kerze', 'Geige', 'Kette', 'Brille', 'Eimer', 'Rucksack', 'Uhr', 'Würfel', 'Ring', 'Lampe', 'Buch', 'Flasche', 'Vase', 'Stift', 'Socke', 'Tasche', 'Bürste', 'Trommel', 'Schere', 'Schlüssel', 'Telefon', 'Tasse', 'Fahrrad', 'Hut', 'Jacke']",317.78447479987517,317.78731370018795,None,317.78744149999693,317.7888973997906,None,,,317.78900879994035,317.7904468001798,None,317.790556400083,317.7917304998264,317.79174300003797,323.7945297001861,0,,,,,,,,,,,,,,,,,,,,,,,,,,,,,,,,,,,,,,,,,,,,,,2,2023-12-11_13h35.59.746,watkins1,2023.2.3,99.77689892077603,58,2023-12-11 13h36.06.638189 +0000,
,,,,,,,,,,,13,0,13,0,,,,,,,,,,,,,323.8044293001294,,,,,,,,,,,,323.79480759985745,324.2863741000183,,,[],[],,,,,,,,,,1.8775352002121508,None,,,,,lang,,,,,Ring,breit,"['Ring', 'breit']",test_sub,2,,,,,,323.79474140005186,323.79477869998664,"['Kamera', 'Kiste', 'Löffel', 'Blume', 'Hammer', 'Kerze', 'Geige', 'Kette', 'Brille', 'Eimer', 'Rucksack', 'Uhr', 'Würfel', 'Ring', 'Lampe', 'Buch', 'Flasche', 'Vase', 'Stift', 'Socke', 'Tasche', 'Bürste', 'Trommel', 'Schere', 'Schlüssel', 'Telefon', 'Tasse', 'Fahrrad', 'Hut', 'Jacke']",324.2863843999803,324.28878549998626,None,324.28890829999,324.29115149984136,None,,,324.29126359988004,324.29350910009816,None,324.29361699987203,324.29476970015094,324.29478169977665,330.2994196000509,0,,,,,,,,,,,,,,,,,,,,,,,,,,,,,,,,,,,,,,,,,,,,,,2,2023-12-11_13h35.59.746,watkins1,2023.2.3,99.77689892077603,58,2023-12-11 13h36.06.638189 +0000,
,,,,,,,,,,,14,0,14,0,,,,,,,,,,,,,330.3093356997706,,,,,,,,,,,,330.299698300194,330.79126439988613,,,[],[],,,,,,,,,,None,None,,,,,,,,,,Lampe,niedlich,"['Lampe', 'niedlich']",restudy,2,,,,,,330.2996316999197,330.2996694999747,"['Kamera', 'Kiste', 'Löffel', 'Blume', 'Hammer', 'Kerze', 'Geige', 'Kette', 'Brille', 'Eimer', 'Rucksack', 'Uhr', 'Würfel', 'Ring', 'Lampe', 'Buch', 'Flasche', 'Vase', 'Stift', 'Socke', 'Tasche', 'Bürste', 'Trommel', 'Schere', 'Schlüssel', 'Telefon', 'Tasse', 'Fahrrad', 'Hut', 'Jacke']",330.7912749000825,330.7939531998709,None,330.79407940013334,336.7978469999507,1,1.0512864999473095,None,336.79815299995244,336.80088219977915,None,336.80101090017706,336.802313500084,336.8023251998238,336.8038526000455,,,,,,,,,,,,,,,,,,,,,,,,,,,,,,,,,,,,,,,,,,,,,,,2,2023-12-11_13h35.59.746,watkins1,2023.2.3,99.77689892077603,58,2023-12-11 13h36.06.638189 +0000,
,,,,,,,,,,,15,0,15,0,,,,,,,,,,,,,336.80730069987476,,,,,,,,,,,,336.8041397999041,337.2993322000839,,,[],[],,,,,,,,,,2.8799191997386515,None,,,,,Ökonomisc,,,,,Buch,nachhaltig,"['Buch', 'nachhaltig']",test_sub,2,,,,,,336.80407320009544,336.8041127999313,"['Kamera', 'Kiste', 'Löffel', 'Blume', 'Hammer', 'Kerze', 'Geige', 'Kette', 'Brille', 'Eimer', 'Rucksack', 'Uhr', 'Würfel', 'Ring', 'Lampe', 'Buch', 'Flasche', 'Vase', 'Stift', 'Socke', 'Tasche', 'Bürste', 'Trommel', 'Schere', 'Schlüssel', 'Telefon', 'Tasse', 'Fahrrad', 'Hut', 'Jacke']",337.29934359993786,337.30196599988267,None,337.3020934998058,337.3033949001692,None,,,337.3035069000907,337.30480709997937,None,337.3049167999998,337.30595490010455,337.305967300199,343.3088106000796,0,,,,,,,,,,,,,,,,,,,,,,,,,,,,,,,,,,,,,,,,,,,,,,2,2023-12-11_13h35.59.746,watkins1,2023.2.3,99.77689892077603,58,2023-12-11 13h36.06.638189 +0000,
,,,,,,,,,,,16,0,16,0,,,,,,,,,,,,,343.3185514002107,,,,,,,,,,,,343.3090870999731,343.8006071001291,,,[],[],,,,,,,,,,None,None,,,,,,,,,,Flasche,gepunktet,"['Flasche', 'gepunktet']",test_sub,2,,,,,,343.3090212000534,343.3090590997599,"['Kamera', 'Kiste', 'Löffel', 'Blume', 'Hammer', 'Kerze', 'Geige', 'Kette', 'Brille', 'Eimer', 'Rucksack', 'Uhr', 'Würfel', 'Ring', 'Lampe', 'Buch', 'Flasche', 'Vase', 'Stift', 'Socke', 'Tasche', 'Bürste', 'Trommel', 'Schere', 'Schlüssel', 'Telefon', 'Tasse', 'Fahrrad', 'Hut', 'Jacke']",343.80061790021136,343.8034240999259,None,343.8035510000773,343.8061683997512,None,,,343.8062784001231,343.8091078000143,None,343.8092171000317,343.8105561998673,343.81056950008497,349.81695620017126,0,,,,,,,,,,,,,,,,,,,,,,,,,,,,,,,,,,,,,,,,,,,,,,2,2023-12-11_13h35.59.746,watkins1,2023.2.3,99.77689892077603,58,2023-12-11 13h36.06.638189 +0000,
,,,,,,,,,,,17,0,17,0,,,,,,,,,,,,,349.82676269998774,,,,,,,,,,,,349.81723769987,350.3087025000714,,,[],[],,,,,,,,,,None,None,,,,,,,,,,Vase,strahlend,"['Vase', 'strahlend']",restudy,2,,,,,,349.81717009982094,349.8172087999992,"['Kamera', 'Kiste', 'Löffel', 'Blume', 'Hammer', 'Kerze', 'Geige', 'Kette', 'Brille', 'Eimer', 'Rucksack', 'Uhr', 'Würfel', 'Ring', 'Lampe', 'Buch', 'Flasche', 'Vase', 'Stift', 'Socke', 'Tasche', 'Bürste', 'Trommel', 'Schere', 'Schlüssel', 'Telefon', 'Tasse', 'Fahrrad', 'Hut', 'Jacke']",350.3087136000395,350.31137470016256,None,350.3115012999624,356.31285119988024,2,2.430028600152582,None,356.31316789984703,356.3158010998741,None,356.3159149000421,356.3169641997665,356.316975499969,356.31822060002014,,,,,,,,,,,,,,,,,,,,,,,,,,,,,,,,,,,,,,,,,,,,,,,2,2023-12-11_13h35.59.746,watkins1,2023.2.3,99.77689892077603,58,2023-12-11 13h36.06.638189 +0000,
,,,,,,,,,,,18,0,18,0,,,,,,,,,,,,,356.32211589999497,,,,,,,,,,,,356.3185021998361,356.8142491998151,,,[],[],,,,,,,,,,None,None,,,,,,,,,,Stift,dick,"['Stift', 'dick']",test_sub,2,,,,,,356.3184366999194,356.3184751002118,"['Kamera', 'Kiste', 'Löffel', 'Blume', 'Hammer', 'Kerze', 'Geige', 'Kette', 'Brille', 'Eimer', 'Rucksack', 'Uhr', 'Würfel', 'Ring', 'Lampe', 'Buch', 'Flasche', 'Vase', 'Stift', 'Socke', 'Tasche', 'Bürste', 'Trommel', 'Schere', 'Schlüssel', 'Telefon', 'Tasse', 'Fahrrad', 'Hut', 'Jacke']",356.8142602001317,356.8170264000073,None,356.8171530999243,356.8185768998228,None,,,356.8186873998493,356.8201005998999,None,356.82021200004965,356.8215330000967,356.8215454998426,362.8246802999638,0,,,,,,,,,,,,,,,,,,,,,,,,,,,,,,,,,,,,,,,,,,,,,,2,2023-12-11_13h35.59.746,watkins1,2023.2.3,99.77689892077603,58,2023-12-11 13h36.06.638189 +0000,
,,,,,,,,,,,19,0,19,0,,,,,,,,,,,,,362.83454559976235,,,,,,,,,,,,362.8249559001997,363.3166195000522,,,[],[],,,,,,,,,,4.468563899863511,None,,,,,hell,,,,,Socke,dunkel,"['Socke', 'dunkel']",test_sub,2,,,,,,362.8248908999376,362.8249272997491,"['Kamera', 'Kiste', 'Löffel', 'Blume', 'Hammer', 'Kerze', 'Geige', 'Kette', 'Brille', 'Eimer', 'Rucksack', 'Uhr', 'Würfel', 'Ring', 'Lampe', 'Buch', 'Flasche', 'Vase', 'Stift', 'Socke', 'Tasche', 'Bürste', 'Trommel', 'Schere', 'Schlüssel', 'Telefon', 'Tasse', 'Fahrrad', 'Hut', 'Jacke']",363.3166304999031,363.31918889982626,None,363.31931259995326,363.3216722998768,None,,,363.32178189978004,363.3241233001463,None,363.3242315999232,363.3253711001016,363.3253831998445,369.3301808000542,0,,,,,,,,,,,,,,,,,,,,,,,,,,,,,,,,,,,,,,,,,,,,,,2,2023-12-11_13h35.59.746,watkins1,2023.2.3,99.77689892077603,58,2023-12-11 13h36.06.638189 +0000,
,,,,,,,,,,,20,0,20,0,,,,,,,,,,,,,369.3399887001142,,,,,,,,,,,,369.3304606000893,369.8220214000903,,,[],[],,,,,,,,,,None,None,,,,,,,,,,Tasche,blass,"['Tasche', 'blass']",restudy,2,,,,,,369.33039439981803,369.33043200010434,"['Kamera', 'Kiste', 'Löffel', 'Blume', 'Hammer', 'Kerze', 'Geige', 'Kette', 'Brille', 'Eimer', 'Rucksack', 'Uhr', 'Würfel', 'Ring', 'Lampe', 'Buch', 'Flasche', 'Vase', 'Stift', 'Socke', 'Tasche', 'Bürste', 'Trommel', 'Schere', 'Schlüssel', 'Telefon', 'Tasse', 'Fahrrad', 'Hut', 'Jacke']",369.822031899821,369.82474050018936,None,369.8248641001992,375.8257785998285,1,3.4767144001089036,None,375.8260750998743,375.8287301999517,None,375.82884409977123,375.830013200175,375.83002470014617,375.8314940999262,,,,,,,,,,,,,,,,,,,,,,,,,,,,,,,,,,,,,,,,,,,,,,,2,2023-12-11_13h35.59.746,watkins1,2023.2.3,99.77689892077603,58,2023-12-11 13h36.06.638189 +0000,
,,,,,,,,,,,21,0,21,0,,,,,,,,,,,,,375.8351849000901,,,,,,,,,,,,375.8317778999917,376.32758639985695,,,[],[],,,,,,,,,,None,None,,,,,,,,,,Bürste,sauber,"['Bürste', 'sauber']",test_sub,2,,,,,,375.83171179983765,375.83175029978156,"['Kamera', 'Kiste', 'Löffel', 'Blume', 'Hammer', 'Kerze', 'Geige', 'Kette', 'Brille', 'Eimer', 'Rucksack', 'Uhr', 'Würfel', 'Ring', 'Lampe', 'Buch', 'Flasche', 'Vase', 'Stift', 'Socke', 'Tasche', 'Bürste', 'Trommel', 'Schere', 'Schlüssel', 'Telefon', 'Tasse', 'Fahrrad', 'Hut', 'Jacke']",376.32759679993615,376.3302505998872,None,376.33037499990314,376.33179769990966,None,,,376.33190899994224,376.333332600072,None,376.33344089984894,376.33488880004734,376.3349016001448,382.33816820010543,0,,,,,,,,,,,,,,,,,,,,,,,,,,,,,,,,,,,,,,,,,,,,,,2,2023-12-11_13h35.59.746,watkins1,2023.2.3,99.77689892077603,58,2023-12-11 13h36.06.638189 +0000,
,,,,,,,,,,,22,0,22,0,,,,,,,,,,,,,382.3479570001364,,,,,,,,,,,,382.3384429998696,382.829976900015,,,[],[],,,,,,,,,,None,None,,,,,,,,,,Trommel,elegant,"['Trommel', 'elegant']",test_sub,2,,,,,,382.3383776000701,382.33841429976746,"['Kamera', 'Kiste', 'Löffel', 'Blume', 'Hammer', 'Kerze', 'Geige', 'Kette', 'Brille', 'Eimer', 'Rucksack', 'Uhr', 'Würfel', 'Ring', 'Lampe', 'Buch', 'Flasche', 'Vase', 'Stift', 'Socke', 'Tasche', 'Bürste', 'Trommel', 'Schere', 'Schlüssel', 'Telefon', 'Tasse', 'Fahrrad', 'Hut', 'Jacke']",382.8299873000942,382.8326631998643,None,382.83279639994726,382.8353042001836,None,,,382.8354138000868,382.8379283999093,None,382.8380372999236,382.83921210002154,382.8392243999988,388.84456080012023,0,,,,,,,,,,,,,,,,,,,,,,,,,,,,,,,,,,,,,,,,,,,,,,2,2023-12-11_13h35.59.746,watkins1,2023.2.3,99.77689892077603,58,2023-12-11 13h36.06.638189 +0000,
,,,,,,,,,,,23,0,23,0,,,,,,,,,,,,,388.8543718000874,,,,,,,,,,,,388.84484460018575,389.33618270000443,,,[],[],,,,,,,,,,None,None,,,,,,,,,,Schere,gut,"['Schere', 'gut']",test_sub,2,,,,,,388.8447782997973,388.8448148998432,"['Kamera', 'Kiste', 'Löffel', 'Blume', 'Hammer', 'Kerze', 'Geige', 'Kette', 'Brille', 'Eimer', 'Rucksack', 'Uhr', 'Würfel', 'Ring', 'Lampe', 'Buch', 'Flasche', 'Vase', 'Stift', 'Socke', 'Tasche', 'Bürste', 'Trommel', 'Schere', 'Schlüssel', 'Telefon', 'Tasse', 'Fahrrad', 'Hut', 'Jacke']",389.33619369985536,389.33894640021026,None,389.33906950009987,389.3416287000291,None,,,389.3417364000343,389.34427159978077,None,389.3443943997845,389.34555219998583,389.3455642000772,395.35067979991436,0,,,,,,,,,,,,,,,,,,,,,,,,,,,,,,,,,,,,,,,,,,,,,,2,2023-12-11_13h35.59.746,watkins1,2023.2.3,99.77689892077603,58,2023-12-11 13h36.06.638189 +0000,
,,,,,,,,,,,24,0,24,0,,,,,,,,,,,,,395.36046769982204,,,,,,,,,,,,395.35096090007573,395.8424488999881,,,[],[],,,,,,,,,,None,None,,,,,,,,,,Schlüssel,hohl,"['Schlüssel', 'hohl']",restudy,2,,,,,,395.3508954998106,395.35093190008774,"['Kamera', 'Kiste', 'Löffel', 'Blume', 'Hammer', 'Kerze', 'Geige', 'Kette', 'Brille', 'Eimer', 'Rucksack', 'Uhr', 'Würfel', 'Ring', 'Lampe', 'Buch', 'Flasche', 'Vase', 'Stift', 'Socke', 'Tasche', 'Bürste', 'Trommel', 'Schere', 'Schlüssel', 'Telefon', 'Tasse', 'Fahrrad', 'Hut', 'Jacke']",395.8424599999562,395.8450608998537,None,395.84518649987876,401.84895360004157,1,2.6244183001108468,None,401.8492692001164,401.85186009993777,None,401.85197599977255,401.85321940016,401.853230800014,401.85424230014905,,,,,,,,,,,,,,,,,,,,,,,,,,,,,,,,,,,,,,,,,,,,,,,2,2023-12-11_13h35.59.746,watkins1,2023.2.3,99.77689892077603,58,2023-12-11 13h36.06.638189 +0000,
,,,,,,,,,,,25,0,25,0,,,,,,,,,,,,,401.8584170998074,,,,,,,,,,,,401.8545216000639,402.35045270016417,,,[],[],,,,,,,,,,None,None,,,,,,,,,,Telefon,zart,"['Telefon', 'zart']",restudy,2,,,,,,401.8544576000422,401.85449510021135,"['Kamera', 'Kiste', 'Löffel', 'Blume', 'Hammer', 'Kerze', 'Geige', 'Kette', 'Brille', 'Eimer', 'Rucksack', 'Uhr', 'Würfel', 'Ring', 'Lampe', 'Buch', 'Flasche', 'Vase', 'Stift', 'Socke', 'Tasche', 'Bürste', 'Trommel', 'Schere', 'Schlüssel', 'Telefon', 'Tasse', 'Fahrrad', 'Hut', 'Jacke']",402.3504630001262,402.3529646000825,None,402.353085400071,408.3614815999754,1,2.324829100165516,None,408.361779499799,408.36447269981727,None,408.36459359992296,408.3658024999313,408.36581410001963,408.3668514001183,,,,,,,,,,,,,,,,,,,,,,,,,,,,,,,,,,,,,,,,,,,,,,,2,2023-12-11_13h35.59.746,watkins1,2023.2.3,99.77689892077603,58,2023-12-11 13h36.06.638189 +0000,
,,,,,,,,,,,26,0,26,0,,,,,,,,,,,,,408.3711898000911,,,,,,,,,,,,408.36713520018384,408.86329329991713,,,[],[],,,,,,,,,,None,None,,,,,,,,,,Tasse,groß,"['Tasse', 'groß']",restudy,2,,,,,,408.36706920014694,408.3671082002111,"['Kamera', 'Kiste', 'Löffel', 'Blume', 'Hammer', 'Kerze', 'Geige', 'Kette', 'Brille', 'Eimer', 'Rucksack', 'Uhr', 'Würfel', 'Ring', 'Lampe', 'Buch', 'Flasche', 'Vase', 'Stift', 'Socke', 'Tasche', 'Bürste', 'Trommel', 'Schere', 'Schlüssel', 'Telefon', 'Tasse', 'Fahrrad', 'Hut', 'Jacke']",408.86330420011654,408.8658094997518,None,408.86593490000814,414.8761439998634,2,2.2437927001155913,None,414.87644700007513,414.8792463000864,None,414.8793624001555,414.8805109998211,414.88052270002663,414.8815468000248,,,,,,,,,,,,,,,,,,,,,,,,,,,,,,,,,,,,,,,,,,,,,,,2,2023-12-11_13h35.59.746,watkins1,2023.2.3,99.77689892077603,58,2023-12-11 13h36.06.638189 +0000,
,,,,,,,,,,,27,0,27,0,,,,,,,,,,,,,414.8856441001408,,,,,,,,,,,,414.8818276999518,415.3776365001686,,,[],[],,,,,,,,,,None,None,,,,,,,,,,Fahrrad,flauschig,"['Fahrrad', 'flauschig']",test_sub,2,,,,,,414.8817627001554,414.88180080009624,"['Kamera', 'Kiste', 'Löffel', 'Blume', 'Hammer', 'Kerze', 'Geige', 'Kette', 'Brille', 'Eimer', 'Rucksack', 'Uhr', 'Würfel', 'Ring', 'Lampe', 'Buch', 'Flasche', 'Vase', 'Stift', 'Socke', 'Tasche', 'Bürste', 'Trommel', 'Schere', 'Schlüssel', 'Telefon', 'Tasse', 'Fahrrad', 'Hut', 'Jacke']",415.3776471000165,415.38020600005984,None,415.38033120008186,415.38176660006866,None,,,415.3818781999871,415.38332069991156,None,415.38343069981784,415.38460480002686,415.3846171000041,421.3872835999355,0,,,,,,,,,,,,,,,,,,,,,,,,,,,,,,,,,,,,,,,,,,,,,,2,2023-12-11_13h35.59.746,watkins1,2023.2.3,99.77689892077603,58,2023-12-11 13h36.06.638189 +0000,
,,,,,,,,,,,28,0,28,0,,,,,,,,,,,,,421.3971897000447,,,,,,,,,,,,421.387565900106,421.8789420998655,,,[],[],,,,,,,,,,None,None,,,,,,,,,,Hut,nass,"['Hut', 'nass']",restudy,2,,,,,,421.3874952001497,421.3875318998471,"['Kamera', 'Kiste', 'Löffel', 'Blume', 'Hammer', 'Kerze', 'Geige', 'Kette', 'Brille', 'Eimer', 'Rucksack', 'Uhr', 'Würfel', 'Ring', 'Lampe', 'Buch', 'Flasche', 'Vase', 'Stift', 'Socke', 'Tasche', 'Bürste', 'Trommel', 'Schere', 'Schlüssel', 'Telefon', 'Tasse', 'Fahrrad', 'Hut', 'Jacke']",421.8789527998306,421.88157460000366,None,421.8817012999207,427.8851737999357,2,2.964143800083548,None,427.88547379989177,427.88785760011524,None,427.88796930015087,427.8889814000577,427.8889929000288,427.89000550005585,,,,,,,,,,,,,,,,,,,,,,,,,,,,,,,,,,,,,,,,,,,,,,,2,2023-12-11_13h35.59.746,watkins1,2023.2.3,99.77689892077603,58,2023-12-11 13h36.06.638189 +0000,
,,,,,,,,,,,29,0,29,0,,,,,,,,,,,,,427.8947215001099,,,,,,,,,,,,427.890289099887,428.3867693999782,,,[],[],,,,,,,,,,None,None,,,,,,,,,,Jacke,kaputt,"['Jacke', 'kaputt']",test_sub,2,,,,,,427.89022420020774,427.8902624999173,"['Kamera', 'Kiste', 'Löffel', 'Blume', 'Hammer', 'Kerze', 'Geige', 'Kette', 'Brille', 'Eimer', 'Rucksack', 'Uhr', 'Würfel', 'Ring', 'Lampe', 'Buch', 'Flasche', 'Vase', 'Stift', 'Socke', 'Tasche', 'Bürste', 'Trommel', 'Schere', 'Schlüssel', 'Telefon', 'Tasse', 'Fahrrad', 'Hut', 'Jacke']",428.3867807001807,428.38930700020865,None,428.38943459978327,428.3910107999109,None,,,428.3911224999465,428.39251160016283,None,428.39261970017105,428.3937368001789,428.3937488999218,434.39623790001497,0,,,,,,,,,,,,,,,,,,,,,,,,,,,,,,,,,,,,,,,,,,,,,,2,2023-12-11_13h35.59.746,watkins1,2023.2.3,99.77689892077603,58,2023-12-11 13h36.06.638189 +0000,
,,,,,,,,,,,,,,,,,,,,,,,,,,,,,,,,,,,,,,,,,,,,,,,,,,,,,,,,,,,,,,,,,,,,,2,,,,,,,,,,,,,,,,,,,,,,,,,,,,,,,,,,,,,,,,,,,,,,,,,,,,,,,,,,,,,,,,,,,,,,2,2023-12-11_13h35.59.746,watkins1,2023.2.3,99.77689892077603,58,2023-12-11 13h36.06.638189 +0000,
(9 x 5) - 9 = 36 ,Correct,button_correct,,,,,,,,,,,,,0,0,0,4,,,,,,,,,472.6502538002096,,,,,,,,,,471.61884950008243,472.6222643000074,,,,,['button_correct'],[5.676145599689335],,,,,,,,,,,,,,,,,,,,,,,,distractorTask,2,,,,,,,,,,,,,,,,,,,,,,,,,472.63871630001813,472.6502538002096,478.3201176999137,[0.3],[-0.40555555555555556],[1],[0],[0],[5.676145599689335],['button_correct'],478.32079489994794,479.3237040997483,,,,,,,,,,,,,,,,,,,,,,,,,,,,,,,,,,2,2023-12-11_13h35.59.746,watkins1,2023.2.3,99.77689892077603,58,2023-12-11 13h36.06.638189 +0000,
(6 x 3) + 10 = 27 ,Incorrect,button_incorrect,,,,,,,,,,,,,0,1,1,8,,,,,,,,,479.33369340002537,,,,,,,,,,,,,,,,['button_incorrect'],[3.7325222003273666],,,,,,,,,,,,,,,,,,,,,,,,distractorTask,2,,,,,,,,,,,,,,,,,,,,,,,,,479.32389539992437,479.33369340002537,483.059324500151,[-0.32314814814814813],[-0.41574074074074074],[1],[0],[0],[3.7325222003273666],['button_incorrect'],483.0597092001699,484.0629539000802,,,,,,,,,,,,,,,,,,,,,,,,,,,,,,,,,,2,2023-12-11_13h35.59.746,watkins1,2023.2.3,99.77689892077603,58,2023-12-11 13h36.06.638189 +0000,
(4 : 2) + 4 = 6 ,Correct,button_correct,,,,,,,,,,,,,0,2,2,1,,,,,,,,,484.0729503999464,,,,,,,,,,,,,,,,['button_correct'],[2.2570942998863757],,,,,,,,,,,,,,,,,,,,,,,,distractorTask,2,,,,,,,,,,,,,,,,,,,,,,,,,484.0631455001421,484.0729503999464,486.32272010017186,[0.29259259259259257],[-0.38796296296296295],[1],[0],[0],[2.2570942998863757],['button_correct'],486.32310289982706,487.3262446001172,,,,,,,,,,,,,,,,,,,,,,,,,,,,,,,,,,2,2023-12-11_13h35.59.746,watkins1,2023.2.3,99.77689892077603,58,2023-12-11 13h36.06.638189 +0000,
(54 : 6) - 10 = 0 ,Incorrect,button_incorrect,,,,,,,,,,,,,0,3,3,5,,,,,,,,,487.3362452001311,,,,,,,,,,,,,,,,['button_incorrect'],[3.784026799723506],,,,,,,,,,,,,,,,,,,,,,,,distractorTask,2,,,,,,,,,,,,,,,,,,,,,,,,,487.326434600167,487.3362452001311,491.1121984999627,[-0.3138888888888889],[-0.3861111111111111],[1],[0],[0],[3.784026799723506],['button_incorrect'],491.1125787999481,492.1158353998326,,,,,,,,,,,,,,,,,,,,,,,,,,,,,,,,,,2,2023-12-11_13h35.59.746,watkins1,2023.2.3,99.77689892077603,58,2023-12-11 13h36.06.638189 +0000,
(2 x 5) + 3 = 13 ,Correct,button_correct,,,,,,,,,,,,,0,4,4,2,,,,,,,,,492.1258311998099,,,,,,,,,,,,,,,,['button_correct'],[1.8863715999759734],,,,,,,,,,,,,,,,,,,,,,,,distractorTask,2,,,,,,,,,,,,,,,,,,,,,,,,,492.1160213998519,492.1258311998099,494.00409530010074,[0.29444444444444445],[-0.40555555555555556],[1],[0],[0],[1.8863715999759734],['button_correct'],494.00448390003294,495.00750810001045,,,,,,,,,,,,,,,,,,,,,,,,,,,,,,,,,,2,2023-12-11_13h35.59.746,watkins1,2023.2.3,99.77689892077603,58,2023-12-11 13h36.06.638189 +0000,
(25 : 5) + 5 = 9 ,Incorrect,button_incorrect,,,,,,,,,,,,,0,5,5,6,,,,,,,,,495.0174094000831,,,,,,,,,,,,,,,,['button_incorrect'],"[2.1375166000798345, 2.4386319001205266, 2.809982500039041]",,,,,,,,,,,,,,,,,,,,,,,,distractorTask,2,,,,,,,,,,,,,,,,,,,,,,,,,495.0076977000572,495.0174094000831,497.81938729994,"[-0.25555555555555554, -0.2740740740740741, -0.28888888888888886]","[-0.412962962962963, -0.4111111111111111, -0.4101851851851852]","[1, 1, 1]","[0, 0, 0]","[0, 0, 0]","[2.1375166000798345, 2.4386319001205266, 2.809982500039041]",['button_incorrect'],497.8198127998039,498.8231122000143,,,,,,,,,,,,,,,,,,,,,,,,,,,,,,,,,,2,2023-12-11_13h35.59.746,watkins1,2023.2.3,99.77689892077603,58,2023-12-11 13h36.06.638189 +0000,
(7 x 6) + 9 = 48 ,Incorrect,button_incorrect,,,,,,,,,,,,,0,6,6,9,,,,,,,,,498.8330502999015,,,,,,,,,,,,,,,,['button_incorrect'],[4.937361400108784],,,,,,,,,,,,,,,,,,,,,,,,distractorTask,2,,,,,,,,,,,,,,,,,,,,,,,,,498.8233118997887,498.8330502999015,503.7634533997625,[-0.39351851851851855],[-0.4027777777777778],[1],[0],[0],[4.937361400108784],['button_incorrect'],503.76384280016646,504.7671353002079,,,,,,,,,,,,,,,,,,,,,,,,,,,,,,,,,,2,2023-12-11_13h35.59.746,watkins1,2023.2.3,99.77689892077603,58,2023-12-11 13h36.06.638189 +0000,
(40 : 5) + 8 = 15 ,Incorrect,button_incorrect,,,,,,,,,,,,,0,7,7,7,,,,,,,,,504.7771275998093,,,,,,,,,,,,,,,,['button_incorrect'],[2.3777505001053214],,,,,,,,,,,,,,,,,,,,,,,,distractorTask,2,,,,,,,,,,,,,,,,,,,,,,,,,504.76732310000807,504.7771275998093,507.14695279998705,[-0.2814814814814815],[-0.39537037037037037],[1],[0],[0],[2.3777505001053214],['button_incorrect'],507.1473329998553,508.1507255001925,,,,,,,,,,,,,,,,,,,,,,,,,,,,,,,,,,2,2023-12-11_13h35.59.746,watkins1,2023.2.3,99.77689892077603,58,2023-12-11 13h36.06.638189 +0000,
(80 : 10) + 9 = 17 ,Correct,button_correct,,,,,,,,,,,,,0,8,8,3,,,,,,,,,508.1606947002001,,,,,,,,,,,,,,,,['button_correct'],[2.819663400296122],,,,,,,,,,,,,,,,,,,,,,,,distractorTask,2,,,,,,,,,,,,,,,,,,,,,,,,,508.15091289998963,508.1606947002001,510.97256209980696,[0.36574074074074076],[-0.40370370370370373],[1],[0],[0],[2.819663400296122],['button_correct'],510.9729515002109,511.97600980009884,,,,,,,,,,,,,,,,,,,,,,,,,,,,,,,,,,2,2023-12-11_13h35.59.746,watkins1,2023.2.3,99.77689892077603,58,2023-12-11 13h36.06.638189 +0000,
(28 : 7) - 3 = 1 ,Correct,button_correct,,,,,,,,,,,,,0,9,9,0,,,,,,,,,511.9859343999997,,,,,,,,,,,,,,,,['button_correct'],[2.7997870999388397],,,,,,,,,,,,,,,,,,,,,,,,distractorTask,2,,,,,,,,,,,,,,,,,,,,,,,,,511.9761998001486,511.9859343999997,514.7776890997775,[0.3712962962962963],[-0.375],[1],[0],[0],[2.7997870999388397],['button_correct'],514.7780753001571,515.7814286998473,,,,,,,,,,,,,,,,,,,,,,,,,,,,,,,,,,2,2023-12-11_13h35.59.746,watkins1,2023.2.3,99.77689892077603,58,2023-12-11 13h36.06.638189 +0000,
,,,,,,,,,,,,,,,,,,,,,,,,,,,,,,,,,,,,,,,,,,,,,,,,,,,,,,,,,,,,,,,,,,,,,2,,,,,,,,,,,,,,,,,,,,,,,,,,,,,,,,,,,,,,,,,,,,,,,,,,,,,,,,,,,,,,,,,,,,,,2,2023-12-11_13h35.59.746,watkins1,2023.2.3,99.77689892077603,58,2023-12-11 13h36.06.638189 +0000,
,,,,,,,,,,,,,,,,,,,0,0,0,0,,,,,542.780265300069,,,,,,,,,,,,,,,,Hut,8.205631999764591,,,,,,,,,,4.739181000273675,6.978575200308114,,,,,,,,,,,,,freeRecallSub,2,,,,,,,,,,,,,,,,,,,,,,,,,,,,,,,,,,,,,542.7713704998605,542.780265300069,542.780265300069,550.9943944998085,return,8.205631999764591,None,Hut,"[-0.03796296296296296, -0.04351851851851852, -0.037037037037037035]","[0.030555555555555555, 0.03611111111111111, 0.046296296296296294]","[1, 1, 1]","[0, 0, 0]","[0, 0, 0]","[2.3887399998493493, 3.5237175999209285, 3.8950825999490917]",[],,,,,,,,,,,,,,,,,,,2,2023-12-11_13h35.59.746,watkins1,2023.2.3,99.77689892077603,58,2023-12-11 13h36.06.638189 +0000,
,,,,,,,,,,,,,,,,,,,1,0,1,0,,,,,551.0063394000754,,,,,,,,,,,,,,,,nass,1.6434602998197079,,,,,,,,,,0.5035361000336707,None,,,,,,,,,,,,,freeRecallSub,2,,,,,,,,,,,,,,,,,,,,,,,,,,,,,,,,,,,,,550.9962356998585,551.0063394000754,551.0063394000754,552.6544022001326,return,1.6434602998197079,None,nass,[],[],[],[],[],[],[],,,,,,,,,,,,,,,,,,,2,2023-12-11_13h35.59.746,watkins1,2023.2.3,99.77689892077603,58,2023-12-11 13h36.06.638189 +0000,
,,,,,,,,,,,,,,,,,,,2,0,2,0,,,,,552.6648305999115,,,,,,,,,,,,,,,,Vase,2.0489691998809576,,,,,,,,,,0.4711764003150165,None,,,,,,,,,,,,,freeRecallSub,2,,,,,,,,,,,,,,,,,,,,,,,,,,,,,,,,,,,,,552.6556496000849,552.6648305999115,552.6648305999115,554.723145400174,return,2.0489691998809576,None,Vase,[],[],[],[],[],[],[],,,,,,,,,,,,,,,,,,,2,2023-12-11_13h35.59.746,watkins1,2023.2.3,99.77689892077603,58,2023-12-11 13h36.06.638189 +0000,
,,,,,,,,,,,,,,,,,,,3,0,3,0,,,,,554.7337496997789,,,,,,,,,,,,,,,,Blume,3.2520426004193723,,,,,,,,,,0.20038049994036555,0.9633693001233041,,,,,,,,,,,,,freeRecallSub,2,,,,,,,,,,,,,,,,,,,,,,,,,,,,,,,,,,,,,554.7244053999893,554.7337496997789,554.7337496997789,557.9871748001315,return,3.2520426004193723,None,Blume,[],[],[],[],[],[],[],,,,,,,,,,,,,,,,,,,2,2023-12-11_13h35.59.746,watkins1,2023.2.3,99.77689892077603,58,2023-12-11 13h36.06.638189 +0000,
,,,,,,,,,,,,,,,,,,,4,0,4,0,,,,,557.9980469001457,,,,,,,,,,,,,,,,flauschig,4.443842799868435,,,,,,,,,,2.511557299643755,None,,,,,,,,,,,,,freeRecallSub,2,,,,,,,,,,,,,,,,,,,,,,,,,,,,,,,,,,,,,557.9884486999363,557.9980469001457,557.9980469001457,562.4481287999079,return,4.443842799868435,None,flauschig,[],[],[],[],[],[],[],,,,,,,,,,,,,,,,,,,2,2023-12-11_13h35.59.746,watkins1,2023.2.3,99.77689892077603,58,2023-12-11 13h36.06.638189 +0000,
,,,,,,,,,,,,,,,,,,,5,0,5,0,,,,,562.4597760001197,,,,,,,,,,,,,,,,groß,2.029989200178534,,,,,,,,,,0.5539013999514282,None,,,,,,,,,,,,,freeRecallSub,2,,,,,,,,,,,,,,,,,,,,,,,,,,,,,,,,,,,,,562.449394499883,562.4597760001197,562.4597760001197,564.499380600173,return,2.029989200178534,None,groß,[],[],[],[],[],[],[],,,,,,,,,,,,,,,,,,,2,2023-12-11_13h35.59.746,watkins1,2023.2.3,99.77689892077603,58,2023-12-11 13h36.06.638189 +0000,
,,,,,,,,,,,,,,,,,,,6,0,6,0,,,,,564.5108361998573,,,,,,,,,,,,,,,,klein,1.274968400131911,,,,,,,,,,0.37269350001588464,None,,,,,,,,,,,,,freeRecallSub,2,,,,,,,,,,,,,,,,,,,,,,,,,,,,,,,,,,,,,564.5006500999443,564.5108361998573,564.5108361998573,565.787178600207,return,1.274968400131911,None,klein,[],[],[],[],[],[],[],,,,,,,,,,,,,,,,,,,2,2023-12-11_13h35.59.746,watkins1,2023.2.3,99.77689892077603,58,2023-12-11 13h36.06.638189 +0000,
,,,,,,,,,,,,,,,,,,,7,0,7,0,,,,,565.7989374999888,,,,,,,,,,,,,,,,kaputt,1.514829299878329,,,,,,,,,,0.3433375000022352,None,,,,,,,,,,,,,freeRecallSub,2,,,,,,,,,,,,,,,,,,,,,,,,,,,,,,,,,,,,,565.7884426000528,565.7989374999888,565.7989374999888,567.3165686000139,return,1.514829299878329,None,kaputt,[],[],[],[],[],[],[],,,,,,,,,,,,,,,,,,,2,2023-12-11_13h35.59.746,watkins1,2023.2.3,99.77689892077603,58,2023-12-11 13h36.06.638189 +0000,
,,,,,,,,,,,,,,,,,,,8,0,8,0,,,,,567.3289208998904,,,,,,,,,,,,,,,,Schlüssel,3.7609076001681387,,,,,,,,,,0.6456109001301229,None,,,,,,,,,,,,,freeRecallSub,2,,,,,,,,,,,,,,,,,,,,,,,,,,,,,,,,,,,,,567.317832000088,567.3289208998904,567.3289208998904,571.0961201000027,return,3.7609076001681387,None,Schlüssel,[],[],[],[],[],[],[],,,,,,,,,,,,,,,,,,,2,2023-12-11_13h35.59.746,watkins1,2023.2.3,99.77689892077603,58,2023-12-11 13h36.06.638189 +0000,
,,,,,,,,,,,,,,,,,,,9,0,9,0,,,,,571.1084317998029,,,,,,,,,,,,,,,,Hohl,2.493223200086504,,,,,,,,,,0.2839521998539567,None,,,,,,,,,,,,,freeRecallSub,2,,,,,,,,,,,,,,,,,,,,,,,,,,,,,,,,,,,,,571.0973852002062,571.1084317998029,571.1084317998029,573.6101858997717,return,2.493223200086504,None,Hohl,[],[],[],[],[],[],[],,,,,,,,,,,,,,,,,,,2,2023-12-11_13h35.59.746,watkins1,2023.2.3,99.77689892077603,58,2023-12-11 13h36.06.638189 +0000,
,,,,,,,,,,,,,,,,,,,10,0,10,0,,,,,573.621991999913,,,,,,,,,,,,,,,,Tasche,12.93179800035432,,,,,,,,,,11.45813410030678,None,,,,,,,,,,,,,freeRecallSub,2,,,,,,,,,,,,,,,,,,,,,,,,,,,,,,,,,,,,,573.6114607001655,573.621991999913,573.621991999913,586.5558926002122,return,12.93179800035432,None,Tasche,[],[],[],[],[],[],[],,,,,,,,,,,,,,,,,,,2,2023-12-11_13h35.59.746,watkins1,2023.2.3,99.77689892077603,58,2023-12-11 13h36.06.638189 +0000,
,,,,,,,,,,,,,,,,,,,11,0,11,0,,,,,586.5684611001052,,,,,,,,,,,,,,,,gepunktet,2.8893847996369004,,,,,,,,,,0.6562781999818981,None,,,,,,,,,,,,,freeRecallSub,2,,,,,,,,,,,,,,,,,,,,,,,,,,,,,,,,,,,,,586.557165000122,586.5684611001052,586.5684611001052,589.4623754001223,return,2.8893847996369004,None,gepunktet,[],[],[],[],[],[],[],,,,,,,,,,,,,,,,,,,2,2023-12-11_13h35.59.746,watkins1,2023.2.3,99.77689892077603,58,2023-12-11 13h36.06.638189 +0000,
,,,,,,,,,,,,,,,,,,,12,0,12,0,,,,,589.4748129998334,,,,,,,,,,,,,,,,Hund,25.158948599826545,,,,,,,,,,24.31095640035346,None,,,,,,,,,,,,,freeRecallSub,2,,,,,,,,,,,,,,,,,,,,,,,,,,,,,,,,,,,,,589.4636491001584,589.4748129998334,589.4748129998334,614.6381219001487,return,25.158948599826545,None,Hund,[],[],[],[],[],[],[],,,,,,,,,,,,,,,,,,,2,2023-12-11_13h35.59.746,watkins1,2023.2.3,99.77689892077603,58,2023-12-11 13h36.06.638189 +0000,
,,,,,,,,,,,,,,,,,,,13,0,13,0,,,,,614.6514023998752,,,,,,,,,,,,,,,,Katze,1.3663046001456678,,,,,,,,,,0.4466950003989041,None,,,,,,,,,,,,,freeRecallSub,2,,,,,,,,,,,,,,,,,,,,,,,,,,,,,,,,,,,,,614.6394254001789,614.6514023998752,614.6514023998752,616.0201587001793,return,1.3663046001456678,None,Katze,[],[],[],[],[],[],[],,,,,,,,,,,,,,,,,,,2,2023-12-11_13h35.59.746,watkins1,2023.2.3,99.77689892077603,58,2023-12-11 13h36.06.638189 +0000,
,,,,,,,,,,,,,,,,,,,14,0,14,0,,,,,616.0336559000425,,,,,,,,,,,,,,,,elegant,16.832173799630255,,,,,,,,,,15.588133100420237,None,,,,,,,,,,,,,freeRecallSub,2,,,,,,,,,,,,,,,,,,,,,,,,,,,,,,,,,,,,,616.0214237999171,616.0336559000425,616.0336559000425,632.8744767000899,return,16.832173799630255,None,elegant,[],[],[],[],[],[],[],,,,,,,,,,,,,,,,,,,2,2023-12-11_13h35.59.746,watkins1,2023.2.3,99.77689892077603,58,2023-12-11 13h36.06.638189 +0000,
,,,,,,,,,,,,,,,,,,,15,0,15,0,,,,,632.887433799915,,,,,,,,,,,,,,,,dunkel,9.96230569994077,,,,,,,,,,8.900361699983478,None,,,,,,,,,,,,,freeRecallSub,2,,,,,,,,,,,,,,,,,,,,,,,,,,,,,,,,,,,,,632.8757469998673,632.887433799915,632.887433799915,642.850481600035,return,9.96230569994077,None,dunkel,[],[],[],[],[],[],[],,,,,,,,,,,,,,,,,,,2,2023-12-11_13h35.59.746,watkins1,2023.2.3,99.77689892077603,58,2023-12-11 13h36.06.638189 +0000,
,,,,,,,,,,,,,,,,,,,16,0,16,0,,,,,642.8640231997706,,,,,,,,,,,,,,,,kamerKamera,51.16169579979032,,,,,,,,,,42.44659649999812,43.63137779990211,,,,,,,,,,,,,freeRecallSub,2,,,,,,,,,,,,,,,,,,,,,,,,,,,,,,,,,,,,,642.8517534998246,642.8640231997706,642.8640231997706,694.0333309997804,return,51.16169579979032,None,kamerKamera,[],[],[],[],[],[],[],,,,,,,,,,,,,,,,,,,2,2023-12-11_13h35.59.746,watkins1,2023.2.3,99.77689892077603,58,2023-12-11 13h36.06.638189 +0000,
,,,,,,,,,,,,,,,,,,,17,0,17,0,,,,,694.0470998999663,,,,,,,,,,,,,,,,kalt,1.0505435997620225,,,,,,,,,,0.4073653002269566,None,,,,,,,,,,,,,freeRecallSub,2,,,,,,,,,,,,,,,,,,,,,,,,,,,,,,,,,,,,,694.0346133001149,694.0470998999663,694.0470998999663,695.1046612001956,return,1.0505435997620225,None,kalt,[],[],[],[],[],[],[],,,,,,,,,,,,,,,,,,,2,2023-12-11_13h35.59.746,watkins1,2023.2.3,99.77689892077603,58,2023-12-11 13h36.06.638189 +0000,
,,,,,,,,,,,,,,,,,,,18,0,18,0,,,,,695.1184610999189,,,,,,,,,,,,,,,,glänzend,26.147175900172442,,,,,,,,,,18.178911000024527,None,,,,,,,,,,,,,freeRecallSub,2,,,,,,,,,,,,,,,,,,,,,,,,,,,,,,,,,,,,,695.1059175999835,695.1184610999189,695.1184610999189,721.2673896001652,return,26.147175900172442,None,glänzend,[],[],[],[],[],[],[],,,,,,,,,,,,,,,,,,,2,2023-12-11_13h35.59.746,watkins1,2023.2.3,99.77689892077603,58,2023-12-11 13h36.06.638189 +0000,
,,,,,,,,,,,,,,,,,,,19,0,19,0,,,,,721.2819559997879,,,,,,,,,,,,,,,,robust,42.66365040000528,,,,,,,,,,41.35465899994597,None,,,,,,,,,,,,,freeRecallSub,2,,,,,,,,,,,,,,,,,,,,,,,,,,,,,,,,,,,,,721.2686763000675,721.2819559997879,721.2819559997879,763.9488109000959,return,42.66365040000528,None,robust,"[-0.5916666666666667, -0.08611111111111111]","[-0.10833333333333334, 0.03333333333333333]","[1, 1]","[0, 0]","[0, 0]","[6.497395399957895, 15.854672399815172]",[],,,,,,,,,,,,,,,,,,,2,2023-12-11_13h35.59.746,watkins1,2023.2.3,99.77689892077603,58,2023-12-11 13h36.06.638189 +0000,
,,,,,,,,,,,,,,,,,,,20,0,20,0,,,,,763.9635100997984,,,,,,,,,,,,,,,,breit,45.63000070024282,,,,,,,,,,43.724738200195134,None,,,,,,,,,,,,,freeRecallSub,2,,,,,,,,,,,,,,,,,,,,,,,,,,,,,,,,,,,,,763.9501535999589,763.9635100997984,763.9635100997984,809.6025558998808,return,45.63000070024282,None,breit,[],[],[],[],[],[],[],,,,,,,,,,,,,,,,,,,2,2023-12-11_13h35.59.746,watkins1,2023.2.3,99.77689892077603,58,2023-12-11 13h36.06.638189 +0000,
,,,,,,,,,,,,,,,,,,,21,0,21,0,,,,,809.6170540000312,,,,,,,,,,,,,,,,,[],,,,,,,,,,None,None,,,,,,,,,,,,,freeRecallSub,2,,,,,,,,,,,,,,,,,,,,,,,,,,,,,,,,,,,,,809.6040166998282,809.6170540000312,809.6170540000312,842.1022927998565,None,,,,[0.25462962962962965],[-0.40555555555555556],[1],[0],[0],[32.49141029966995],"['button_continue', 'continue_text']",,,,,,,,,,,,,,,,,,,2,2023-12-11_13h35.59.746,watkins1,2023.2.3,99.77689892077603,58,2023-12-11 13h36.06.638189 +0000,
,,,,,,,,,,,,,,,,,,,,,,,,,,,,,,,,,,,,,,,,,,,,,,,,,,,,,,,,,,,,,,,,,,,,,2,,,,,,,,,,,,,,,,,,,,,,,,,,,,,,,,,,,,,,,,,,,,,,,,,,,,,,,,,,,,,,,,,,,,,,2,2023-12-11_13h35.59.746,watkins1,2023.2.3,99.77689892077603,58,2023-12-11 13h36.06.638189 +0000,
,,,,,,,,,,,,,,,,,,,,,,,0,0,0,0,859.5431242999621,,,,,,,,,,,,865.4305481999181,865.9289901000448,,,,5.88231910020113,,,,,,,,,,None,None,,,,,,,,,,Blume,,,cuedRecallAdj,2,,,,,,,,,,,,,,,,,,,,,,,,0,,,,,,,,,,,,,,,,,,,,,,,,,,,,859.534086599946,859.5431242999621,859.5431242999621,865.4275066000409,bunt,return,5.88231910020113,None,865.427903899923,865.43706749985,865.43706749985,865.4303946001455,,None,,,,,2,2023-12-11_13h35.59.746,watkins1,2023.2.3,99.77689892077603,58,2023-12-11 13h36.06.638189 +0000,
,,,,,,,,,,,,,,,,,,,,,,,1,0,1,0,865.9390107002109,,,,,,,,,,,,899.1860972000286,899.6849853000604,,,,33.23849029978737,,,,,,,,,,None,None,,,,,,,,,,Buch,,,cuedRecallAdj,2,,,,,,,,,,,,,,,,,,,,,,,,0,,,,,,,,,,,,,,,,,,,,,,,,,,,,865.9292330997996,865.9390107002109,865.9390107002109,899.1833659000695,dick,return,33.23849029978737,None,899.1836430998519,899.1929000997916,899.1929000997916,899.185994700063,,None,,,,,2,2023-12-11_13h35.59.746,watkins1,2023.2.3,99.77689892077603,58,2023-12-11 13h36.06.638189 +0000,
,,,,,,,,,,,,,,,,,,,,,,,2,0,2,0,899.6949297999963,,,,,,,,,,,,903.3931765998714,903.8917462001555,,,,3.6906037000007927,,,,,,,,,,None,None,,,,,,,,,,Trommel,,,cuedRecallAdj,2,,,,,,,,,,,,,,,,,,,,,,,,0,,,,,,,,,,,,,,,,,,,,,,,,,,,,899.6852294998243,899.6949297999963,899.6949297999963,903.3902838001959,laut,return,3.6906037000007927,None,903.3905539000407,903.3999040001072,903.3999040001072,903.393074200023,,None,,,,,2,2023-12-11_13h35.59.746,watkins1,2023.2.3,99.77689892077603,58,2023-12-11 13h36.06.638189 +0000,
,,,,,,,,,,,,,,,,,,,,,,,3,0,3,0,903.9016578998417,,,,,,,,,,,,912.2294713999145,912.7277343999594,,,,8.323803400155157,,,,,,,,,,None,None,,,,,,,,,,Löffel,,,cuedRecallAdj,2,,,,,,,,,,,,,,,,,,,,,,,,0,,,,,,,,,,,,,,,,,,,,,,,,,,,,903.891992600169,903.9016578998417,903.9016578998417,912.2263504001312,biegig,return,8.323803400155157,None,912.2266171001829,912.2357820998877,912.2357820998877,912.2293702000752,,None,,,,,2,2023-12-11_13h35.59.746,watkins1,2023.2.3,99.77689892077603,58,2023-12-11 13h36.06.638189 +0000,
,,,,,,,,,,,,,,,,,,,,,,,4,0,4,0,912.7377201002091,,,,,,,,,,,,932.5219327998348,933.0204412001185,,,,19.77579140011221,,,,,,,,,,None,None,,,,,,,,,,Geige,,,cuedRecallAdj,2,,,,,,,,,,,,,,,,,,,,,,,,0,,,,,,,,,,,,,,,,,,,,,,,,,,,,912.7279783999547,912.7377201002091,912.7377201002091,932.5189096997492,flach,return,19.77579140011221,None,932.5192005997524,932.5284047997557,932.5284047997557,932.5218309997581,,None,,,,,2,2023-12-11_13h35.59.746,watkins1,2023.2.3,99.77689892077603,58,2023-12-11 13h36.06.638189 +0000,
,,,,,,,,,,,,,,,,,,,,,,,5,0,5,0,933.0303605999798,,,,,,,,,,,,937.3409891999327,937.8398885000497,,,,4.307057099882513,,,,,,,,,,None,None,,,,,,,,,,Eimer,,,cuedRecallAdj,2,,,,,,,,,,,,,,,,,,,,,,,,0,,,,,,,,,,,,,,,,,,,,,,,,,,,,933.0206781001762,933.0303605999798,933.0303605999798,937.3381475000642,lang,return,4.307057099882513,None,937.3384150997736,937.3478160998784,937.3478160998784,937.340887799859,,None,,,,,2,2023-12-11_13h35.59.746,watkins1,2023.2.3,99.77689892077603,58,2023-12-11 13h36.06.638189 +0000,
,,,,,,,,,,,,,,,,,,,,,,,6,0,6,0,937.8498307000846,,,,,,,,,,,,939.6904637999833,940.1892397999763,,,,1.8315673000179231,,,,,,,,,,None,None,,,,,,,,,,Hut,,,cuedRecallAdj,2,,,,,,,,,,,,,,,,,,,,,,,,0,,,,,,,,,,,,,,,,,,,,,,,,,,,,937.8401362001896,937.8498307000846,937.8498307000846,939.6877517998219,nass,return,1.8315673000179231,None,939.6880183001049,939.6973092001863,939.6973092001863,939.6903598997742,,None,,,,,2,2023-12-11_13h35.59.746,watkins1,2023.2.3,99.77689892077603,58,2023-12-11 13h36.06.638189 +0000,
,,,,,,,,,,,,,,,,,,,,,,,7,0,7,0,940.1992450999096,,,,,,,,,,,,949.6211135000922,950.1196289998479,,,,9.418219400104135,,,,,,,,,,None,None,,,,,,,,,,Tasche,,,cuedRecallAdj,2,,,,,,,,,,,,,,,,,,,,,,,,0,,,,,,,,,,,,,,,,,,,,,,,,,,,,940.1894808001816,940.1992450999096,940.1992450999096,949.6180548998527,kratzend,return,9.418219400104135,None,949.6183242998086,949.6275295000523,949.6275295000523,949.6210125000216,,None,,,,,2,2023-12-11_13h35.59.746,watkins1,2023.2.3,99.77689892077603,58,2023-12-11 13h36.06.638189 +0000,
,,,,,,,,,,,,,,,,,,,,,,,8,0,8,0,950.129579000175,,,,,,,,,,,,952.4824688001536,952.9716440001503,,,,2.343820400070399,,,,,,,,,,None,None,,,,,,,,,,Schlüssel,,,cuedRecallAdj,2,,,,,,,,,,,,,,,,,,,,,,,,0,,,,,,,,,,,,,,,,,,,,,,,,,,,,950.1198697001673,950.129579000175,950.129579000175,952.4795295000076,hohl,return,2.343820400070399,None,952.4797962000594,952.489063099958,952.489063099958,952.4823663998395,,None,,,,,2,2023-12-11_13h35.59.746,watkins1,2023.2.3,99.77689892077603,58,2023-12-11 13h36.06.638189 +0000,
,,,,,,,,,,,,,,,,,,,,,,,9,0,9,0,952.9815778001212,,,,,,,,,,,,955.9668221999891,956.4658216000535,,,,2.979831900447607,,,,,,,,,,None,None,,,,,,,,,,Würfel,,,cuedRecallAdj,2,,,,,,,,,,,,,,,,,,,,,,,,0,,,,,,,,,,,,,,,,,,,,,,,,,,,,952.9718864001334,952.9815778001212,952.9815778001212,955.9639603001997,bunt,return,2.979831900447607,None,955.9642284000292,955.9734379998408,955.9734379998408,955.9667190001346,,None,,,,,2,2023-12-11_13h35.59.746,watkins1,2023.2.3,99.77689892077603,58,2023-12-11 13h36.06.638189 +0000,
,,,,,,,,,,,,,,,,,,,,,,,10,0,10,0,956.4757719999179,,,,,,,,,,,,961.6097594997846,962.1087036998942,,,,5.1255948999896646,,,,,,,,,,None,None,,,,,,,,,,Telefon,,,cuedRecallAdj,2,,,,,,,,,,,,,,,,,,,,,,,,0,,,,,,,,,,,,,,,,,,,,,,,,,,,,956.466061799787,956.4757719999179,956.4757719999179,961.606889099814,laut,return,5.1255948999896646,None,961.6071560001001,961.616540200077,961.616540200077,961.6096577998251,,None,,,,,2,2023-12-11_13h35.59.746,watkins1,2023.2.3,99.77689892077603,58,2023-12-11 13h36.06.638189 +0000,
,,,,,,,,,,,,,,,,,,,,,,,11,0,11,0,962.118606899865,,,,,,,,,,,,965.9675372000784,966.4662831001915,,,,3.8428017999976873,,,,,,,,,,None,None,,,,,,,,,,Jacke,,,cuedRecallAdj,2,,,,,,,,,,,,,,,,,,,,,,,,0,,,,,,,,,,,,,,,,,,,,,,,,,,,,962.1089425999671,962.118606899865,962.118606899865,965.9645631001331,kaputt,return,3.8428017999976873,None,965.9648313000798,965.974072100129,965.974072100129,965.9674355997704,,None,,,,,2,2023-12-11_13h35.59.746,watkins1,2023.2.3,99.77689892077603,58,2023-12-11 13h36.06.638189 +0000,
,,,,,,,,,,,,,,,,,,,,,,,12,0,12,0,966.4763254998252,,,,,,,,,,,,968.417361699976,968.9161376999691,,,,1.9330715001560748,,,,,,,,,,None,None,,,,,,,,,,Stift,,,cuedRecallAdj,2,,,,,,,,,,,,,,,,,,,,,,,,0,,,,,,,,,,,,,,,,,,,,,,,,,,,,966.4665252999403,966.4763254998252,966.4763254998252,968.4145607999526,dick,return,1.9330715001560748,None,968.4148221998475,968.4242107002065,968.4242107002065,968.4172586998902,,None,,,,,2,2023-12-11_13h35.59.746,watkins1,2023.2.3,99.77689892077603,58,2023-12-11 13h36.06.638189 +0000,
,,,,,,,,,,,,,,,,,,,,,,,13,0,13,0,968.9260277999565,,,,,,,,,,,,974.8532969998196,975.3521604998969,,,,5.91535110026598,,,,,,,,,,None,None,,,,,,,,,,Uhr,,,cuedRecallAdj,2,,,,,,,,,,,,,,,,,,,,,,,,0,,,,,,,,,,,,,,,,,,,,,,,,,,,,968.9163800999522,968.9260277999565,968.9260277999565,974.8503247997724,flach,return,5.91535110026598,None,974.8505971999839,974.8600163999945,974.8600163999945,974.8531940001994,,None,,,,,2,2023-12-11_13h35.59.746,watkins1,2023.2.3,99.77689892077603,58,2023-12-11 13h36.06.638189 +0000,
,,,,,,,,,,,,,,,,,,,,,,,14,0,14,0,975.3620579000562,,,,,,,,,,,,986.8625497999601,987.3609805000015,,,,11.495329900179058,,,,,,,,,,None,None,,,,,,,,,,Kette,,,cuedRecallAdj,2,,,,,,,,,,,,,,,,,,,,,,,,0,,,,,,,,,,,,,,,,,,,,,,,,,,,,975.3524024998769,975.3620579000562,975.3620579000562,986.8594570998102,verspielt,return,11.495329900179058,None,986.8597283000126,986.8689395999536,986.8689395999536,986.8624470997602,,None,,,,,2,2023-12-11_13h35.59.746,watkins1,2023.2.3,99.77689892077603,58,2023-12-11 13h36.06.638189 +0000,
,,,,,,,,,,,,,,,,,,,,,,,15,0,15,0,987.3709029001184,,,,,,,,,,,,991.4612096999772,991.9597279001027,,,,4.078493199776858,,,,,,,,,,None,None,,,,,,,,,,Kiste,,,cuedRecallAdj,2,,,,,,,,,,,,,,,,,,,,,,,,0,,,,,,,,,,,,,,,,,,,,,,,,,,,,987.3612218000926,987.3709029001184,987.3709029001184,991.4581257998943,groß,return,4.078493199776858,None,991.4584037000313,991.4683813001029,991.4683813001029,991.4611066998914,,None,,,,,2,2023-12-11_13h35.59.746,watkins1,2023.2.3,99.77689892077603,58,2023-12-11 13h36.06.638189 +0000,
,,,,,,,,,,,,,,,,,,,,,,,16,0,16,0,991.9696248001419,,,,,,,,,,,,996.7929544001818,997.2912134001963,,,,4.8157952995970845,,,,,,,,,,None,None,,,,,,,,,,Vase,,,cuedRecallAdj,2,,,,,,,,,,,,,,,,,,,,,,,,0,,,,,,,,,,,,,,,,,,,,,,,,,,,,991.9599691000767,991.9696248001419,991.9696248001419,996.7898253998719,glänzend,return,4.8157952995970845,None,996.7901141000912,996.7993410998024,996.7993410998024,996.7928510000929,,None,,,,,2,2023-12-11_13h35.59.746,watkins1,2023.2.3,99.77689892077603,58,2023-12-11 13h36.06.638189 +0000,
,,,,,,,,,,,,,,,,,,,,,,,17,0,17,0,997.3011247999966,,,,,,,,,,,,999.5444637001492,1000.0432989997789,,,,2.2362395003437996,,,,,,,,,,None,None,,,,,,,,,,Schere,,,cuedRecallAdj,2,,,,,,,,,,,,,,,,,,,,,,,,0,,,,,,,,,,,,,,,,,,,,,,,,,,,,997.2914567999542,997.3011247999966,997.3011247999966,999.5416242000647,gut,return,2.2362395003437996,None,999.5418913001195,999.5512888999656,999.5512888999656,999.544355600141,,None,,,,,2,2023-12-11_13h35.59.746,watkins1,2023.2.3,99.77689892077603,58,2023-12-11 13h36.06.638189 +0000,
,,,,,,,,,,,,,,,,,,,,,,,18,0,18,0,1000.053378699813,,,,,,,,,,,,1007.3362235999666,1007.8349619000219,,,,7.2759515000507236,,,,,,,,,,None,None,,,,,,,,,,Flasche,,,cuedRecallAdj,2,,,,,,,,,,,,,,,,,,,,,,,,0,,,,,,,,,,,,,,,,,,,,,,,,,,,,1000.0435450999066,1000.053378699813,1000.053378699813,1007.3330496000126,breit,return,7.2759515000507236,None,1007.3333175000735,1007.3425451000221,1007.3425451000221,1007.3361209998839,,None,,,,,2,2023-12-11_13h35.59.746,watkins1,2023.2.3,99.77689892077603,58,2023-12-11 13h36.06.638189 +0000,
,,,,,,,,,,,,,,,,,,,,,,,19,0,19,0,1007.8449114998803,,,,,,,,,,,,1021.8052817001007,1022.304072599858,,,,13.948349200189114,,,,,,,,,,None,None,,,,,,,,,,Socke,,,cuedRecallAdj,2,,,,,,,,,,,,,,,,,,,,,,,,0,,,,,,,,,,,,,,,,,,,,,,,,,,,,1007.8352093999274,1007.8449114998803,1007.8449114998803,1021.8023210000247,dunkel,return,13.948349200189114,None,1021.8025873000734,1021.81204039976,1021.81204039976,1021.8051793999039,,None,,,,,2,2023-12-11_13h35.59.746,watkins1,2023.2.3,99.77689892077603,58,2023-12-11 13h36.06.638189 +0000,
,,,,,,,,,,,,,,,,,,,,,,,20,0,20,0,1022.3140153000131,,,,,,,,,,,,1028.7732589999214,1029.2718813000247,,,,6.45532299997285,,,,,,,,,,None,None,,,,,,,,,,Brille,,,cuedRecallAdj,2,,,,,,,,,,,,,,,,,,,,,,,,0,,,,,,,,,,,,,,,,,,,,,,,,,,,,1022.3043149998412,1022.3140153000131,1022.3140153000131,1028.7702802000567,robust,return,6.45532299997285,None,1028.7705482998863,1028.7798347999342,1028.7798347999342,1028.7731579001993,,None,,,,,2,2023-12-11_13h35.59.746,watkins1,2023.2.3,99.77689892077603,58,2023-12-11 13h36.06.638189 +0000,
,,,,,,,,,,,,,,,,,,,,,,,21,0,21,0,1029.2817847998813,,,,,,,,,,,,1031.7553562000394,1032.253957899753,,,,2.4635167000815272,,,,,,,,,,None,None,,,,,,,,,,Tasse,,,cuedRecallAdj,2,,,,,,,,,,,,,,,,,,,,,,,,0,,,,,,,,,,,,,,,,,,,,,,,,,,,,1029.2721206001006,1029.2817847998813,1029.2817847998813,1031.7523189000785,groß,return,2.4635167000815272,None,1031.7525880998,1031.761961999815,1031.761961999815,1031.7552550998516,,None,,,,,2,2023-12-11_13h35.59.746,watkins1,2023.2.3,99.77689892077603,58,2023-12-11 13h36.06.638189 +0000,
,,,,,,,,,,,,,,,,,,,,,,,22,0,22,0,1032.2638980997726,,,,,,,,,,,,1047.0783771001734,1047.577114299871,,,,14.801424400415272,,,,,,,,,,None,None,,,,,,,,,,Lampe,,,cuedRecallAdj,2,,,,,,,,,,,,,,,,,,,,,,,,0,,,,,,,,,,,,,,,,,,,,,,,,,,,,1032.2541932999156,1032.2638980997726,1032.2638980997726,1047.0751859000884,niedlich,return,14.801424400415272,None,1047.0754519999027,1047.0850047999993,1047.0850047999993,1047.0782758998685,,None,,,,,2,2023-12-11_13h35.59.746,watkins1,2023.2.3,99.77689892077603,58,2023-12-11 13h36.06.638189 +0000,
,,,,,,,,,,,,,,,,,,,,,,,23,0,23,0,1047.5870505999774,,,,,,,,,,,,1051.4861530000344,1051.9849434001371,,,,3.8942412002943456,,,,,,,,,,None,None,,,,,,,,,,Ring,,,cuedRecallAdj,2,,,,,,,,,,,,,,,,,,,,,,,,0,,,,,,,,,,,,,,,,,,,,,,,,,,,,1047.5773668000475,1047.5870505999774,1047.5870505999774,1051.4832982998341,breit,return,3.8942412002943456,None,1051.483566999901,1051.4928268999793,1051.4928268999793,1051.4860515999608,,None,,,,,2,2023-12-11_13h35.59.746,watkins1,2023.2.3,99.77689892077603,58,2023-12-11 13h36.06.638189 +0000,
,,,,,,,,,,,,,,,,,,,,,,,24,0,24,0,1051.9948837999254,,,,,,,,,,,,1098.8305016998202,1099.329076900147,,,,46.830339199863374,,,,,,,,,,None,None,,,,,,,,,,Kerze,,,cuedRecallAdj,2,,,,,,,,,,,,,,,,,,,,,,,,0,,,,,,,,,,,,,,,,,,,,,,,,,,,,1051.9851874001324,1051.9948837999254,1051.9948837999254,1098.8274228000082,leuchtend,return,46.830339199863374,None,1098.8276988998987,1098.8369781998917,1098.8369781998917,1098.8303987002,,None,,,,,2,2023-12-11_13h35.59.746,watkins1,2023.2.3,99.77689892077603,58,2023-12-11 13h36.06.638189 +0000,
,,,,,,,,,,,,,,,,,,,,,,,25,0,25,0,1099.3390114000067,,,,,,,,,,,,1101.6617514998652,1102.1605270998552,,,,2.31826449977234,,,,,,,,,,None,None,,,,,,,,,,Kamera,,,cuedRecallAdj,2,,,,,,,,,,,,,,,,,,,,,,,,0,,,,,,,,,,,,,,,,,,,,,,,,,,,,1099.3293213997968,1099.3390114000067,1099.3390114000067,1101.658873599954,kalt,return,2.31826449977234,None,1101.6591455000453,1101.6684340001084,1101.6684340001084,1101.6616492997855,,None,,,,,2,2023-12-11_13h35.59.746,watkins1,2023.2.3,99.77689892077603,58,2023-12-11 13h36.06.638189 +0000,
,,,,,,,,,,,,,,,,,,,,,,,26,0,26,0,1102.1704719997942,,,,,,,,,,,,1107.164373499807,1107.6631922000088,,,,4.982732099946588,,,,,,,,,,None,None,,,,,,,,,,Bürste,,,cuedRecallAdj,2,,,,,,,,,,,,,,,,,,,,,,,,0,,,,,,,,,,,,,,,,,,,,,,,,,,,,1102.160782400053,1102.1704719997942,1102.1704719997942,1107.1613842002116,sauber,return,4.982732099946588,None,1107.161652599927,1107.1711074002087,1107.1711074002087,1107.1642698999494,,None,,,,,2,2023-12-11_13h35.59.746,watkins1,2023.2.3,99.77689892077603,58,2023-12-11 13h36.06.638189 +0000,
,,,,,,,,,,,,,,,,,,,,,,,27,0,27,0,1107.6731416000985,,,,,,,,,,,,1132.2371982000768,1132.7355812001042,,,,24.560143900103867,,,,,,,,,,None,None,,,,,,,,,,Fahrrad,,,cuedRecallAdj,2,,,,,,,,,,,,,,,,,,,,,,,,0,,,,,,,,,,,,,,,,,,,,,,,,,,,,1107.6634380999021,1107.6731416000985,1107.6731416000985,1132.2340049999766,robust,return,24.560143900103867,None,1132.2342757000588,1132.243682899978,1132.243682899978,1132.2370964000002,,None,,,,,2,2023-12-11_13h35.59.746,watkins1,2023.2.3,99.77689892077603,58,2023-12-11 13h36.06.638189 +0000,
,,,,,,,,,,,,,,,,,,,,,,,28,0,28,0,1132.745507599786,,,,,,,,,,,,1143.4026095001027,1143.901102299802,,,,10.647629499901086,,,,,,,,,,None,None,,,,,,,,,,Hammer,,,cuedRecallAdj,2,,,,,,,,,,,,,,,,,,,,,,,,0,,,,,,,,,,,,,,,,,,,,,,,,,,,,1132.7358293998986,1132.745507599786,1132.745507599786,1143.3995256000198,gut,return,10.647629499901086,None,1143.3997880998068,1143.4090971001424,1143.4090971001424,1143.4025106001645,,None,,,,,2,2023-12-11_13h35.59.746,watkins1,2023.2.3,99.77689892077603,58,2023-12-11 13h36.06.638189 +0000,
,,,,,,,,,,,,,,,,,,,,,,,29,0,29,0,1143.911043399945,,,,,,,,,,,,1155.7123985001817,1156.2108411998488,,,,11.794090299867094,,,,,,,,,,None,None,,,,,,,,,,Rucksack,,,cuedRecallAdj,2,,,,,,,,,,,,,,,,,,,,,,,,0,,,,,,,,,,,,,,,,,,,,,,,,,,,,1143.901348600164,1143.911043399945,1143.911043399945,1155.7091597002,kratzig,return,11.794090299867094,None,1155.7094320999458,1155.7187276999466,1155.7187276999466,1155.7122972998768,,None,,,,,2,2023-12-11_13h35.59.746,watkins1,2023.2.3,99.77689892077603,58,2023-12-11 13h36.06.638189 +0000,
,,,,,,,,,,,,,,,,,,,,,,,,,,,,,,,,,,,,,,,,,,,,,,,,,,,,,,,,,,,,,,,,,,,,,2,,,,,,,,,,,,,,,,,,,,,,,,,,,,,,,,,,,,,,,,,,,,,,,,,,,,,,,,,,,,,,,,,,1156.2274446999654,q,336.1334036998451,None,2,2023-12-11_13h35.59.746,watkins1,2023.2.3,99.77689892077603,58,2023-12-11 13h36.06.638189 +0000,
