Equation,CorrectResponse,Correctbutton,trials_7.thisRepN,trials_7.thisTrialN,trials_7.thisN,trials_7.thisIndex,trials.thisRepN,trials.thisTrialN,trials.thisN,trials.thisIndex,trials_3.thisRepN,trials_3.thisTrialN,trials_3.thisN,trials_3.thisIndex,trials_2.thisRepN,trials_2.thisTrialN,trials_2.thisN,trials_2.thisIndex,trials_4.thisRepN,trials_4.thisTrialN,trials_4.thisN,trials_4.thisIndex,trials_5.thisRepN,trials_5.thisTrialN,trials_5.thisN,trials_5.thisIndex,thisRow.t,notes,list_sub_restudy,list_sub_testsub,code_marius.started,code_marius.stopped,welcome.started,welcome.stopped,instruction_study.started,instruction_study.stopped,fixationcross.started,fixationcross.stopped,blanc.started,blanc.stopped,study_control_probe.started,study_control_probe.stopped,responseKey,responseTime,scale_answer_2.keys,study_control_probe_2.started,study_control_probe_2.stopped,scale_answer_3.keys,scale_answer_3.rt,scale_answer_3.duration,blanc_2.started,blanc_2.stopped,test_attr_probe.started,test_attr_probe.stopped,recalled_attr,firstKeyTime,secondWordTime,blanc_3.started,blanc_3.stopped,test_sub_probe.started,test_sub_probe.stopped,recalled_sub,instruction_probe_end.started,instruction_probe_end.stopped,study.started,study.stopped,substantive,adjective,wordpair,task,condition,liste_sub_phase1,liste_adj_phase1,scale_answer.keys,scale_answer.rt,scale_answer.duration,code_defineWordsInit.started,code_defineWordsInit.stopped,liste_sub_phase2,study_control.started,study_control.stopped,scale_answer_4.keys,restudy_same.started,restudy_same.stopped,scale_answer_5.keys,restudy_different.started,restudy_different.stopped,scale_answer_6.keys,test_attr.started,test_attr.stopped,test_sub.started,correct,test_sub.stopped,scale_answer_5.rt,scale_answer_5.duration,distractortask.started,equation_text.started,distractortask.stopped,mouse_answer.x,mouse_answer.y,mouse_answer.leftButton,mouse_answer.midButton,mouse_answer.rightButton,mouse_answer.time,mouse_answer.clicked_name,feedback_distractortask.started,feedback_distractortask.stopped,free_recall.started,text_enter.started,key_resp.started,free_recall.stopped,key_resp.keys,key_resp.rt,key_resp.duration,free_recalled_sub,mouse_continue.x,mouse_continue.y,mouse_continue.leftButton,mouse_continue.midButton,mouse_continue.rightButton,mouse_continue.time,mouse_continue.clicked_name,cued_recall.started,text_enter_2.started,key_continue.started,cued_recall.stopped,recalled_attr1,key_continue.keys,key_continue.rt,key_continue.duration,cued_recall_2.started,text_enter_3.started,key_continue_2.started,cued_recall_2.stopped,recalled_attr2,key_continue_2.keys,key_resp_8.started,key_resp_8.keys,key_resp_8.rt,key_resp_8.duration,condition,date,expName,psychopyVersion,frameRate,participant,expStart,
,,,,,,,,,,,,,,,,,,,,,,,,,,,,,"['Hut', 'Uhr', 'Vase', 'Tasche', 'Bürste', 'Lampe', 'Stift', 'Jacke', 'Schere', 'Kamera', 'Hammer', 'Geige', 'Rucksack', 'Kiste', 'Socke']","['Schlüssel', 'Kette', 'Fahrrad', 'Trommel', 'Eimer', 'Telefon', 'Würfel', 'Tasse', 'Löffel', 'Brille', 'Ring', 'Kerze', 'Blume', 'Buch', 'Flasche']",0.11508319992572069,0.11514979996718466,0.11515789991244674,11.559282999951392,,,,,,,,,,,,,,,,,,,,,,,,,,,,,,,,,,,,,2,,,,,,,,,,,,,,,,,,,,,,,,,,,,,,,,,,,,,,,,,,,,,,,,,,,,,,,,,,,,,,,,,,,,,,2,2023-12-06_12h58.44.437,watkins1,2023.2.3,99.76584964944801,47,2023-12-06 12h58.52.285158 +0000,
,,,,,,,,,,,,,,,,,,,,,,,,,,,,,,,,,,,11.559331099968404,105.36161800008267,,,,,,,,,,,,,,,,,,,,,,,,,,,,,,,,,,,2,,,,,,,,,,,,,,,,,,,,,,,,,,,,,,,,,,,,,,,,,,,,,,,,,,,,,,,,,,,,,,,,,,,,,,2,2023-12-06_12h58.44.437,watkins1,2023.2.3,99.76584964944801,47,2023-12-06 12h58.52.285158 +0000,
,,,0,0,0,0,,,,,,,,,,,,,,,,,,,,,106.37546560005285,,,,,,,,,,105.36163439997472,106.36550049996004,112.86430200003088,113.35565999988467,106.85751229990274,112.86413150001317,1,4.06298439996317,None,113.3556707999669,119.36537289991975,1,4.06298439996317,None,119.36567099997774,119.3656957000494,119.36570299998857,119.36578230001032,,3.7954051999840885,None,119.36594920000061,119.85688850004226,119.85689920000732,125.86127489991486,Hu d,,,,,,,,,2,,,,,,,,,,,,,,,,,,,,,,,,,,,,,,,,,,,,,,,,,,,,,,,,,,,,,,,,,,,,,,,,,,,,,,2,2023-12-06_12h58.44.437,watkins1,2023.2.3,99.76584964944801,47,2023-12-06 12h58.52.285158 +0000,
,,,,,,,,,,,,,,,,,,,,,,,,,,,,,,,,,,,,,,,,,,,,,,,,,,,,,,,,,,,,,,,125.86142860003747,131.56449509994127,,,,,,,2,,,,,,,,,,,,,,,,,,,,,,,,,,,,,,,,,,,,,,,,,,,,,,,,,,,,,,,,,,,,,,,,,,,,,,2,2023-12-06_12h58.44.437,watkins1,2023.2.3,99.76584964944801,47,2023-12-06 12h58.52.285158 +0000,
,,,,,,,0,0,0,0,,,,,,,,,,,,,,,,,132.57810149993747,,,,,,,,,,131.56451150006615,132.568108699983,132.5685668999795,133.0600952000823,,,1,2.753384299809113,,,,,,,,,,,,,,,,,,,,,133.06010679993778,139.06798769999295,Würfel,glänzend,"['Würfel', 'glänzend']",test_sub,2,"['Würfel', 'Kette', 'Jacke', 'Stift', 'Vase', 'Rucksack', 'Uhr', 'Lampe', 'Kerze', 'Löffel', 'Tasse', 'Telefon', 'Socke', 'Brille', 'Ring', 'Geige', 'Blume', 'Trommel', 'Schlüssel', 'Kamera', 'Buch', 'Fahrrad', 'Kiste', 'Tasche', 'Bürste', 'Hut', 'Flasche', 'Hammer', 'Eimer', 'Schere']",['glänzend'],1,2.753384299809113,None,,,,,,,,,,,,,,,,,,,,,,,,,,,,,,,,,,,,,,,,,,,,,,,,,,,,,,,,,,,,,,,,,2,2023-12-06_12h58.44.437,watkins1,2023.2.3,99.76584964944801,47,2023-12-06 12h58.52.285158 +0000,
,,,,,,,1,0,1,0,,,,,,,,,,,,,,,,,139.07741970010102,,,,,,,,,,,,139.0686405999586,139.5595319001004,,,3,2.8964791998732835,,,,,,,,,,,,,,,,,,,,,139.55954149994068,145.56396339996718,Kette,breit,"['Kette', 'breit']",test_sub,2,"['Würfel', 'Kette', 'Jacke', 'Stift', 'Vase', 'Rucksack', 'Uhr', 'Lampe', 'Kerze', 'Löffel', 'Tasse', 'Telefon', 'Socke', 'Brille', 'Ring', 'Geige', 'Blume', 'Trommel', 'Schlüssel', 'Kamera', 'Buch', 'Fahrrad', 'Kiste', 'Tasche', 'Bürste', 'Hut', 'Flasche', 'Hammer', 'Eimer', 'Schere']","['glänzend', 'breit']",3,2.8964791998732835,None,,,,,,,,,,,,,,,,,,,,,,,,,,,,,,,,,,,,,,,,,,,,,,,,,,,,,,,,,,,,,,,,,2,2023-12-06_12h58.44.437,watkins1,2023.2.3,99.76584964944801,47,2023-12-06 12h58.52.285158 +0000,
,,,,,,,2,0,2,0,,,,,,,,,,,,,,,,,145.5733809999656,,,,,,,,,,,,145.5644966000691,146.05547700007446,,,3,2.5032999999821186,,,,,,,,,,,,,,,,,,,,,146.05548759992234,152.06207889993675,Jacke,praktisch,"['Jacke', 'praktisch']",restudy,2,"['Würfel', 'Kette', 'Jacke', 'Stift', 'Vase', 'Rucksack', 'Uhr', 'Lampe', 'Kerze', 'Löffel', 'Tasse', 'Telefon', 'Socke', 'Brille', 'Ring', 'Geige', 'Blume', 'Trommel', 'Schlüssel', 'Kamera', 'Buch', 'Fahrrad', 'Kiste', 'Tasche', 'Bürste', 'Hut', 'Flasche', 'Hammer', 'Eimer', 'Schere']","['glänzend', 'breit', 'praktisch']",3,2.5032999999821186,None,,,,,,,,,,,,,,,,,,,,,,,,,,,,,,,,,,,,,,,,,,,,,,,,,,,,,,,,,,,,,,,,,2,2023-12-06_12h58.44.437,watkins1,2023.2.3,99.76584964944801,47,2023-12-06 12h58.52.285158 +0000,
,,,,,,,3,0,3,0,,,,,,,,,,,,,,,,,152.07153979991563,,,,,,,,,,,,152.06260360009037,152.5534961000085,,,2,2.4234666998963803,,,,,,,,,,,,,,,,,,,,,152.55350650008768,158.56081840000115,Stift,neu,"['Stift', 'neu']",restudy,2,"['Würfel', 'Kette', 'Jacke', 'Stift', 'Vase', 'Rucksack', 'Uhr', 'Lampe', 'Kerze', 'Löffel', 'Tasse', 'Telefon', 'Socke', 'Brille', 'Ring', 'Geige', 'Blume', 'Trommel', 'Schlüssel', 'Kamera', 'Buch', 'Fahrrad', 'Kiste', 'Tasche', 'Bürste', 'Hut', 'Flasche', 'Hammer', 'Eimer', 'Schere']","['glänzend', 'breit', 'praktisch', 'neu']",2,2.4234666998963803,None,,,,,,,,,,,,,,,,,,,,,,,,,,,,,,,,,,,,,,,,,,,,,,,,,,,,,,,,,,,,,,,,,2,2023-12-06_12h58.44.437,watkins1,2023.2.3,99.76584964944801,47,2023-12-06 12h58.52.285158 +0000,
,,,,,,,4,0,4,0,,,,,,,,,,,,,,,,,158.570245699957,,,,,,,,,,,,158.56136330007575,159.0522733000107,,,1,2.180613699834794,,,,,,,,,,,,,,,,,,,,,159.05228359997272,165.06114779994823,Vase,gut,"['Vase', 'gut']",restudy,2,"['Würfel', 'Kette', 'Jacke', 'Stift', 'Vase', 'Rucksack', 'Uhr', 'Lampe', 'Kerze', 'Löffel', 'Tasse', 'Telefon', 'Socke', 'Brille', 'Ring', 'Geige', 'Blume', 'Trommel', 'Schlüssel', 'Kamera', 'Buch', 'Fahrrad', 'Kiste', 'Tasche', 'Bürste', 'Hut', 'Flasche', 'Hammer', 'Eimer', 'Schere']","['glänzend', 'breit', 'praktisch', 'neu', 'gut']",1,2.180613699834794,None,,,,,,,,,,,,,,,,,,,,,,,,,,,,,,,,,,,,,,,,,,,,,,,,,,,,,,,,,,,,,,,,,2,2023-12-06_12h58.44.437,watkins1,2023.2.3,99.76584964944801,47,2023-12-06 12h58.52.285158 +0000,
,,,,,,,5,0,5,0,,,,,,,,,,,,,,,,,165.07059459993616,,,,,,,,,,,,165.0617694000248,165.55264290003106,,,1,2.5837201999966055,,,,,,,,,,,,,,,,,,,,,165.55265289987437,171.56264770007692,Rucksack,kaputt,"['Rucksack', 'kaputt']",restudy,2,"['Würfel', 'Kette', 'Jacke', 'Stift', 'Vase', 'Rucksack', 'Uhr', 'Lampe', 'Kerze', 'Löffel', 'Tasse', 'Telefon', 'Socke', 'Brille', 'Ring', 'Geige', 'Blume', 'Trommel', 'Schlüssel', 'Kamera', 'Buch', 'Fahrrad', 'Kiste', 'Tasche', 'Bürste', 'Hut', 'Flasche', 'Hammer', 'Eimer', 'Schere']","['glänzend', 'breit', 'praktisch', 'neu', 'gut', 'kaputt']",1,2.5837201999966055,None,,,,,,,,,,,,,,,,,,,,,,,,,,,,,,,,,,,,,,,,,,,,,,,,,,,,,,,,,,,,,,,,,2,2023-12-06_12h58.44.437,watkins1,2023.2.3,99.76584964944801,47,2023-12-06 12h58.52.285158 +0000,
,,,,,,,6,0,6,0,,,,,,,,,,,,,,,,,171.57221999997273,,,,,,,,,,,,171.56317929993384,172.05417239991948,,,3,2.2901769999880344,,,,,,,,,,,,,,,,,,,,,172.05418289988302,178.05472879996523,Uhr,hübsch,"['Uhr', 'hübsch']",restudy,2,"['Würfel', 'Kette', 'Jacke', 'Stift', 'Vase', 'Rucksack', 'Uhr', 'Lampe', 'Kerze', 'Löffel', 'Tasse', 'Telefon', 'Socke', 'Brille', 'Ring', 'Geige', 'Blume', 'Trommel', 'Schlüssel', 'Kamera', 'Buch', 'Fahrrad', 'Kiste', 'Tasche', 'Bürste', 'Hut', 'Flasche', 'Hammer', 'Eimer', 'Schere']","['glänzend', 'breit', 'praktisch', 'neu', 'gut', 'kaputt', 'hübsch']",3,2.2901769999880344,None,,,,,,,,,,,,,,,,,,,,,,,,,,,,,,,,,,,,,,,,,,,,,,,,,,,,,,,,,,,,,,,,,2,2023-12-06_12h58.44.437,watkins1,2023.2.3,99.76584964944801,47,2023-12-06 12h58.52.285158 +0000,
,,,,,,,7,0,7,0,,,,,,,,,,,,,,,,,178.0642424998805,,,,,,,,,,,,178.05525259999558,178.5461079000961,,,2,2.4625653999391943,,,,,,,,,,,,,,,,,,,,,178.54611840005964,184.55448779999278,Lampe,matt,"['Lampe', 'matt']",restudy,2,"['Würfel', 'Kette', 'Jacke', 'Stift', 'Vase', 'Rucksack', 'Uhr', 'Lampe', 'Kerze', 'Löffel', 'Tasse', 'Telefon', 'Socke', 'Brille', 'Ring', 'Geige', 'Blume', 'Trommel', 'Schlüssel', 'Kamera', 'Buch', 'Fahrrad', 'Kiste', 'Tasche', 'Bürste', 'Hut', 'Flasche', 'Hammer', 'Eimer', 'Schere']","['glänzend', 'breit', 'praktisch', 'neu', 'gut', 'kaputt', 'hübsch', 'matt']",2,2.4625653999391943,None,,,,,,,,,,,,,,,,,,,,,,,,,,,,,,,,,,,,,,,,,,,,,,,,,,,,,,,,,,,,,,,,,2,2023-12-06_12h58.44.437,watkins1,2023.2.3,99.76584964944801,47,2023-12-06 12h58.52.285158 +0000,
,,,,,,,8,0,8,0,,,,,,,,,,,,,,,,,184.56395899993367,,,,,,,,,,,,184.55501209991053,185.04601259995252,,,1,3.4670072000008076,,,,,,,,,,,,,,,,,,,,,185.04602340003476,191.04664020007476,Kerze,krumm,"['Kerze', 'krumm']",test_sub,2,"['Würfel', 'Kette', 'Jacke', 'Stift', 'Vase', 'Rucksack', 'Uhr', 'Lampe', 'Kerze', 'Löffel', 'Tasse', 'Telefon', 'Socke', 'Brille', 'Ring', 'Geige', 'Blume', 'Trommel', 'Schlüssel', 'Kamera', 'Buch', 'Fahrrad', 'Kiste', 'Tasche', 'Bürste', 'Hut', 'Flasche', 'Hammer', 'Eimer', 'Schere']","['glänzend', 'breit', 'praktisch', 'neu', 'gut', 'kaputt', 'hübsch', 'matt', 'krumm']",1,3.4670072000008076,None,,,,,,,,,,,,,,,,,,,,,,,,,,,,,,,,,,,,,,,,,,,,,,,,,,,,,,,,,,,,,,,,,2,2023-12-06_12h58.44.437,watkins1,2023.2.3,99.76584964944801,47,2023-12-06 12h58.52.285158 +0000,
,,,,,,,9,0,9,0,,,,,,,,,,,,,,,,,191.05611909995787,,,,,,,,,,,,191.04715920006856,191.53818030003458,,,2,2.05411950009875,,,,,,,,,,,,,,,,,,,,,191.538191099884,197.53936100006104,Löffel,hässlich,"['Löffel', 'hässlich']",test_sub,2,"['Würfel', 'Kette', 'Jacke', 'Stift', 'Vase', 'Rucksack', 'Uhr', 'Lampe', 'Kerze', 'Löffel', 'Tasse', 'Telefon', 'Socke', 'Brille', 'Ring', 'Geige', 'Blume', 'Trommel', 'Schlüssel', 'Kamera', 'Buch', 'Fahrrad', 'Kiste', 'Tasche', 'Bürste', 'Hut', 'Flasche', 'Hammer', 'Eimer', 'Schere']","['glänzend', 'breit', 'praktisch', 'neu', 'gut', 'kaputt', 'hübsch', 'matt', 'krumm', 'hässlich']",2,2.05411950009875,None,,,,,,,,,,,,,,,,,,,,,,,,,,,,,,,,,,,,,,,,,,,,,,,,,,,,,,,,,,,,,,,,,2,2023-12-06_12h58.44.437,watkins1,2023.2.3,99.76584964944801,47,2023-12-06 12h58.52.285158 +0000,
,,,,,,,10,0,10,0,,,,,,,,,,,,,,,,,197.54883560002781,,,,,,,,,,,,197.5398885998875,198.03085560002364,,,3,3.065301900031045,,,,,,,,,,,,,,,,,,,,,198.0308670999948,204.0410885999445,Tasse,schmutzig,"['Tasse', 'schmutzig']",test_sub,2,"['Würfel', 'Kette', 'Jacke', 'Stift', 'Vase', 'Rucksack', 'Uhr', 'Lampe', 'Kerze', 'Löffel', 'Tasse', 'Telefon', 'Socke', 'Brille', 'Ring', 'Geige', 'Blume', 'Trommel', 'Schlüssel', 'Kamera', 'Buch', 'Fahrrad', 'Kiste', 'Tasche', 'Bürste', 'Hut', 'Flasche', 'Hammer', 'Eimer', 'Schere']","['glänzend', 'breit', 'praktisch', 'neu', 'gut', 'kaputt', 'hübsch', 'matt', 'krumm', 'hässlich', 'schmutzig']",3,3.065301900031045,None,,,,,,,,,,,,,,,,,,,,,,,,,,,,,,,,,,,,,,,,,,,,,,,,,,,,,,,,,,,,,,,,,2,2023-12-06_12h58.44.437,watkins1,2023.2.3,99.76584964944801,47,2023-12-06 12h58.52.285158 +0000,
,,,,,,,11,0,11,0,,,,,,,,,,,,,,,,,204.05067429994233,,,,,,,,,,,,204.04163999995217,204.53270159987733,,,1,1.9879744001664221,,,,,,,,,,,,,,,,,,,,,204.53271239995956,210.53502439986914,Telefon,sauber,"['Telefon', 'sauber']",test_sub,2,"['Würfel', 'Kette', 'Jacke', 'Stift', 'Vase', 'Rucksack', 'Uhr', 'Lampe', 'Kerze', 'Löffel', 'Tasse', 'Telefon', 'Socke', 'Brille', 'Ring', 'Geige', 'Blume', 'Trommel', 'Schlüssel', 'Kamera', 'Buch', 'Fahrrad', 'Kiste', 'Tasche', 'Bürste', 'Hut', 'Flasche', 'Hammer', 'Eimer', 'Schere']","['glänzend', 'breit', 'praktisch', 'neu', 'gut', 'kaputt', 'hübsch', 'matt', 'krumm', 'hässlich', 'schmutzig', 'sauber']",1,1.9879744001664221,None,,,,,,,,,,,,,,,,,,,,,,,,,,,,,,,,,,,,,,,,,,,,,,,,,,,,,,,,,,,,,,,,,2,2023-12-06_12h58.44.437,watkins1,2023.2.3,99.76584964944801,47,2023-12-06 12h58.52.285158 +0000,
,,,,,,,12,0,12,0,,,,,,,,,,,,,,,,,210.54450240009464,,,,,,,,,,,,210.5355767000001,211.0265623999294,,,1,1.9025034001097083,,,,,,,,,,,,,,,,,,,,,211.02657329989597,217.03504860005341,Socke,kratzig,"['Socke', 'kratzig']",restudy,2,"['Würfel', 'Kette', 'Jacke', 'Stift', 'Vase', 'Rucksack', 'Uhr', 'Lampe', 'Kerze', 'Löffel', 'Tasse', 'Telefon', 'Socke', 'Brille', 'Ring', 'Geige', 'Blume', 'Trommel', 'Schlüssel', 'Kamera', 'Buch', 'Fahrrad', 'Kiste', 'Tasche', 'Bürste', 'Hut', 'Flasche', 'Hammer', 'Eimer', 'Schere']","['glänzend', 'breit', 'praktisch', 'neu', 'gut', 'kaputt', 'hübsch', 'matt', 'krumm', 'hässlich', 'schmutzig', 'sauber', 'kratzig']",1,1.9025034001097083,None,,,,,,,,,,,,,,,,,,,,,,,,,,,,,,,,,,,,,,,,,,,,,,,,,,,,,,,,,,,,,,,,,2,2023-12-06_12h58.44.437,watkins1,2023.2.3,99.76584964944801,47,2023-12-06 12h58.52.285158 +0000,
,,,,,,,13,0,13,0,,,,,,,,,,,,,,,,,217.04446960007772,,,,,,,,,,,,217.03558130003512,217.52684230008163,,,2,1.9455194999463856,,,,,,,,,,,,,,,,,,,,,217.52685260004364,223.52830630005337,Brille,lustig,"['Brille', 'lustig']",test_sub,2,"['Würfel', 'Kette', 'Jacke', 'Stift', 'Vase', 'Rucksack', 'Uhr', 'Lampe', 'Kerze', 'Löffel', 'Tasse', 'Telefon', 'Socke', 'Brille', 'Ring', 'Geige', 'Blume', 'Trommel', 'Schlüssel', 'Kamera', 'Buch', 'Fahrrad', 'Kiste', 'Tasche', 'Bürste', 'Hut', 'Flasche', 'Hammer', 'Eimer', 'Schere']","['glänzend', 'breit', 'praktisch', 'neu', 'gut', 'kaputt', 'hübsch', 'matt', 'krumm', 'hässlich', 'schmutzig', 'sauber', 'kratzig', 'lustig']",2,1.9455194999463856,None,,,,,,,,,,,,,,,,,,,,,,,,,,,,,,,,,,,,,,,,,,,,,,,,,,,,,,,,,,,,,,,,,2,2023-12-06_12h58.44.437,watkins1,2023.2.3,99.76584964944801,47,2023-12-06 12h58.52.285158 +0000,
,,,,,,,14,0,14,0,,,,,,,,,,,,,,,,,223.53782569989562,,,,,,,,,,,,223.52883540000767,224.0197213999927,,,1,3.8854036999400705,,,,,,,,,,,,,,,,,,,,,224.01973189995624,230.02073480002582,Ring,schlicht,"['Ring', 'schlicht']",test_sub,2,"['Würfel', 'Kette', 'Jacke', 'Stift', 'Vase', 'Rucksack', 'Uhr', 'Lampe', 'Kerze', 'Löffel', 'Tasse', 'Telefon', 'Socke', 'Brille', 'Ring', 'Geige', 'Blume', 'Trommel', 'Schlüssel', 'Kamera', 'Buch', 'Fahrrad', 'Kiste', 'Tasche', 'Bürste', 'Hut', 'Flasche', 'Hammer', 'Eimer', 'Schere']","['glänzend', 'breit', 'praktisch', 'neu', 'gut', 'kaputt', 'hübsch', 'matt', 'krumm', 'hässlich', 'schmutzig', 'sauber', 'kratzig', 'lustig', 'schlicht']",1,3.8854036999400705,None,,,,,,,,,,,,,,,,,,,,,,,,,,,,,,,,,,,,,,,,,,,,,,,,,,,,,,,,,,,,,,,,,2,2023-12-06_12h58.44.437,watkins1,2023.2.3,99.76584964944801,47,2023-12-06 12h58.52.285158 +0000,
,,,,,,,15,0,15,0,,,,,,,,,,,,,,,,,230.030202700058,,,,,,,,,,,,230.0212695999071,230.5121859998908,,,1,3.624147400027141,,,,,,,,,,,,,,,,,,,,,230.5121959000826,236.52186480001546,Geige,kurz,"['Geige', 'kurz']",restudy,2,"['Würfel', 'Kette', 'Jacke', 'Stift', 'Vase', 'Rucksack', 'Uhr', 'Lampe', 'Kerze', 'Löffel', 'Tasse', 'Telefon', 'Socke', 'Brille', 'Ring', 'Geige', 'Blume', 'Trommel', 'Schlüssel', 'Kamera', 'Buch', 'Fahrrad', 'Kiste', 'Tasche', 'Bürste', 'Hut', 'Flasche', 'Hammer', 'Eimer', 'Schere']","['glänzend', 'breit', 'praktisch', 'neu', 'gut', 'kaputt', 'hübsch', 'matt', 'krumm', 'hässlich', 'schmutzig', 'sauber', 'kratzig', 'lustig', 'schlicht', 'kurz']",1,3.624147400027141,None,,,,,,,,,,,,,,,,,,,,,,,,,,,,,,,,,,,,,,,,,,,,,,,,,,,,,,,,,,,,,,,,,2,2023-12-06_12h58.44.437,watkins1,2023.2.3,99.76584964944801,47,2023-12-06 12h58.52.285158 +0000,
,,,,,,,16,0,16,0,,,,,,,,,,,,,,,,,236.53130250005051,,,,,,,,,,,,236.5223924999591,237.0133666000329,,,1,4.843697200063616,,,,,,,,,,,,,,,,,,,,,237.0133773998823,243.02189449989237,Blume,sportlich,"['Blume', 'sportlich']",test_sub,2,"['Würfel', 'Kette', 'Jacke', 'Stift', 'Vase', 'Rucksack', 'Uhr', 'Lampe', 'Kerze', 'Löffel', 'Tasse', 'Telefon', 'Socke', 'Brille', 'Ring', 'Geige', 'Blume', 'Trommel', 'Schlüssel', 'Kamera', 'Buch', 'Fahrrad', 'Kiste', 'Tasche', 'Bürste', 'Hut', 'Flasche', 'Hammer', 'Eimer', 'Schere']","['glänzend', 'breit', 'praktisch', 'neu', 'gut', 'kaputt', 'hübsch', 'matt', 'krumm', 'hässlich', 'schmutzig', 'sauber', 'kratzig', 'lustig', 'schlicht', 'kurz', 'sportlich']",1,4.843697200063616,None,,,,,,,,,,,,,,,,,,,,,,,,,,,,,,,,,,,,,,,,,,,,,,,,,,,,,,,,,,,,,,,,,2,2023-12-06_12h58.44.437,watkins1,2023.2.3,99.76584964944801,47,2023-12-06 12h58.52.285158 +0000,
,,,,,,,17,0,17,0,,,,,,,,,,,,,,,,,243.0312377999071,,,,,,,,,,,,243.0224250999745,243.51310099987313,,,1,3.919861900154501,,,,,,,,,,,,,,,,,,,,,243.51311130006798,249.51492920005694,Trommel,niedlich,"['Trommel', 'niedlich']",test_sub,2,"['Würfel', 'Kette', 'Jacke', 'Stift', 'Vase', 'Rucksack', 'Uhr', 'Lampe', 'Kerze', 'Löffel', 'Tasse', 'Telefon', 'Socke', 'Brille', 'Ring', 'Geige', 'Blume', 'Trommel', 'Schlüssel', 'Kamera', 'Buch', 'Fahrrad', 'Kiste', 'Tasche', 'Bürste', 'Hut', 'Flasche', 'Hammer', 'Eimer', 'Schere']","['glänzend', 'breit', 'praktisch', 'neu', 'gut', 'kaputt', 'hübsch', 'matt', 'krumm', 'hässlich', 'schmutzig', 'sauber', 'kratzig', 'lustig', 'schlicht', 'kurz', 'sportlich', 'niedlich']",1,3.919861900154501,None,,,,,,,,,,,,,,,,,,,,,,,,,,,,,,,,,,,,,,,,,,,,,,,,,,,,,,,,,,,,,,,,,2,2023-12-06_12h58.44.437,watkins1,2023.2.3,99.76584964944801,47,2023-12-06 12h58.52.285158 +0000,
,,,,,,,18,0,18,0,,,,,,,,,,,,,,,,,249.52447930001654,,,,,,,,,,,,249.515447499929,250.00665299990214,,,2,5.39417070010677,,,,,,,,,,,,,,,,,,,,,250.0066635000985,256.0090145999566,Schlüssel,glatt,"['Schlüssel', 'glatt']",test_sub,2,"['Würfel', 'Kette', 'Jacke', 'Stift', 'Vase', 'Rucksack', 'Uhr', 'Lampe', 'Kerze', 'Löffel', 'Tasse', 'Telefon', 'Socke', 'Brille', 'Ring', 'Geige', 'Blume', 'Trommel', 'Schlüssel', 'Kamera', 'Buch', 'Fahrrad', 'Kiste', 'Tasche', 'Bürste', 'Hut', 'Flasche', 'Hammer', 'Eimer', 'Schere']","['glänzend', 'breit', 'praktisch', 'neu', 'gut', 'kaputt', 'hübsch', 'matt', 'krumm', 'hässlich', 'schmutzig', 'sauber', 'kratzig', 'lustig', 'schlicht', 'kurz', 'sportlich', 'niedlich', 'glatt']",2,5.39417070010677,None,,,,,,,,,,,,,,,,,,,,,,,,,,,,,,,,,,,,,,,,,,,,,,,,,,,,,,,,,,,,,,,,,2,2023-12-06_12h58.44.437,watkins1,2023.2.3,99.76584964944801,47,2023-12-06 12h58.52.285158 +0000,
,,,,,,,19,0,19,0,,,,,,,,,,,,,,,,,256.01844649994746,,,,,,,,,,,,256.0095599000342,256.5004179000389,,,2,3.5487827998586,,,,,,,,,,,,,,,,,,,,,256.5004279999994,262.50143090006895,Kamera,hohl,"['Kamera', 'hohl']",restudy,2,"['Würfel', 'Kette', 'Jacke', 'Stift', 'Vase', 'Rucksack', 'Uhr', 'Lampe', 'Kerze', 'Löffel', 'Tasse', 'Telefon', 'Socke', 'Brille', 'Ring', 'Geige', 'Blume', 'Trommel', 'Schlüssel', 'Kamera', 'Buch', 'Fahrrad', 'Kiste', 'Tasche', 'Bürste', 'Hut', 'Flasche', 'Hammer', 'Eimer', 'Schere']","['glänzend', 'breit', 'praktisch', 'neu', 'gut', 'kaputt', 'hübsch', 'matt', 'krumm', 'hässlich', 'schmutzig', 'sauber', 'kratzig', 'lustig', 'schlicht', 'kurz', 'sportlich', 'niedlich', 'glatt', 'hohl']",2,3.5487827998586,None,,,,,,,,,,,,,,,,,,,,,,,,,,,,,,,,,,,,,,,,,,,,,,,,,,,,,,,,,,,,,,,,,2,2023-12-06_12h58.44.437,watkins1,2023.2.3,99.76584964944801,47,2023-12-06 12h58.52.285158 +0000,
,,,,,,,20,0,20,0,,,,,,,,,,,,,,,,,262.51067880005576,,,,,,,,,,,,262.5019469000399,262.99274830007926,,,1,2.0964715001173317,,,,,,,,,,,,,,,,,,,,,262.9927584999241,269.00255870004185,Buch,bunt,"['Buch', 'bunt']",test_sub,2,"['Würfel', 'Kette', 'Jacke', 'Stift', 'Vase', 'Rucksack', 'Uhr', 'Lampe', 'Kerze', 'Löffel', 'Tasse', 'Telefon', 'Socke', 'Brille', 'Ring', 'Geige', 'Blume', 'Trommel', 'Schlüssel', 'Kamera', 'Buch', 'Fahrrad', 'Kiste', 'Tasche', 'Bürste', 'Hut', 'Flasche', 'Hammer', 'Eimer', 'Schere']","['glänzend', 'breit', 'praktisch', 'neu', 'gut', 'kaputt', 'hübsch', 'matt', 'krumm', 'hässlich', 'schmutzig', 'sauber', 'kratzig', 'lustig', 'schlicht', 'kurz', 'sportlich', 'niedlich', 'glatt', 'hohl', 'bunt']",1,2.0964715001173317,None,,,,,,,,,,,,,,,,,,,,,,,,,,,,,,,,,,,,,,,,,,,,,,,,,,,,,,,,,,,,,,,,,2,2023-12-06_12h58.44.437,watkins1,2023.2.3,99.76584964944801,47,2023-12-06 12h58.52.285158 +0000,
,,,,,,,21,0,21,0,,,,,,,,,,,,,,,,,269.0120649000164,,,,,,,,,,,,269.0030878998805,269.49410920008086,,,2,1.5465633000712842,,,,,,,,,,,,,,,,,,,,,269.4941197000444,275.49605219997466,Fahrrad,zart,"['Fahrrad', 'zart']",test_sub,2,"['Würfel', 'Kette', 'Jacke', 'Stift', 'Vase', 'Rucksack', 'Uhr', 'Lampe', 'Kerze', 'Löffel', 'Tasse', 'Telefon', 'Socke', 'Brille', 'Ring', 'Geige', 'Blume', 'Trommel', 'Schlüssel', 'Kamera', 'Buch', 'Fahrrad', 'Kiste', 'Tasche', 'Bürste', 'Hut', 'Flasche', 'Hammer', 'Eimer', 'Schere']","['glänzend', 'breit', 'praktisch', 'neu', 'gut', 'kaputt', 'hübsch', 'matt', 'krumm', 'hässlich', 'schmutzig', 'sauber', 'kratzig', 'lustig', 'schlicht', 'kurz', 'sportlich', 'niedlich', 'glatt', 'hohl', 'bunt', 'zart']",2,1.5465633000712842,None,,,,,,,,,,,,,,,,,,,,,,,,,,,,,,,,,,,,,,,,,,,,,,,,,,,,,,,,,,,,,,,,,2,2023-12-06_12h58.44.437,watkins1,2023.2.3,99.76584964944801,47,2023-12-06 12h58.52.285158 +0000,
,,,,,,,22,0,22,0,,,,,,,,,,,,,,,,,275.50552359991707,,,,,,,,,,,,275.49658209993504,275.9876333998982,,,2,2.701343199936673,,,,,,,,,,,,,,,,,,,,,275.98764330009,281.9936496000737,Kiste,elegant,"['Kiste', 'elegant']",restudy,2,"['Würfel', 'Kette', 'Jacke', 'Stift', 'Vase', 'Rucksack', 'Uhr', 'Lampe', 'Kerze', 'Löffel', 'Tasse', 'Telefon', 'Socke', 'Brille', 'Ring', 'Geige', 'Blume', 'Trommel', 'Schlüssel', 'Kamera', 'Buch', 'Fahrrad', 'Kiste', 'Tasche', 'Bürste', 'Hut', 'Flasche', 'Hammer', 'Eimer', 'Schere']","['glänzend', 'breit', 'praktisch', 'neu', 'gut', 'kaputt', 'hübsch', 'matt', 'krumm', 'hässlich', 'schmutzig', 'sauber', 'kratzig', 'lustig', 'schlicht', 'kurz', 'sportlich', 'niedlich', 'glatt', 'hohl', 'bunt', 'zart', 'elegant']",2,2.701343199936673,None,,,,,,,,,,,,,,,,,,,,,,,,,,,,,,,,,,,,,,,,,,,,,,,,,,,,,,,,,,,,,,,,,2,2023-12-06_12h58.44.437,watkins1,2023.2.3,99.76584964944801,47,2023-12-06 12h58.52.285158 +0000,
,,,,,,,23,0,23,0,,,,,,,,,,,,,,,,,282.003128600074,,,,,,,,,,,,281.9941779000219,282.48513599997386,,,1,1.0512278000824153,,,,,,,,,,,,,,,,,,,,,282.4851464999374,288.4864807999693,Tasche,winzig,"['Tasche', 'winzig']",restudy,2,"['Würfel', 'Kette', 'Jacke', 'Stift', 'Vase', 'Rucksack', 'Uhr', 'Lampe', 'Kerze', 'Löffel', 'Tasse', 'Telefon', 'Socke', 'Brille', 'Ring', 'Geige', 'Blume', 'Trommel', 'Schlüssel', 'Kamera', 'Buch', 'Fahrrad', 'Kiste', 'Tasche', 'Bürste', 'Hut', 'Flasche', 'Hammer', 'Eimer', 'Schere']","['glänzend', 'breit', 'praktisch', 'neu', 'gut', 'kaputt', 'hübsch', 'matt', 'krumm', 'hässlich', 'schmutzig', 'sauber', 'kratzig', 'lustig', 'schlicht', 'kurz', 'sportlich', 'niedlich', 'glatt', 'hohl', 'bunt', 'zart', 'elegant', 'winzig']",1,1.0512278000824153,None,,,,,,,,,,,,,,,,,,,,,,,,,,,,,,,,,,,,,,,,,,,,,,,,,,,,,,,,,,,,,,,,,2,2023-12-06_12h58.44.437,watkins1,2023.2.3,99.76584964944801,47,2023-12-06 12h58.52.285158 +0000,
,,,,,,,24,0,24,0,,,,,,,,,,,,,,,,,288.4960088999942,,,,,,,,,,,,288.48701649997383,288.9780705999583,,,2,1.1028905001003295,,,,,,,,,,,,,,,,,,,,,288.97808060003445,294.9872669999022,Bürste,nachhaltig,"['Bürste', 'nachhaltig']",restudy,2,"['Würfel', 'Kette', 'Jacke', 'Stift', 'Vase', 'Rucksack', 'Uhr', 'Lampe', 'Kerze', 'Löffel', 'Tasse', 'Telefon', 'Socke', 'Brille', 'Ring', 'Geige', 'Blume', 'Trommel', 'Schlüssel', 'Kamera', 'Buch', 'Fahrrad', 'Kiste', 'Tasche', 'Bürste', 'Hut', 'Flasche', 'Hammer', 'Eimer', 'Schere']","['glänzend', 'breit', 'praktisch', 'neu', 'gut', 'kaputt', 'hübsch', 'matt', 'krumm', 'hässlich', 'schmutzig', 'sauber', 'kratzig', 'lustig', 'schlicht', 'kurz', 'sportlich', 'niedlich', 'glatt', 'hohl', 'bunt', 'zart', 'elegant', 'winzig', 'nachhaltig']",2,1.1028905001003295,None,,,,,,,,,,,,,,,,,,,,,,,,,,,,,,,,,,,,,,,,,,,,,,,,,,,,,,,,,,,,,,,,,2,2023-12-06_12h58.44.437,watkins1,2023.2.3,99.76584964944801,47,2023-12-06 12h58.52.285158 +0000,
,,,,,,,25,0,25,0,,,,,,,,,,,,,,,,,294.9968200000003,,,,,,,,,,,,294.9877776999492,295.4788156999275,,,1,3.3708973999600857,,,,,,,,,,,,,,,,,,,,,295.47882670001127,301.4810893998947,Hut,kalt,"['Hut', 'kalt']",restudy,2,"['Würfel', 'Kette', 'Jacke', 'Stift', 'Vase', 'Rucksack', 'Uhr', 'Lampe', 'Kerze', 'Löffel', 'Tasse', 'Telefon', 'Socke', 'Brille', 'Ring', 'Geige', 'Blume', 'Trommel', 'Schlüssel', 'Kamera', 'Buch', 'Fahrrad', 'Kiste', 'Tasche', 'Bürste', 'Hut', 'Flasche', 'Hammer', 'Eimer', 'Schere']","['glänzend', 'breit', 'praktisch', 'neu', 'gut', 'kaputt', 'hübsch', 'matt', 'krumm', 'hässlich', 'schmutzig', 'sauber', 'kratzig', 'lustig', 'schlicht', 'kurz', 'sportlich', 'niedlich', 'glatt', 'hohl', 'bunt', 'zart', 'elegant', 'winzig', 'nachhaltig', 'kalt']",1,3.3708973999600857,None,,,,,,,,,,,,,,,,,,,,,,,,,,,,,,,,,,,,,,,,,,,,,,,,,,,,,,,,,,,,,,,,,2,2023-12-06_12h58.44.437,watkins1,2023.2.3,99.76584964944801,47,2023-12-06 12h58.52.285158 +0000,
,,,,,,,26,0,26,0,,,,,,,,,,,,,,,,,301.4905194998719,,,,,,,,,,,,301.4816195999738,301.9725267998874,,,2,4.42027990007773,,,,,,,,,,,,,,,,,,,,,301.97253710008226,307.98136970005,Flasche,gestreift,"['Flasche', 'gestreift']",test_sub,2,"['Würfel', 'Kette', 'Jacke', 'Stift', 'Vase', 'Rucksack', 'Uhr', 'Lampe', 'Kerze', 'Löffel', 'Tasse', 'Telefon', 'Socke', 'Brille', 'Ring', 'Geige', 'Blume', 'Trommel', 'Schlüssel', 'Kamera', 'Buch', 'Fahrrad', 'Kiste', 'Tasche', 'Bürste', 'Hut', 'Flasche', 'Hammer', 'Eimer', 'Schere']","['glänzend', 'breit', 'praktisch', 'neu', 'gut', 'kaputt', 'hübsch', 'matt', 'krumm', 'hässlich', 'schmutzig', 'sauber', 'kratzig', 'lustig', 'schlicht', 'kurz', 'sportlich', 'niedlich', 'glatt', 'hohl', 'bunt', 'zart', 'elegant', 'winzig', 'nachhaltig', 'kalt', 'gestreift']",2,4.42027990007773,None,,,,,,,,,,,,,,,,,,,,,,,,,,,,,,,,,,,,,,,,,,,,,,,,,,,,,,,,,,,,,,,,,2,2023-12-06_12h58.44.437,watkins1,2023.2.3,99.76584964944801,47,2023-12-06 12h58.52.285158 +0000,
,,,,,,,27,0,27,0,,,,,,,,,,,,,,,,,307.99094630009495,,,,,,,,,,,,307.9819018000271,308.4729669999797,,,3,3.8392664999701083,,,,,,,,,,,,,,,,,,,,,308.472978200065,314.4736530999653,Hammer,klobig,"['Hammer', 'klobig']",restudy,2,"['Würfel', 'Kette', 'Jacke', 'Stift', 'Vase', 'Rucksack', 'Uhr', 'Lampe', 'Kerze', 'Löffel', 'Tasse', 'Telefon', 'Socke', 'Brille', 'Ring', 'Geige', 'Blume', 'Trommel', 'Schlüssel', 'Kamera', 'Buch', 'Fahrrad', 'Kiste', 'Tasche', 'Bürste', 'Hut', 'Flasche', 'Hammer', 'Eimer', 'Schere']","['glänzend', 'breit', 'praktisch', 'neu', 'gut', 'kaputt', 'hübsch', 'matt', 'krumm', 'hässlich', 'schmutzig', 'sauber', 'kratzig', 'lustig', 'schlicht', 'kurz', 'sportlich', 'niedlich', 'glatt', 'hohl', 'bunt', 'zart', 'elegant', 'winzig', 'nachhaltig', 'kalt', 'gestreift', 'klobig']",3,3.8392664999701083,None,,,,,,,,,,,,,,,,,,,,,,,,,,,,,,,,,,,,,,,,,,,,,,,,,,,,,,,,,,,,,,,,,2,2023-12-06_12h58.44.437,watkins1,2023.2.3,99.76584964944801,47,2023-12-06 12h58.52.285158 +0000,
,,,,,,,28,0,28,0,,,,,,,,,,,,,,,,,314.4830873000901,,,,,,,,,,,,314.4741791000124,314.9651546999812,,,1,3.0109675999265164,,,,,,,,,,,,,,,,,,,,,314.9651647999417,320.96599940001033,Eimer,biegsam,"['Eimer', 'biegsam']",test_sub,2,"['Würfel', 'Kette', 'Jacke', 'Stift', 'Vase', 'Rucksack', 'Uhr', 'Lampe', 'Kerze', 'Löffel', 'Tasse', 'Telefon', 'Socke', 'Brille', 'Ring', 'Geige', 'Blume', 'Trommel', 'Schlüssel', 'Kamera', 'Buch', 'Fahrrad', 'Kiste', 'Tasche', 'Bürste', 'Hut', 'Flasche', 'Hammer', 'Eimer', 'Schere']","['glänzend', 'breit', 'praktisch', 'neu', 'gut', 'kaputt', 'hübsch', 'matt', 'krumm', 'hässlich', 'schmutzig', 'sauber', 'kratzig', 'lustig', 'schlicht', 'kurz', 'sportlich', 'niedlich', 'glatt', 'hohl', 'bunt', 'zart', 'elegant', 'winzig', 'nachhaltig', 'kalt', 'gestreift', 'klobig', 'biegsam']",1,3.0109675999265164,None,,,,,,,,,,,,,,,,,,,,,,,,,,,,,,,,,,,,,,,,,,,,,,,,,,,,,,,,,,,,,,,,,2,2023-12-06_12h58.44.437,watkins1,2023.2.3,99.76584964944801,47,2023-12-06 12h58.52.285158 +0000,
,,,,,,,29,0,29,0,,,,,,,,,,,,,,,,,320.9755329999607,,,,,,,,,,,,320.96652189991437,321.4577277000062,,,2,4.391233500093222,,,,,,,,,,,,,,,,,,,,,321.4577383999713,327.45976609992795,Schere,gepunktet,"['Schere', 'gepunktet']",restudy,2,"['Würfel', 'Kette', 'Jacke', 'Stift', 'Vase', 'Rucksack', 'Uhr', 'Lampe', 'Kerze', 'Löffel', 'Tasse', 'Telefon', 'Socke', 'Brille', 'Ring', 'Geige', 'Blume', 'Trommel', 'Schlüssel', 'Kamera', 'Buch', 'Fahrrad', 'Kiste', 'Tasche', 'Bürste', 'Hut', 'Flasche', 'Hammer', 'Eimer', 'Schere']","['glänzend', 'breit', 'praktisch', 'neu', 'gut', 'kaputt', 'hübsch', 'matt', 'krumm', 'hässlich', 'schmutzig', 'sauber', 'kratzig', 'lustig', 'schlicht', 'kurz', 'sportlich', 'niedlich', 'glatt', 'hohl', 'bunt', 'zart', 'elegant', 'winzig', 'nachhaltig', 'kalt', 'gestreift', 'klobig', 'biegsam', 'gepunktet']",2,4.391233500093222,None,,,,,,,,,,,,,,,,,,,,,,,,,,,,,,,,,,,,,,,,,,,,,,,,,,,,,,,,,,,,,,,,,2,2023-12-06_12h58.44.437,watkins1,2023.2.3,99.76584964944801,47,2023-12-06 12h58.52.285158 +0000,
,,,,,,,,,,,0,0,0,0,,,,,,,,,,,,,327.46918549994007,,,,,,,,,,,,327.46061450010166,327.95121049997397,,,[],[],,,,,,,,,,,,None,None,,,,,,,,,,Telefon,sauber,"['Telefon', 'sauber']",test_sub,2,,,,,,327.4605397998821,327.4605876998976,"['Telefon', 'Vase', 'Ring', 'Schlüssel', 'Eimer', 'Löffel', 'Rucksack', 'Geige', 'Uhr', 'Bürste', 'Kerze', 'Hut', 'Brille', 'Stift', 'Kette', 'Trommel', 'Jacke', 'Schere', 'Würfel', 'Tasche', 'Flasche', 'Hammer', 'Socke', 'Fahrrad', 'Kiste', 'Kamera', 'Blume', 'Tasse', 'Lampe', 'Buch']",327.9512213000562,327.9541112999432,None,327.95429509994574,327.95690459990874,None,327.95706630009227,327.95973720005713,None,327.9598942999728,327.96110350009985,327.96111609996296,0,333.9672056999989,,,,,,,,,,,,,,,,,,,,,,,,,,,,,,,,,,,,,,,,,,,,,,,,2,2023-12-06_12h58.44.437,watkins1,2023.2.3,99.76584964944801,47,2023-12-06 12h58.52.285158 +0000,
,,,,,,,,,,,1,0,1,0,,,,,,,,,,,,,333.9771191000473,,,,,,,,,,,,333.9674875999335,334.4590890998952,,,[],[],,,,,,,,,,,,None,None,,,,,,,,,,Vase,gut,"['Vase', 'gut']",restudy,2,,,,,,333.96742259990424,333.96745890006423,"['Telefon', 'Vase', 'Ring', 'Schlüssel', 'Eimer', 'Löffel', 'Rucksack', 'Geige', 'Uhr', 'Bürste', 'Kerze', 'Hut', 'Brille', 'Stift', 'Kette', 'Trommel', 'Jacke', 'Schere', 'Würfel', 'Tasche', 'Flasche', 'Hammer', 'Socke', 'Fahrrad', 'Kiste', 'Kamera', 'Blume', 'Tasse', 'Lampe', 'Buch']",334.4590994999744,334.4616926999297,None,334.4618166000582,340.46687279990874,1,340.4672530000098,340.46968850004487,None,340.46980080008507,340.4708513999358,340.47086340002716,,340.4718774999492,4.746979800052941,None,,,,,,,,,,,,,,,,,,,,,,,,,,,,,,,,,,,,,,,,,,,,,,2,2023-12-06_12h58.44.437,watkins1,2023.2.3,99.76584964944801,47,2023-12-06 12h58.52.285158 +0000,
,,,,,,,,,,,2,0,2,0,,,,,,,,,,,,,340.47627159999683,,,,,,,,,,,,340.47216590004973,340.9683785000816,,,[],[],,,,,,,,,,,,4.104921200079843,None,,,,,Kette,,,,,Ring,schlicht,"['Ring', 'schlicht']",test_sub,2,,,,,,340.4721005000174,340.47213859995827,"['Telefon', 'Vase', 'Ring', 'Schlüssel', 'Eimer', 'Löffel', 'Rucksack', 'Geige', 'Uhr', 'Bürste', 'Kerze', 'Hut', 'Brille', 'Stift', 'Kette', 'Trommel', 'Jacke', 'Schere', 'Würfel', 'Tasche', 'Flasche', 'Hammer', 'Socke', 'Fahrrad', 'Kiste', 'Kamera', 'Blume', 'Tasse', 'Lampe', 'Buch']",340.96838900004514,340.9707845998928,None,340.97090919991024,340.9722271999344,None,340.9723396000918,340.9736554999836,None,340.97376580000855,340.97482690005563,340.97483949991874,0,346.97809579991736,,,,,,,,,,,,,,,,,,,,,,,,,,,,,,,,,,,,,,,,,,,,,,,,2,2023-12-06_12h58.44.437,watkins1,2023.2.3,99.76584964944801,47,2023-12-06 12h58.52.285158 +0000,
,,,,,,,,,,,3,0,3,0,,,,,,,,,,,,,346.987892099889,,,,,,,,,,,,346.97837779996917,347.4698816998862,,,[],[],,,,,,,,,,,,2.1507458998821676,None,,,,,Eimer,,,,,Schlüssel,glatt,"['Schlüssel', 'glatt']",test_sub,2,,,,,,346.9783113000449,346.9783489999827,"['Telefon', 'Vase', 'Ring', 'Schlüssel', 'Eimer', 'Löffel', 'Rucksack', 'Geige', 'Uhr', 'Bürste', 'Kerze', 'Hut', 'Brille', 'Stift', 'Kette', 'Trommel', 'Jacke', 'Schere', 'Würfel', 'Tasche', 'Flasche', 'Hammer', 'Socke', 'Fahrrad', 'Kiste', 'Kamera', 'Blume', 'Tasse', 'Lampe', 'Buch']",347.46989269996993,347.47269130009227,None,347.4728137999773,347.47547849989496,None,347.4755871000234,347.47835529991426,None,347.47846430004574,347.47971359989606,347.4797258998733,0,353.486169999931,,,,,,,,,,,,,,,,,,,,,,,,,,,,,,,,,,,,,,,,,,,,,,,,2,2023-12-06_12h58.44.437,watkins1,2023.2.3,99.76584964944801,47,2023-12-06 12h58.52.285158 +0000,
,,,,,,,,,,,4,0,4,0,,,,,,,,,,,,,353.49607319990173,,,,,,,,,,,,353.48645090009086,353.97802649997175,,,[],[],,,,,,,,,,,,1.5782141000963748,None,,,,,Eimer,,,,,Eimer,biegsam,"['Eimer', 'biegsam']",test_sub,2,,,,,,353.4863837000448,353.4864224998746,"['Telefon', 'Vase', 'Ring', 'Schlüssel', 'Eimer', 'Löffel', 'Rucksack', 'Geige', 'Uhr', 'Bürste', 'Kerze', 'Hut', 'Brille', 'Stift', 'Kette', 'Trommel', 'Jacke', 'Schere', 'Würfel', 'Tasche', 'Flasche', 'Hammer', 'Socke', 'Fahrrad', 'Kiste', 'Kamera', 'Blume', 'Tasse', 'Lampe', 'Buch']",353.9780369999353,353.98069519991986,None,353.98081939993426,353.98351359996013,None,353.98362249997444,353.9860920999199,None,353.98620039992966,353.9873887998983,353.9874014998786,1,359.99353430001065,,,,,,,,,,,,,,,,,,,,,,,,,,,,,,,,,,,,,,,,,,,,,,,,2,2023-12-06_12h58.44.437,watkins1,2023.2.3,99.76584964944801,47,2023-12-06 12h58.52.285158 +0000,
,,,,,,,,,,,5,0,5,0,,,,,,,,,,,,,360.0033974999096,,,,,,,,,,,,359.9938153999392,360.4854687000625,,,[],[],,,,,,,,,,,,None,None,,,,,,,,,,Löffel,hässlich,"['Löffel', 'hässlich']",test_sub,2,,,,,,359.9937485998962,359.9937873000745,"['Telefon', 'Vase', 'Ring', 'Schlüssel', 'Eimer', 'Löffel', 'Rucksack', 'Geige', 'Uhr', 'Bürste', 'Kerze', 'Hut', 'Brille', 'Stift', 'Kette', 'Trommel', 'Jacke', 'Schere', 'Würfel', 'Tasche', 'Flasche', 'Hammer', 'Socke', 'Fahrrad', 'Kiste', 'Kamera', 'Blume', 'Tasse', 'Lampe', 'Buch']",360.48547929991037,360.48826269991696,None,360.48838800005615,360.4909763999749,None,360.4911003999878,360.4936369000934,None,360.4937452999875,360.49491490004584,360.49492749990895,0,366.5006120998878,,,,,,,,,,,,,,,,,,,,,,,,,,,,,,,,,,,,,,,,,,,,,,,,2,2023-12-06_12h58.44.437,watkins1,2023.2.3,99.76584964944801,47,2023-12-06 12h58.52.285158 +0000,
,,,,,,,,,,,6,0,6,0,,,,,,,,,,,,,366.51041410001926,,,,,,,,,,,,366.50089869997464,366.99235399998724,,,[],[],,,,,,,,,,,,None,None,,,,,,,,,,Rucksack,kaputt,"['Rucksack', 'kaputt']",restudy,2,,,,,,366.5008298999164,366.50086920009926,"['Telefon', 'Vase', 'Ring', 'Schlüssel', 'Eimer', 'Löffel', 'Rucksack', 'Geige', 'Uhr', 'Bürste', 'Kerze', 'Hut', 'Brille', 'Stift', 'Kette', 'Trommel', 'Jacke', 'Schere', 'Würfel', 'Tasche', 'Flasche', 'Hammer', 'Socke', 'Fahrrad', 'Kiste', 'Kamera', 'Blume', 'Tasse', 'Lampe', 'Buch']",366.99236509995535,366.99517229991034,None,366.99529669992626,373.0023133000359,2,373.0026118999813,373.00532629992813,None,373.0054373999592,373.0066458999645,373.0066577999387,,373.00783429993317,4.269832600140944,None,,,,,,,,,,,,,,,,,,,,,,,,,,,,,,,,,,,,,,,,,,,,,,2,2023-12-06_12h58.44.437,watkins1,2023.2.3,99.76584964944801,47,2023-12-06 12h58.52.285158 +0000,
,,,,,,,,,,,7,0,7,0,,,,,,,,,,,,,373.0117365999613,,,,,,,,,,,,373.0081211000215,373.50379249989055,,,[],[],,,,,,,,,,,,None,None,,,,,,,,,,Geige,kurz,"['Geige', 'kurz']",restudy,2,,,,,,373.008054099977,373.00809310004115,"['Telefon', 'Vase', 'Ring', 'Schlüssel', 'Eimer', 'Löffel', 'Rucksack', 'Geige', 'Uhr', 'Bürste', 'Kerze', 'Hut', 'Brille', 'Stift', 'Kette', 'Trommel', 'Jacke', 'Schere', 'Würfel', 'Tasche', 'Flasche', 'Hammer', 'Socke', 'Fahrrad', 'Kiste', 'Kamera', 'Blume', 'Tasse', 'Lampe', 'Buch']",373.5038030000869,373.5065450000111,None,373.5066698999144,379.5108984000981,1,379.51120400009677,379.51376360002905,None,379.51387919997796,379.5150438998826,379.5150556000881,,379.5160950999707,2.118781599914655,None,,,,,,,,,,,,,,,,,,,,,,,,,,,,,,,,,,,,,,,,,,,,,,2,2023-12-06_12h58.44.437,watkins1,2023.2.3,99.76584964944801,47,2023-12-06 12h58.52.285158 +0000,
,,,,,,,,,,,8,0,8,0,,,,,,,,,,,,,379.5203603999689,,,,,,,,,,,,379.5163795000408,380.0124357000459,,,[],[],,,,,,,,,,,,None,None,,,,,,,,,,Uhr,hübsch,"['Uhr', 'hübsch']",restudy,2,,,,,,379.51631430001,379.51635270006955,"['Telefon', 'Vase', 'Ring', 'Schlüssel', 'Eimer', 'Löffel', 'Rucksack', 'Geige', 'Uhr', 'Bürste', 'Kerze', 'Hut', 'Brille', 'Stift', 'Kette', 'Trommel', 'Jacke', 'Schere', 'Würfel', 'Tasche', 'Flasche', 'Hammer', 'Socke', 'Fahrrad', 'Kiste', 'Kamera', 'Blume', 'Tasse', 'Lampe', 'Buch']",380.0124466998968,380.0148559000809,None,380.0149801000953,386.01554959989153,3,386.0158528999891,386.01839999994263,None,386.01851319987327,386.0195496000815,386.01956170005724,,386.0207706000656,3.058354299981147,None,,,,,,,,,,,,,,,,,,,,,,,,,,,,,,,,,,,,,,,,,,,,,,2,2023-12-06_12h58.44.437,watkins1,2023.2.3,99.76584964944801,47,2023-12-06 12h58.52.285158 +0000,
,,,,,,,,,,,9,0,9,0,,,,,,,,,,,,,386.02495969994925,,,,,,,,,,,,386.02105510002,386.51688869995996,,,[],[],,,,,,,,,,,,None,None,,,,,,,,,,Bürste,nachhaltig,"['Bürste', 'nachhaltig']",restudy,2,,,,,,386.0209890000988,386.0210283000488,"['Telefon', 'Vase', 'Ring', 'Schlüssel', 'Eimer', 'Löffel', 'Rucksack', 'Geige', 'Uhr', 'Bürste', 'Kerze', 'Hut', 'Brille', 'Stift', 'Kette', 'Trommel', 'Jacke', 'Schere', 'Würfel', 'Tasche', 'Flasche', 'Hammer', 'Socke', 'Fahrrad', 'Kiste', 'Kamera', 'Blume', 'Tasse', 'Lampe', 'Buch']",386.516899399925,386.5196255999617,None,386.51975129987113,392.5210412000306,2,392.5213375000749,392.52421510010026,None,392.5243275000248,392.525587500073,392.52559960004874,,392.5269182000775,1.5851469000335783,None,,,,,,,,,,,,,,,,,,,,,,,,,,,,,,,,,,,,,,,,,,,,,,2,2023-12-06_12h58.44.437,watkins1,2023.2.3,99.76584964944801,47,2023-12-06 12h58.52.285158 +0000,
,,,,,,,,,,,10,0,10,0,,,,,,,,,,,,,392.53046409995295,,,,,,,,,,,,392.52720259991474,393.0226024999283,,,[],[],,,,,,,,,,,,3.041117399930954,None,,,,,Geige,,,,,Kerze,krumm,"['Kerze', 'krumm']",test_sub,2,,,,,,392.5271361998748,392.527175599942,"['Telefon', 'Vase', 'Ring', 'Schlüssel', 'Eimer', 'Löffel', 'Rucksack', 'Geige', 'Uhr', 'Bürste', 'Kerze', 'Hut', 'Brille', 'Stift', 'Kette', 'Trommel', 'Jacke', 'Schere', 'Würfel', 'Tasche', 'Flasche', 'Hammer', 'Socke', 'Fahrrad', 'Kiste', 'Kamera', 'Blume', 'Tasse', 'Lampe', 'Buch']",393.02261390001513,393.02540499996394,None,393.02553069987334,393.0269549000077,None,393.02706489991397,393.02848570002243,None,393.0285922999028,393.02975500002503,393.0297675000038,0,399.0331534000579,,,,,,,,,,,,,,,,,,,,,,,,,,,,,,,,,,,,,,,,,,,,,,,,2,2023-12-06_12h58.44.437,watkins1,2023.2.3,99.76584964944801,47,2023-12-06 12h58.52.285158 +0000,
,,,,,,,,,,,11,0,11,0,,,,,,,,,,,,,399.04293420002796,,,,,,,,,,,,399.0334354999941,399.5248497999273,,,[],[],,,,,,,,,,,,None,None,,,,,,,,,,Hut,kalt,"['Hut', 'kalt']",restudy,2,,,,,,399.03336960007437,399.0334059998859,"['Telefon', 'Vase', 'Ring', 'Schlüssel', 'Eimer', 'Löffel', 'Rucksack', 'Geige', 'Uhr', 'Bürste', 'Kerze', 'Hut', 'Brille', 'Stift', 'Kette', 'Trommel', 'Jacke', 'Schere', 'Würfel', 'Tasche', 'Flasche', 'Hammer', 'Socke', 'Fahrrad', 'Kiste', 'Kamera', 'Blume', 'Tasse', 'Lampe', 'Buch']",399.52486029989086,399.5274227000773,None,399.52754849987105,405.53065249999054,1,405.5309599000029,405.53343009995297,None,405.5335417999886,405.53455760004,405.534569399897,,405.5359378999565,1.2816816000267863,None,,,,,,,,,,,,,,,,,,,,,,,,,,,,,,,,,,,,,,,,,,,,,,2,2023-12-06_12h58.44.437,watkins1,2023.2.3,99.76584964944801,47,2023-12-06 12h58.52.285158 +0000,
,,,,,,,,,,,12,0,12,0,,,,,,,,,,,,,405.5401127000805,,,,,,,,,,,,405.53622230002657,406.03222759999335,,,[],[],,,,,,,,,,,,None,None,,,,,,,,,,Brille,lustig,"['Brille', 'lustig']",test_sub,2,,,,,,405.5361569998786,405.53619570005685,"['Telefon', 'Vase', 'Ring', 'Schlüssel', 'Eimer', 'Löffel', 'Rucksack', 'Geige', 'Uhr', 'Bürste', 'Kerze', 'Hut', 'Brille', 'Stift', 'Kette', 'Trommel', 'Jacke', 'Schere', 'Würfel', 'Tasche', 'Flasche', 'Hammer', 'Socke', 'Fahrrad', 'Kiste', 'Kamera', 'Blume', 'Tasse', 'Lampe', 'Buch']",406.03223849995993,406.03484149998985,None,406.0349675999023,406.0364188000094,None,406.0365277999081,406.0379792000167,None,406.0380875999108,406.0392632998992,406.03927609999664,0,412.04198589990847,,,,,,,,,,,,,,,,,,,,,,,,,,,,,,,,,,,,,,,,,,,,,,,,2,2023-12-06_12h58.44.437,watkins1,2023.2.3,99.76584964944801,47,2023-12-06 12h58.52.285158 +0000,
,,,,,,,,,,,13,0,13,0,,,,,,,,,,,,,412.0518892998807,,,,,,,,,,,,412.04226069990546,412.5339188000653,,,[],[],,,,,,,,,,,,None,None,,,,,,,,,,Stift,neu,"['Stift', 'neu']",restudy,2,,,,,,412.04219680000097,412.0422326999251,"['Telefon', 'Vase', 'Ring', 'Schlüssel', 'Eimer', 'Löffel', 'Rucksack', 'Geige', 'Uhr', 'Bürste', 'Kerze', 'Hut', 'Brille', 'Stift', 'Kette', 'Trommel', 'Jacke', 'Schere', 'Würfel', 'Tasche', 'Flasche', 'Hammer', 'Socke', 'Fahrrad', 'Kiste', 'Kamera', 'Blume', 'Tasse', 'Lampe', 'Buch']",412.5339297999162,412.5367244000081,None,412.53684889990836,418.5469219998922,2,418.54721300001256,418.5497022999916,None,418.5498122998979,418.55107289995067,418.55108459992334,,418.55208560009487,2.512624900089577,None,,,,,,,,,,,,,,,,,,,,,,,,,,,,,,,,,,,,,,,,,,,,,,2,2023-12-06_12h58.44.437,watkins1,2023.2.3,99.76584964944801,47,2023-12-06 12h58.52.285158 +0000,
,,,,,,,,,,,14,0,14,0,,,,,,,,,,,,,418.5563624999486,,,,,,,,,,,,418.55236679990776,419.04838629998267,,,[],[],,,,,,,,,,,,1.6245124998968095,None,,,,,Kette,,,,,Kette,breit,"['Kette', 'breit']",test_sub,2,,,,,,418.5523022999987,418.55234039993957,"['Telefon', 'Vase', 'Ring', 'Schlüssel', 'Eimer', 'Löffel', 'Rucksack', 'Geige', 'Uhr', 'Bürste', 'Kerze', 'Hut', 'Brille', 'Stift', 'Kette', 'Trommel', 'Jacke', 'Schere', 'Würfel', 'Tasche', 'Flasche', 'Hammer', 'Socke', 'Fahrrad', 'Kiste', 'Kamera', 'Blume', 'Tasse', 'Lampe', 'Buch']",419.0483965999447,419.0508858000394,None,419.0510090000462,419.0524267000146,None,419.0525362000335,419.05395730002783,None,419.05406489991583,419.0552083000075,419.0552209999878,1,425.05768679990433,,,,,,,,,,,,,,,,,,,,,,,,,,,,,,,,,,,,,,,,,,,,,,,,2,2023-12-06_12h58.44.437,watkins1,2023.2.3,99.76584964944801,47,2023-12-06 12h58.52.285158 +0000,
,,,,,,,,,,,15,0,15,0,,,,,,,,,,,,,425.0675407999661,,,,,,,,,,,,425.0579663000535,425.54962849989533,,,[],[],,,,,,,,,,,,2.169861199799925,None,,,,,Hund,,,,,Trommel,niedlich,"['Trommel', 'niedlich']",test_sub,2,,,,,,425.0578999000136,425.05793750006706,"['Telefon', 'Vase', 'Ring', 'Schlüssel', 'Eimer', 'Löffel', 'Rucksack', 'Geige', 'Uhr', 'Bürste', 'Kerze', 'Hut', 'Brille', 'Stift', 'Kette', 'Trommel', 'Jacke', 'Schere', 'Würfel', 'Tasche', 'Flasche', 'Hammer', 'Socke', 'Fahrrad', 'Kiste', 'Kamera', 'Blume', 'Tasse', 'Lampe', 'Buch']",425.5496394999791,425.55235080001876,None,425.5524758999236,425.55499810003676,None,425.55510749993846,425.5576404000167,None,425.5577491999138,425.5589391000103,425.5589514998719,0,431.56462169997394,,,,,,,,,,,,,,,,,,,,,,,,,,,,,,,,,,,,,,,,,,,,,,,,2,2023-12-06_12h58.44.437,watkins1,2023.2.3,99.76584964944801,47,2023-12-06 12h58.52.285158 +0000,
,,,,,,,,,,,16,0,16,0,,,,,,,,,,,,,431.574420100078,,,,,,,,,,,,431.5649051000364,432.0565176999662,,,[],[],,,,,,,,,,,,None,None,,,,,,,,,,Jacke,praktisch,"['Jacke', 'praktisch']",restudy,2,,,,,,431.5648380999919,431.5648763999343,"['Telefon', 'Vase', 'Ring', 'Schlüssel', 'Eimer', 'Löffel', 'Rucksack', 'Geige', 'Uhr', 'Bürste', 'Kerze', 'Hut', 'Brille', 'Stift', 'Kette', 'Trommel', 'Jacke', 'Schere', 'Würfel', 'Tasche', 'Flasche', 'Hammer', 'Socke', 'Fahrrad', 'Kiste', 'Kamera', 'Blume', 'Tasse', 'Lampe', 'Buch']",432.05652839993127,432.05930510000326,None,432.0594309999142,438.0665090000257,3,438.0668017999269,438.0695448999759,None,438.0696568998974,438.0708125999663,438.07082409993745,,438.07236919994466,3.757541300030425,None,,,,,,,,,,,,,,,,,,,,,,,,,,,,,,,,,,,,,,,,,,,,,,2,2023-12-06_12h58.44.437,watkins1,2023.2.3,99.76584964944801,47,2023-12-06 12h58.52.285158 +0000,
,,,,,,,,,,,17,0,17,0,,,,,,,,,,,,,438.07606539991684,,,,,,,,,,,,438.07264970010146,438.56826739991084,,,[],[],,,,,,,,,,,,None,None,,,,,,,,,,Schere,gepunktet,"['Schere', 'gepunktet']",restudy,2,,,,,,438.07258419995196,438.0726226000115,"['Telefon', 'Vase', 'Ring', 'Schlüssel', 'Eimer', 'Löffel', 'Rucksack', 'Geige', 'Uhr', 'Bürste', 'Kerze', 'Hut', 'Brille', 'Stift', 'Kette', 'Trommel', 'Jacke', 'Schere', 'Würfel', 'Tasche', 'Flasche', 'Hammer', 'Socke', 'Fahrrad', 'Kiste', 'Kamera', 'Blume', 'Tasse', 'Lampe', 'Buch']",438.5682785999961,438.57105979998596,None,438.5711872000247,444.57729390007444,2,444.5775943000335,444.5804011998698,None,444.5805174000561,444.5817070999183,444.58171879989095,,444.5829541001003,4.197783199837431,None,,,,,,,,,,,,,,,,,,,,,,,,,,,,,,,,,,,,,,,,,,,,,,2,2023-12-06_12h58.44.437,watkins1,2023.2.3,99.76584964944801,47,2023-12-06 12h58.52.285158 +0000,
,,,,,,,,,,,18,0,18,0,,,,,,,,,,,,,444.58686270006,,,,,,,,,,,,444.583237899933,445.07886640005745,,,[],[],,,,,,,,,,,,3.0724575999192894,None,,,,,Uhr,,,,,Würfel,glänzend,"['Würfel', 'glänzend']",test_sub,2,,,,,,444.58317240001634,444.5832104999572,"['Telefon', 'Vase', 'Ring', 'Schlüssel', 'Eimer', 'Löffel', 'Rucksack', 'Geige', 'Uhr', 'Bürste', 'Kerze', 'Hut', 'Brille', 'Stift', 'Kette', 'Trommel', 'Jacke', 'Schere', 'Würfel', 'Tasche', 'Flasche', 'Hammer', 'Socke', 'Fahrrad', 'Kiste', 'Kamera', 'Blume', 'Tasse', 'Lampe', 'Buch']",445.0788775999099,445.08163710008375,None,445.0817617001012,445.0832034999039,None,445.0833133000415,445.0847485999111,None,445.0848582999315,445.0862143000122,445.0862269999925,0,451.0907846998889,,,,,,,,,,,,,,,,,,,,,,,,,,,,,,,,,,,,,,,,,,,,,,,,2,2023-12-06_12h58.44.437,watkins1,2023.2.3,99.76584964944801,47,2023-12-06 12h58.52.285158 +0000,
,,,,,,,,,,,19,0,19,0,,,,,,,,,,,,,451.1005516999867,,,,,,,,,,,,451.091064899927,451.58284249994904,,,[],[],,,,,,,,,,,,None,None,,,,,,,,,,Tasche,winzig,"['Tasche', 'winzig']",restudy,2,,,,,,451.0909978998825,451.09103640005924,"['Telefon', 'Vase', 'Ring', 'Schlüssel', 'Eimer', 'Löffel', 'Rucksack', 'Geige', 'Uhr', 'Bürste', 'Kerze', 'Hut', 'Brille', 'Stift', 'Kette', 'Trommel', 'Jacke', 'Schere', 'Würfel', 'Tasche', 'Flasche', 'Hammer', 'Socke', 'Fahrrad', 'Kiste', 'Kamera', 'Blume', 'Tasse', 'Lampe', 'Buch']",451.5828533000313,451.5856063000392,None,451.58572990004905,457.59618470002897,1,457.59648100007325,457.6758238999173,None,457.675988700008,457.6775217000395,457.67753649991937,,457.6793825000059,1.9993487999308854,None,,,,,,,,,,,,,,,,,,,,,,,,,,,,,,,,,,,,,,,,,,,,,,2,2023-12-06_12h58.44.437,watkins1,2023.2.3,99.76584964944801,47,2023-12-06 12h58.52.285158 +0000,
,,,,,,,,,,,20,0,20,0,,,,,,,,,,,,,457.6833959000651,,,,,,,,,,,,457.67973680002615,458.1786881000735,,,[],[],,,,,,,,,,,,None,None,,,,,,,,,,Flasche,gestreift,"['Flasche', 'gestreift']",test_sub,2,,,,,,457.6796464000363,457.67970469989814,"['Telefon', 'Vase', 'Ring', 'Schlüssel', 'Eimer', 'Löffel', 'Rucksack', 'Geige', 'Uhr', 'Bürste', 'Kerze', 'Hut', 'Brille', 'Stift', 'Kette', 'Trommel', 'Jacke', 'Schere', 'Würfel', 'Tasche', 'Flasche', 'Hammer', 'Socke', 'Fahrrad', 'Kiste', 'Kamera', 'Blume', 'Tasse', 'Lampe', 'Buch']",458.1786990999244,458.1814496999141,None,458.18157820007764,458.1830325999763,None,458.18314009997994,458.18458850006573,None,458.1846958999522,458.1858802998904,458.1858930999879,0,464.1896377000958,,,,,,,,,,,,,,,,,,,,,,,,,,,,,,,,,,,,,,,,,,,,,,,,2,2023-12-06_12h58.44.437,watkins1,2023.2.3,99.76584964944801,47,2023-12-06 12h58.52.285158 +0000,
,,,,,,,,,,,21,0,21,0,,,,,,,,,,,,,464.19954820000567,,,,,,,,,,,,464.189920600038,464.68145220004953,,,[],[],,,,,,,,,,,,None,None,,,,,,,,,,Hammer,klobig,"['Hammer', 'klobig']",restudy,2,,,,,,464.189854899887,464.1898920999374,"['Telefon', 'Vase', 'Ring', 'Schlüssel', 'Eimer', 'Löffel', 'Rucksack', 'Geige', 'Uhr', 'Bürste', 'Kerze', 'Hut', 'Brille', 'Stift', 'Kette', 'Trommel', 'Jacke', 'Schere', 'Würfel', 'Tasche', 'Flasche', 'Hammer', 'Socke', 'Fahrrad', 'Kiste', 'Kamera', 'Blume', 'Tasse', 'Lampe', 'Buch']",464.68146350001916,464.6843743000645,None,464.6845001000911,470.68924909993075,3,470.6895474998746,470.6922162999399,None,470.692327799974,470.69349269988015,470.69350440008566,,470.6946560998913,2.3643966999370605,None,,,,,,,,,,,,,,,,,,,,,,,,,,,,,,,,,,,,,,,,,,,,,,2,2023-12-06_12h58.44.437,watkins1,2023.2.3,99.76584964944801,47,2023-12-06 12h58.52.285158 +0000,
,,,,,,,,,,,22,0,22,0,,,,,,,,,,,,,470.6987056999933,,,,,,,,,,,,470.69493800005876,471.1908487000037,,,[],[],,,,,,,,,,,,None,None,,,,,,,,,,Socke,kratzig,"['Socke', 'kratzig']",restudy,2,,,,,,470.69487329991534,470.694911000086,"['Telefon', 'Vase', 'Ring', 'Schlüssel', 'Eimer', 'Löffel', 'Rucksack', 'Geige', 'Uhr', 'Bürste', 'Kerze', 'Hut', 'Brille', 'Stift', 'Kette', 'Trommel', 'Jacke', 'Schere', 'Würfel', 'Tasche', 'Flasche', 'Hammer', 'Socke', 'Fahrrad', 'Kiste', 'Kamera', 'Blume', 'Tasse', 'Lampe', 'Buch']",471.1908603999764,471.19354059989564,None,471.1936671999283,477.1942408999894,2,477.1945376000367,477.1972652000841,None,477.1973755999934,477.19853039993905,477.19854260003194,,477.19974249997176,3.231489700032398,None,,,,,,,,,,,,,,,,,,,,,,,,,,,,,,,,,,,,,,,,,,,,,,2,2023-12-06_12h58.44.437,watkins1,2023.2.3,99.76584964944801,47,2023-12-06 12h58.52.285158 +0000,
,,,,,,,,,,,23,0,23,0,,,,,,,,,,,,,477.203664700035,,,,,,,,,,,,477.20002759993076,477.6957117000129,,,[],[],,,,,,,,,,,,3.6633929999079555,None,,,,,Hut,,,,,Fahrrad,zart,"['Fahrrad', 'zart']",test_sub,2,,,,,,477.1999609998893,477.20000019995496,"['Telefon', 'Vase', 'Ring', 'Schlüssel', 'Eimer', 'Löffel', 'Rucksack', 'Geige', 'Uhr', 'Bürste', 'Kerze', 'Hut', 'Brille', 'Stift', 'Kette', 'Trommel', 'Jacke', 'Schere', 'Würfel', 'Tasche', 'Flasche', 'Hammer', 'Socke', 'Fahrrad', 'Kiste', 'Kamera', 'Blume', 'Tasse', 'Lampe', 'Buch']",477.69572219997644,477.69847760000266,None,477.6986002998892,477.70012749987654,None,477.7002425000537,477.70178909995593,None,477.7019050999079,477.70309349987656,477.7031060999725,0,483.70612349989824,,,,,,,,,,,,,,,,,,,,,,,,,,,,,,,,,,,,,,,,,,,,,,,,2,2023-12-06_12h58.44.437,watkins1,2023.2.3,99.76584964944801,47,2023-12-06 12h58.52.285158 +0000,
,,,,,,,,,,,24,0,24,0,,,,,,,,,,,,,483.7159402000252,,,,,,,,,,,,483.70640580006875,484.1979547000956,,,[],[],,,,,,,,,,,,None,None,,,,,,,,,,Kiste,elegant,"['Kiste', 'elegant']",restudy,2,,,,,,483.7063404000364,483.7063774999697,"['Telefon', 'Vase', 'Ring', 'Schlüssel', 'Eimer', 'Löffel', 'Rucksack', 'Geige', 'Uhr', 'Bürste', 'Kerze', 'Hut', 'Brille', 'Stift', 'Kette', 'Trommel', 'Jacke', 'Schere', 'Würfel', 'Tasche', 'Flasche', 'Hammer', 'Socke', 'Fahrrad', 'Kiste', 'Kamera', 'Blume', 'Tasse', 'Lampe', 'Buch']",484.1979662999511,484.2005159999244,None,484.2006421000697,490.21035240008496,1,490.21065269992687,490.213395900093,None,490.213507700013,490.2146604000591,490.21467210003175,,490.21616469998844,5.808394300052896,None,,,,,,,,,,,,,,,,,,,,,,,,,,,,,,,,,,,,,,,,,,,,,,2,2023-12-06_12h58.44.437,watkins1,2023.2.3,99.76584964944801,47,2023-12-06 12h58.52.285158 +0000,
,,,,,,,,,,,25,0,25,0,,,,,,,,,,,,,490.2198208000045,,,,,,,,,,,,490.2164477999322,490.7119050999172,,,[],[],,,,,,,,,,,,None,None,,,,,,,,,,Kamera,hohl,"['Kamera', 'hohl']",restudy,2,,,,,,490.21638150000945,490.21642079995945,"['Telefon', 'Vase', 'Ring', 'Schlüssel', 'Eimer', 'Löffel', 'Rucksack', 'Geige', 'Uhr', 'Bürste', 'Kerze', 'Hut', 'Brille', 'Stift', 'Kette', 'Trommel', 'Jacke', 'Schere', 'Würfel', 'Tasche', 'Flasche', 'Hammer', 'Socke', 'Fahrrad', 'Kiste', 'Kamera', 'Blume', 'Tasse', 'Lampe', 'Buch']",490.71191670000553,490.7146606000606,None,490.7147883998696,496.71674709999934,2,496.7170464999508,496.7196505998727,None,496.719762200024,496.72093579987995,496.72094750008546,,496.7219956999179,1.8622908000834286,None,,,,,,,,,,,,,,,,,,,,,,,,,,,,,,,,,,,,,,,,,,,,,,2,2023-12-06_12h58.44.437,watkins1,2023.2.3,99.76584964944801,47,2023-12-06 12h58.52.285158 +0000,
,,,,,,,,,,,26,0,26,0,,,,,,,,,,,,,496.72618160001,,,,,,,,,,,,496.7222794999834,497.2183936999645,,,[],[],,,,,,,,,,,,None,None,,,,,,,,,,Blume,sportlich,"['Blume', 'sportlich']",test_sub,2,,,,,,496.7222138000652,496.72225230000913,"['Telefon', 'Vase', 'Ring', 'Schlüssel', 'Eimer', 'Löffel', 'Rucksack', 'Geige', 'Uhr', 'Bürste', 'Kerze', 'Hut', 'Brille', 'Stift', 'Kette', 'Trommel', 'Jacke', 'Schere', 'Würfel', 'Tasche', 'Flasche', 'Hammer', 'Socke', 'Fahrrad', 'Kiste', 'Kamera', 'Blume', 'Tasse', 'Lampe', 'Buch']",497.2184045999311,497.2209481999744,None,497.2210756998975,497.22249619988725,None,497.2226064999122,497.22402710001916,None,497.22413829993457,497.2252901000902,497.2253026999533,0,503.2282841000706,,,,,,,,,,,,,,,,,,,,,,,,,,,,,,,,,,,,,,,,,,,,,,,,2,2023-12-06_12h58.44.437,watkins1,2023.2.3,99.76584964944801,47,2023-12-06 12h58.52.285158 +0000,
,,,,,,,,,,,27,0,27,0,,,,,,,,,,,,,503.23813620000146,,,,,,,,,,,,503.2285706999246,503.7199045000598,,,[],[],,,,,,,,,,,,None,None,,,,,,,,,,Tasse,schmutzig,"['Tasse', 'schmutzig']",test_sub,2,,,,,,503.2285033999942,503.2285398999229,"['Telefon', 'Vase', 'Ring', 'Schlüssel', 'Eimer', 'Löffel', 'Rucksack', 'Geige', 'Uhr', 'Bürste', 'Kerze', 'Hut', 'Brille', 'Stift', 'Kette', 'Trommel', 'Jacke', 'Schere', 'Würfel', 'Tasche', 'Flasche', 'Hammer', 'Socke', 'Fahrrad', 'Kiste', 'Kamera', 'Blume', 'Tasse', 'Lampe', 'Buch']",503.71991600003093,503.72268750006333,None,503.72281809989363,503.72551549994387,None,503.725626999978,503.7282064999454,None,503.7283165999688,503.72947310004383,503.72948569990695,0,509.7360177000519,,,,,,,,,,,,,,,,,,,,,,,,,,,,,,,,,,,,,,,,,,,,,,,,2,2023-12-06_12h58.44.437,watkins1,2023.2.3,99.76584964944801,47,2023-12-06 12h58.52.285158 +0000,
,,,,,,,,,,,28,0,28,0,,,,,,,,,,,,,509.74587480002083,,,,,,,,,,,,509.7363000998739,510.2278575000819,,,[],[],,,,,,,,,,,,None,None,,,,,,,,,,Lampe,matt,"['Lampe', 'matt']",restudy,2,,,,,,509.7362315999344,509.73627129988745,"['Telefon', 'Vase', 'Ring', 'Schlüssel', 'Eimer', 'Löffel', 'Rucksack', 'Geige', 'Uhr', 'Bürste', 'Kerze', 'Hut', 'Brille', 'Stift', 'Kette', 'Trommel', 'Jacke', 'Schere', 'Würfel', 'Tasche', 'Flasche', 'Hammer', 'Socke', 'Fahrrad', 'Kiste', 'Kamera', 'Blume', 'Tasse', 'Lampe', 'Buch']",510.2278684999328,510.23063270002604,None,510.2307581999339,516.24114440009,1,516.241441299906,516.2440583000425,None,516.2441724999808,516.2453185999766,516.2453302999493,,516.246359599987,2.410467999987304,None,,,,,,,,,,,,,,,,,,,,,,,,,,,,,,,,,,,,,,,,,,,,,,2,2023-12-06_12h58.44.437,watkins1,2023.2.3,99.76584964944801,47,2023-12-06 12h58.52.285158 +0000,
,,,,,,,,,,,29,0,29,0,,,,,,,,,,,,,516.2505719999317,,,,,,,,,,,,516.2466452000663,516.7426593001001,,,[],[],,,,,,,,,,,,2.4471540001686662,None,,,,,Buch,,,,,Buch,bunt,"['Buch', 'bunt']",test_sub,2,,,,,,516.2465790999122,516.2466188000981,"['Telefon', 'Vase', 'Ring', 'Schlüssel', 'Eimer', 'Löffel', 'Rucksack', 'Geige', 'Uhr', 'Bürste', 'Kerze', 'Hut', 'Brille', 'Stift', 'Kette', 'Trommel', 'Jacke', 'Schere', 'Würfel', 'Tasche', 'Flasche', 'Hammer', 'Socke', 'Fahrrad', 'Kiste', 'Kamera', 'Blume', 'Tasse', 'Lampe', 'Buch']",516.7426696999464,516.7450760998763,None,516.7452000000048,516.7464977998752,None,516.7466062000021,516.7480744000059,None,516.748183199903,516.7492100999225,516.7492225999013,1,522.7509025998879,,,,,,,,,,,,,,,,,,,,,,,,,,,,,,,,,,,,,,,,,,,,,,,,2,2023-12-06_12h58.44.437,watkins1,2023.2.3,99.76584964944801,47,2023-12-06 12h58.52.285158 +0000,
,,,,,,,,,,,,,,,,,,,,,,,,,,,,,,,,,,,,,,,,,,,,,,,,,,,,,,,,,,,,,,,,,,,,,,,2,,,,,,,,,,,,,,,,,,,,,,,,,,,,,,,,,,,,,,,,,,,,,,,,,,,,,,,,,,,,,,,,,,,,,,2,2023-12-06_12h58.44.437,watkins1,2023.2.3,99.76584964944801,47,2023-12-06 12h58.52.285158 +0000,
(4 : 2) + 4 = 6 ,Correct,button_correct,,,,,,,,,,,,,0,0,0,1,,,,,,,,,540.8298376998864,,,,,,,,,,539.8000483999494,540.8034079999197,,,,,['button_correct'],[3.3451490998268127],,,,,,,,,,,,,,,,,,,,,,,,,,distractorTask,2,,,,,,,,,,,,,,,,,,,,,,,,,540.8197902999818,540.8298376998864,544.1689957000781,[0.3768518518518518],[-0.38981481481481484],[1],[0],[0],[3.3451490998268127],['button_correct'],544.1696671999525,545.1726146999281,,,,,,,,,,,,,,,,,,,,,,,,,,,,,,,,,,2,2023-12-06_12h58.44.437,watkins1,2023.2.3,99.76584964944801,47,2023-12-06 12h58.52.285158 +0000,
(25 : 5) + 5 = 9 ,Incorrect,button_incorrect,,,,,,,,,,,,,0,1,1,6,,,,,,,,,545.1826919999439,,,,,,,,,,,,,,,,['button_incorrect'],"[2.860023600049317, 3.0808979000430554]",,,,,,,,,,,,,,,,,,,,,,,,,,distractorTask,2,,,,,,,,,,,,,,,,,,,,,,,,,545.1728083000053,545.1826919999439,548.2566762000788,"[-0.4638888888888889, -0.33611111111111114]","[-0.4148148148148148, -0.4027777777777778]","[1, 1]","[0, 0]","[0, 0]","[2.860023600049317, 3.0808979000430554]",['button_incorrect'],548.2570831999183,549.2602562999818,,,,,,,,,,,,,,,,,,,,,,,,,,,,,,,,,,2,2023-12-06_12h58.44.437,watkins1,2023.2.3,99.76584964944801,47,2023-12-06 12h58.52.285158 +0000,
(54 : 6) - 10 = 0 ,Incorrect,button_incorrect,,,,,,,,,,,,,0,2,2,5,,,,,,,,,549.2702856999822,,,,,,,,,,,,,,,,['button_incorrect'],[3.3512750000227243],,,,,,,,,,,,,,,,,,,,,,,,,,distractorTask,2,,,,,,,,,,,,,,,,,,,,,,,,,549.2604485000484,549.2702856999822,552.6145637000445,[-0.2935185185185185],[-0.40555555555555556],[1],[0],[0],[3.3512750000227243],['button_incorrect'],552.6149486999493,553.618310400052,,,,,,,,,,,,,,,,,,,,,,,,,,,,,,,,,,2,2023-12-06_12h58.44.437,watkins1,2023.2.3,99.76584964944801,47,2023-12-06 12h58.52.285158 +0000,
(7 x 6) + 9 = 48 ,Incorrect,button_incorrect,,,,,,,,,,,,,0,3,3,9,,,,,,,,,553.6282951000612,,,,,,,,,,,,,,,,['button_incorrect'],[3.4609185000881553],,,,,,,,,,,,,,,,,,,,,,,,,,distractorTask,2,,,,,,,,,,,,,,,,,,,,,,,,,553.6184998999815,553.6282951000612,557.0830582000781,[-0.3074074074074074],[-0.3888888888888889],[1],[0],[0],[3.4609185000881553],['button_incorrect'],557.0834445999935,558.0864180000499,,,,,,,,,,,,,,,,,,,,,,,,,,,,,,,,,,2,2023-12-06_12h58.44.437,watkins1,2023.2.3,99.76584964944801,47,2023-12-06 12h58.52.285158 +0000,
(28 : 7) - 3 = 1 ,Correct,button_correct,,,,,,,,,,,,,0,4,4,0,,,,,,,,,558.0964915000368,,,,,,,,,,,,,,,,['button_correct'],[4.184767299797386],,,,,,,,,,,,,,,,,,,,,,,,,,distractorTask,2,,,,,,,,,,,,,,,,,,,,,,,,,558.0866155000404,558.0964915000368,562.2740738999564,[0.412962962962963],[-0.4],[1],[0],[0],[4.184767299797386],['button_correct'],562.2744563000742,563.277305399999,,,,,,,,,,,,,,,,,,,,,,,,,,,,,,,,,,2,2023-12-06_12h58.44.437,watkins1,2023.2.3,99.76584964944801,47,2023-12-06 12h58.52.285158 +0000,
(9 x 5) - 9 = 36 ,Correct,button_correct,,,,,,,,,,,,,0,5,5,4,,,,,,,,,563.287223600084,,,,,,,,,,,,,,,,['button_correct'],[3.4832263998687267],,,,,,,,,,,,,,,,,,,,,,,,,,distractorTask,2,,,,,,,,,,,,,,,,,,,,,,,,,563.2774964000564,563.287223600084,566.7624552999623,[0.3333333333333333],[-0.39166666666666666],[1],[0],[0],[3.4832263998687267],['button_correct'],566.7628438998945,567.7659271000884,,,,,,,,,,,,,,,,,,,,,,,,,,,,,,,,,,2,2023-12-06_12h58.44.437,watkins1,2023.2.3,99.76584964944801,47,2023-12-06 12h58.52.285158 +0000,
(2 x 5) + 3 = 13 ,Correct,button_correct,,,,,,,,,,,,,0,6,6,2,,,,,,,,,567.7758945000824,,,,,,,,,,,,,,,,['button_correct'],[1.5750035000965],,,,,,,,,,,,,,,,,,,,,,,,,,distractorTask,2,,,,,,,,,,,,,,,,,,,,,,,,,567.7661262999754,567.7758945000824,569.3428448000923,[0.3527777777777778],[-0.39166666666666666],[1],[0],[0],[1.5750035000965],['button_correct'],569.3432322000153,570.3464321999345,,,,,,,,,,,,,,,,,,,,,,,,,,,,,,,,,,2,2023-12-06_12h58.44.437,watkins1,2023.2.3,99.76584964944801,47,2023-12-06 12h58.52.285158 +0000,
(80 : 10) + 9 = 17 ,Correct,button_correct,,,,,,,,,,,,,0,7,7,3,,,,,,,,,570.3564178999513,,,,,,,,,,,,,,,,['button_correct'],"[1.8861856998410076, 2.75975829991512, 3.010816599940881]",,,,,,,,,,,,,,,,,,,,,,,,,,distractorTask,2,,,,,,,,,,,,,,,,,,,,,,,,,570.3466320999432,570.3564178999513,573.3594275000505,"[0.30833333333333335, 0.33055555555555555, 0.33796296296296297]","[-0.37222222222222223, -0.34814814814814815, -0.4222222222222222]","[1, 1, 1]","[0, 0, 0]","[0, 0, 0]","[1.8861856998410076, 2.75975829991512, 3.010816599940881]",['button_correct'],573.3598482999951,574.3627720000222,,,,,,,,,,,,,,,,,,,,,,,,,,,,,,,,,,2,2023-12-06_12h58.44.437,watkins1,2023.2.3,99.76584964944801,47,2023-12-06 12h58.52.285158 +0000,
(40 : 5) + 8 = 15 ,Incorrect,button_incorrect,,,,,,,,,,,,,0,8,8,7,,,,,,,,,574.3728165000211,,,,,,,,,,,,,,,,['button_incorrect'],[3.1213438999839127],,,,,,,,,,,,,,,,,,,,,,,,,,distractorTask,2,,,,,,,,,,,,,,,,,,,,,,,,,574.3629620999563,574.3728165000211,577.4860555999912,[-0.3453703703703704],[-0.3907407407407407],[1],[0],[0],[3.1213438999839127],['button_incorrect'],577.4864435000345,578.4896805998869,,,,,,,,,,,,,,,,,,,,,,,,,,,,,,,,,,2,2023-12-06_12h58.44.437,watkins1,2023.2.3,99.76584964944801,47,2023-12-06 12h58.52.285158 +0000,
(6 x 3) + 10 = 27 ,Incorrect,button_incorrect,,,,,,,,,,,,,0,9,9,8,,,,,,,,,578.4997662000824,,,,,,,,,,,,,,,,['button_incorrect'],"[2.2277551000006497, 2.4486043001525104]",,,,,,,,,,,,,,,,,,,,,,,,,,distractorTask,2,,,,,,,,,,,,,,,,,,,,,,,,,578.4898735999595,578.4997662000824,580.9402103999164,"[-0.3055555555555556, -0.3037037037037037]","[-0.362962962962963, -0.3768518518518518]","[1, 1]","[0, 0]","[0, 0]","[2.2277551000006497, 2.4486043001525104]",['button_incorrect'],580.940615599975,581.9436876000836,,,,,,,,,,,,,,,,,,,,,,,,,,,,,,,,,,2,2023-12-06_12h58.44.437,watkins1,2023.2.3,99.76584964944801,47,2023-12-06 12h58.52.285158 +0000,
,,,,,,,,,,,,,,,,,,,,,,,,,,,,,,,,,,,,,,,,,,,,,,,,,,,,,,,,,,,,,,,,,,,,,,,2,,,,,,,,,,,,,,,,,,,,,,,,,,,,,,,,,,,,,,,,,,,,,,,,,,,,,,,,,,,,,,,,,,,,,,2,2023-12-06_12h58.44.437,watkins1,2023.2.3,99.76584964944801,47,2023-12-06 12h58.52.285158 +0000,
,,,,,,,,,,,,,,,,,,,0,0,0,0,,,,,601.9757220000029,,,,,,,,,,,,,,,,Eimer,11.229446000186726,,,,,,,,,,,,3.5035631000064313,None,,,,,,,,,,,,,freeRecallSub,2,,,,,,,,,,,,,,,,,,,,,,,,,,,,,,,,,,,,,601.9671269000974,601.9757220000029,601.9757220000029,613.2119686000515,return,11.229446000186726,None,Eimer,"[0.05925925925925926, 0.06018518518518518]","[0.02962962962962963, 0.04259259259259259]","[1, 1]","[0, 0]","[0, 0]","[2.1676209000870585, 2.5292707001790404]",[],,,,,,,,,,,,,,,,,,,2,2023-12-06_12h58.44.437,watkins1,2023.2.3,99.76584964944801,47,2023-12-06 12h58.52.285158 +0000,
,,,,,,,,,,,,,,,,,,,1,0,1,0,,,,,613.2243349999189,,,,,,,,,,,,,,,,Hut,4.676859400002286,,,,,,,,,,,,2.271467400016263,None,,,,,,,,,,,,,freeRecallSub,2,,,,,,,,,,,,,,,,,,,,,,,,,,,,,,,,,,,,,613.2137941000983,613.2243349999189,613.2243349999189,617.9050143999048,return,4.676859400002286,None,Hut,[],[],[],[],[],[],[],,,,,,,,,,,,,,,,,,,2,2023-12-06_12h58.44.437,watkins1,2023.2.3,99.76584964944801,47,2023-12-06 12h58.52.285158 +0000,
,,,,,,,,,,,,,,,,,,,2,0,2,0,,,,,617.9156056998763,,,,,,,,,,,,,,,,Jacke,3.8414146001450717,,,,,,,,,,,,0.7927481001242995,None,,,,,,,,,,,,,freeRecallSub,2,,,,,,,,,,,,,,,,,,,,,,,,,,,,,,,,,,,,,617.9062818000093,617.9156056998763,617.9156056998763,621.7618064000271,return,3.8414146001450717,None,Jacke,[],[],[],[],[],[],[],,,,,,,,,,,,,,,,,,,2,2023-12-06_12h58.44.437,watkins1,2023.2.3,99.76584964944801,47,2023-12-06 12h58.52.285158 +0000,
,,,,,,,,,,,,,,,,,,,3,0,3,0,,,,,621.772675300017,,,,,,,,,,,,,,,,Buch,2.4723795000463724,,,,,,,,,,,,0.41157019999809563,None,,,,,,,,,,,,,freeRecallSub,2,,,,,,,,,,,,,,,,,,,,,,,,,,,,,,,,,,,,,621.7630541000981,621.772675300017,621.772675300017,624.253425099887,return,2.4723795000463724,None,Buch,[],[],[],[],[],[],[],,,,,,,,,,,,,,,,,,,2,2023-12-06_12h58.44.437,watkins1,2023.2.3,99.76584964944801,47,2023-12-06 12h58.52.285158 +0000,
,,,,,,,,,,,,,,,,,,,4,0,4,0,,,,,624.2642494998872,,,,,,,,,,,,,,,,Würfel,3.2928910001646727,,,,,,,,,,,,0.2508494998328388,None,,,,,,,,,,,,,freeRecallSub,2,,,,,,,,,,,,,,,,,,,,,,,,,,,,,,,,,,,,,624.2546894999687,624.2642494998872,624.2642494998872,627.5580649999902,return,3.2928910001646727,None,Würfel,[],[],[],[],[],[],[],,,,,,,,,,,,,,,,,,,2,2023-12-06_12h58.44.437,watkins1,2023.2.3,99.76584964944801,47,2023-12-06 12h58.52.285158 +0000,
,,,,,,,,,,,,,,,,,,,5,0,5,0,,,,,627.5695845999289,,,,,,,,,,,,,,,,Katze,3.4274297000374645,,,,,,,,,,,,0.6540530000347644,None,,,,,,,,,,,,,freeRecallSub,2,,,,,,,,,,,,,,,,,,,,,,,,,,,,,,,,,,,,,627.5593284999486,627.5695845999289,627.5695845999289,631.0045272000134,return,3.4274297000374645,None,Katze,[],[],[],[],[],[],[],,,,,,,,,,,,,,,,,,,2,2023-12-06_12h58.44.437,watkins1,2023.2.3,99.76584964944801,47,2023-12-06 12h58.52.285158 +0000,
,,,,,,,,,,,,,,,,,,,6,0,6,0,,,,,631.0157665999141,,,,,,,,,,,,,,,,Hund,2.5733990999870002,,,,,,,,,,,,0.3721360000781715,None,,,,,,,,,,,,,freeRecallSub,2,,,,,,,,,,,,,,,,,,,,,,,,,,,,,,,,,,,,,631.005793399876,631.0157665999141,631.0157665999141,633.5967894000933,return,2.5733990999870002,None,Hund,[],[],[],[],[],[],[],,,,,,,,,,,,,,,,,,,2,2023-12-06_12h58.44.437,watkins1,2023.2.3,99.76584964944801,47,2023-12-06 12h58.52.285158 +0000,
,,,,,,,,,,,,,,,,,,,7,0,7,0,,,,,633.6084880998824,,,,,,,,,,,,,,,,Socke,2.764634700026363,,,,,,,,,,,,0.5239015000406653,None,,,,,,,,,,,,,freeRecallSub,2,,,,,,,,,,,,,,,,,,,,,,,,,,,,,,,,,,,,,633.5980519999284,633.6084880998824,633.6084880998824,636.3809851000551,return,2.764634700026363,None,Socke,[],[],[],[],[],[],[],,,,,,,,,,,,,,,,,,,2,2023-12-06_12h58.44.437,watkins1,2023.2.3,99.76584964944801,47,2023-12-06 12h58.52.285158 +0000,
,,,,,,,,,,,,,,,,,,,8,0,8,0,,,,,636.3929141000845,,,,,,,,,,,,,,,,Schere,12.884075700072572,,,,,,,,,,,,8.988329499959946,None,,,,,,,,,,,,,freeRecallSub,2,,,,,,,,,,,,,,,,,,,,,,,,,,,,,,,,,,,,,636.3822458998766,636.3929141000845,636.3929141000845,649.2863010999281,return,12.884075700072572,None,Schere,[],[],[],[],[],[],[],,,,,,,,,,,,,,,,,,,2,2023-12-06_12h58.44.437,watkins1,2023.2.3,99.76584964944801,47,2023-12-06 12h58.52.285158 +0000,
,,,,,,,,,,,,,,,,,,,9,0,9,0,,,,,649.2979882000946,,,,,,,,,,,,,,,,Hose,41.4110885001719,,,,,,,,,,,,37.705925199901685,None,,,,,,,,,,,,,freeRecallSub,2,,,,,,,,,,,,,,,,,,,,,,,,,,,,,,,,,,,,,649.2875695999246,649.2979882000946,649.2979882000946,690.7189452000894,return,41.4110885001719,None,Hose,[],[],[],[],[],[],[],,,,,,,,,,,,,,,,,,,2,2023-12-06_12h58.44.437,watkins1,2023.2.3,99.76584964944801,47,2023-12-06 12h58.52.285158 +0000,
,,,,,,,,,,,,,,,,,,,10,0,10,0,,,,,690.730882300064,,,,,,,,,,,,,,,,Uhr,5.322092199930921,,,,,,,,,,,,3.445853800047189,None,,,,,,,,,,,,,freeRecallSub,2,,,,,,,,,,,,,,,,,,,,,,,,,,,,,,,,,,,,,690.7202039000113,690.730882300064,690.730882300064,696.053814599989,return,5.322092199930921,None,Uhr,[],[],[],[],[],[],[],,,,,,,,,,,,,,,,,,,2,2023-12-06_12h58.44.437,watkins1,2023.2.3,99.76584964944801,47,2023-12-06 12h58.52.285158 +0000,
,,,,,,,,,,,,,,,,,,,11,0,11,0,,,,,696.0661454999354,,,,,,,,,,,,,,,,,[],,,,,,,,,,,,None,None,,,,,,,,,,,,,freeRecallSub,2,,,,,,,,,,,,,,,,,,,,,,,,,,,,,,,,,,,,,696.0550792999566,696.0661454999354,696.0661454999354,705.6971662000287,None,,,,[0.5064814814814815],[-0.4111111111111111],[1],[0],[0],[9.637260900111869],"['button_continue', 'continue_text']",,,,,,,,,,,,,,,,,,,2,2023-12-06_12h58.44.437,watkins1,2023.2.3,99.76584964944801,47,2023-12-06 12h58.52.285158 +0000,
,,,,,,,,,,,,,,,,,,,,,,,,,,,,,,,,,,,,,,,,,,,,,,,,,,,,,,,,,,,,,,,,,,,,,,,2,,,,,,,,,,,,,,,,,,,,,,,,,,,,,,,,,,,,,,,,,,,,,,,,,,,,,,,,,,,,,,,,,,,,,,2,2023-12-06_12h58.44.437,watkins1,2023.2.3,99.76584964944801,47,2023-12-06 12h58.52.285158 +0000,
,,,,,,,,,,,,,,,,,,,,,,,0,0,0,0,720.2000247000251,,,,,,,,,,,,730.034114500042,730.5330475000665,,,,9.820855299942195,,,,,,,,,,,,None,None,,,,,,,,,,Tasse,,,cuedRecallAdj,2,,,,,,,,,,,,,,,,,,,,,0,,,,,,,,,,,,,,,,,,,,,,,,,,,,,,,720.1908545999322,720.2000247000251,720.2000247000251,730.030994300032,schick,return,9.820855299942195,None,730.0313939999323,730.0406631999649,730.0406631999649,730.0339677999727,,None,,,,,2,2023-12-06_12h58.44.437,watkins1,2023.2.3,99.76584964944801,47,2023-12-06 12h58.52.285158 +0000,
,,,,,,,,,,,,,,,,,,,,,,,1,0,1,0,730.5429205999244,,,,,,,,,,,,736.7826231000945,737.2718505999073,,,,6.230234999908134,,,,,,,,,,,,None,None,,,,,,,,,,Hammer,,,cuedRecallAdj,2,,,,,,,,,,,,,,,,,,,,,0,,,,,,,,,,,,,,,,,,,,,,,,,,,,,,,730.5332871999126,730.5429205999244,730.5429205999244,736.7803406999446,,return,6.230234999908134,None,736.7806082998868,736.7898480999283,736.7898480999283,736.7825207998976,,None,,,,,2,2023-12-06_12h58.44.437,watkins1,2023.2.3,99.76584964944801,47,2023-12-06 12h58.52.285158 +0000,
,,,,,,,,,,,,,,,,,,,,,,,2,0,2,0,737.281799599994,,,,,,,,,,,,742.2259140999522,742.7240341000725,,,,4.939133299980313,,,,,,,,,,,,None,None,,,,,,,,,,Würfel,,,cuedRecallAdj,2,,,,,,,,,,,,,,,,,,,,,0,,,,,,,,,,,,,,,,,,,,,,,,,,,,,,,737.2720989000518,737.281799599994,737.281799599994,742.2225879998878,glänzend,return,4.939133299980313,None,742.2228564999532,742.2321307999082,742.2321307999082,742.225811699871,,None,,,,,2,2023-12-06_12h58.44.437,watkins1,2023.2.3,99.76584964944801,47,2023-12-06 12h58.52.285158 +0000,
,,,,,,,,,,,,,,,,,,,,,,,3,0,3,0,742.7340013000648,,,,,,,,,,,,745.5592427998781,746.0577316000126,,,,2.814940999960527,,,,,,,,,,,,None,None,,,,,,,,,,Kette,,,cuedRecallAdj,2,,,,,,,,,,,,,,,,,,,,,0,,,,,,,,,,,,,,,,,,,,,,,,,,,,,,,742.7242823000997,742.7340013000648,742.7340013000648,745.5561237998772,breit,return,2.814940999960527,None,745.5563938000705,745.5656556000467,745.5656556000467,745.559139699908,,None,,,,,2,2023-12-06_12h58.44.437,watkins1,2023.2.3,99.76584964944801,47,2023-12-06 12h58.52.285158 +0000,
,,,,,,,,,,,,,,,,,,,,,,,4,0,4,0,746.0682806998957,,,,,,,,,,,,760.4796410000417,760.9785487998743,,,,14.400662600062788,,,,,,,,,,,,None,None,,,,,,,,,,Jacke,,,cuedRecallAdj,2,,,,,,,,,,,,,,,,,,,,,0,,,,,,,,,,,,,,,,,,,,,,,,,,,,,,,746.0579713999759,746.0682806998957,746.0682806998957,760.4765910001006,praktisch,return,14.400662600062788,None,760.476856800029,760.4863275999669,760.4863275999669,760.4795373999514,,None,,,,,2,2023-12-06_12h58.44.437,watkins1,2023.2.3,99.76584964944801,47,2023-12-06 12h58.52.285158 +0000,
,,,,,,,,,,,,,,,,,,,,,,,5,0,5,0,760.9884897000156,,,,,,,,,,,,767.608544100076,768.1073680000845,,,,6.616429100045934,,,,,,,,,,,,None,None,,,,,,,,,,Uhr,,,cuedRecallAdj,2,,,,,,,,,,,,,,,,,,,,,0,,,,,,,,,,,,,,,,,,,,,,,,,,,,,,,760.9788023999427,760.9884897000156,760.9884897000156,767.605706699891,hübsch,return,6.616429100045934,None,767.605975399958,767.6152677999344,767.6152677999344,767.6084419998806,,None,,,,,2,2023-12-06_12h58.44.437,watkins1,2023.2.3,99.76584964944801,47,2023-12-06 12h58.52.285158 +0000,
,,,,,,,,,,,,,,,,,,,,,,,6,0,6,0,768.11730849999,,,,,,,,,,,,772.949651800096,773.4390453998931,,,,4.823558900039643,,,,,,,,,,,,None,None,,,,,,,,,,Ring,,,cuedRecallAdj,2,,,,,,,,,,,,,,,,,,,,,0,,,,,,,,,,,,,,,,,,,,,,,,,,,,,,,768.1076142000966,768.11730849999,768.11730849999,772.9475485999137,,return,4.823558900039643,None,772.9478207998909,772.9571006998885,772.9571006998885,772.9495494998991,,None,,,,,2,2023-12-06_12h58.44.437,watkins1,2023.2.3,99.76584964944801,47,2023-12-06 12h58.52.285158 +0000,
,,,,,,,,,,,,,,,,,,,,,,,7,0,7,0,773.4489994000178,,,,,,,,,,,,801.2265814000275,801.7250250000507,,,,27.77184609998949,,,,,,,,,,,,None,None,,,,,,,,,,Schere,,,cuedRecallAdj,2,,,,,,,,,,,,,,,,,,,,,0,,,,,,,,,,,,,,,,,,,,,,,,,,,,,,,773.4392919000238,773.4489994000178,773.4489994000178,801.2235045998823,gepunktet,return,27.77184609998949,None,801.223775899969,801.233106700005,801.233106700005,801.2264783000574,,None,,,,,2,2023-12-06_12h58.44.437,watkins1,2023.2.3,99.76584964944801,47,2023-12-06 12h58.52.285158 +0000,
,,,,,,,,,,,,,,,,,,,,,,,8,0,8,0,801.735018099891,,,,,,,,,,,,803.64551079995,804.1349442999344,,,,1.9018188000191003,,,,,,,,,,,,None,None,,,,,,,,,,Kerze,,,cuedRecallAdj,2,,,,,,,,,,,,,,,,,,,,,0,,,,,,,,,,,,,,,,,,,,,,,,,,,,,,,801.7252708000597,801.735018099891,801.735018099891,803.6432894999161,,return,1.9018188000191003,None,803.6435594998766,803.6527754999697,803.6527754999697,803.6454094999935,,None,,,,,2,2023-12-06_12h58.44.437,watkins1,2023.2.3,99.76584964944801,47,2023-12-06 12h58.52.285158 +0000,
,,,,,,,,,,,,,,,,,,,,,,,9,0,9,0,804.1448963999283,,,,,,,,,,,,806.9296442999039,807.4282956998795,,,,2.7800241999793798,,,,,,,,,,,,None,None,,,,,,,,,,Kamera,,,cuedRecallAdj,2,,,,,,,,,,,,,,,,,,,,,0,,,,,,,,,,,,,,,,,,,,,,,,,,,,,,,804.1351900999434,804.1448963999283,804.1448963999283,806.9266065000556,hohl,return,2.7800241999793798,None,806.9268741998821,806.9361117999069,806.9361117999069,806.929542100057,,None,,,,,2,2023-12-06_12h58.44.437,watkins1,2023.2.3,99.76584964944801,47,2023-12-06 12h58.52.285158 +0000,
,,,,,,,,,,,,,,,,,,,,,,,10,0,10,0,807.4382376999129,,,,,,,,,,,,813.8977190998849,814.3965302000288,,,,6.446659199893475,,,,,,,,,,,,None,None,,,,,,,,,,Blume,,,cuedRecallAdj,2,,,,,,,,,,,,,,,,,,,,,0,,,,,,,,,,,,,,,,,,,,,,,,,,,,,,,807.4285392998718,807.4382376999129,807.4382376999129,813.8947459000628,schön,return,6.446659199893475,None,813.8950135998894,813.9044812000357,813.9044812000357,813.8976161999162,,None,,,,,2,2023-12-06_12h58.44.437,watkins1,2023.2.3,99.76584964944801,47,2023-12-06 12h58.52.285158 +0000,
,,,,,,,,,,,,,,,,,,,,,,,11,0,11,0,814.4064778999891,,,,,,,,,,,,821.0468717999756,821.5455912998877,,,,6.630441500106826,,,,,,,,,,,,None,None,,,,,,,,,,Löffel,,,cuedRecallAdj,2,,,,,,,,,,,,,,,,,,,,,0,,,,,,,,,,,,,,,,,,,,,,,,,,,,,,,814.3967722998932,814.4064778999891,814.4064778999891,821.0439027000684,glatt,return,6.630441500106826,None,821.0441719000228,821.053504700074,821.053504700074,821.04676930001,,None,,,,,2,2023-12-06_12h58.44.437,watkins1,2023.2.3,99.76584964944801,47,2023-12-06 12h58.52.285158 +0000,
,,,,,,,,,,,,,,,,,,,,,,,12,0,12,0,821.5555274998769,,,,,,,,,,,,824.8723752000369,825.3711105000693,,,,3.305382699938491,,,,,,,,,,,,None,None,,,,,,,,,,Trommel,,,cuedRecallAdj,2,,,,,,,,,,,,,,,,,,,,,0,,,,,,,,,,,,,,,,,,,,,,,,,,,,,,,821.5458366998937,821.5555274998769,821.5555274998769,824.869318800047,laut,return,3.305382699938491,None,824.8695823999587,824.8790341999847,824.8790341999847,824.8722735000774,,None,,,,,2,2023-12-06_12h58.44.437,watkins1,2023.2.3,99.76584964944801,47,2023-12-06 12h58.52.285158 +0000,
,,,,,,,,,,,,,,,,,,,,,,,13,0,13,0,825.3810131999198,,,,,,,,,,,,829.1996317999437,829.698397200089,,,,3.807899700012058,,,,,,,,,,,,None,None,,,,,,,,,,Flasche,,,cuedRecallAdj,2,,,,,,,,,,,,,,,,,,,,,0,,,,,,,,,,,,,,,,,,,,,,,,,,,,,,,825.3713628998958,825.3810131999198,825.3810131999198,829.1966496000532,breit,return,3.807899700012058,None,829.1969141999725,829.206338299904,829.206338299904,829.1995302999858,,None,,,,,2,2023-12-06_12h58.44.437,watkins1,2023.2.3,99.76584964944801,47,2023-12-06 12h58.52.285158 +0000,
,,,,,,,,,,,,,,,,,,,,,,,14,0,14,0,829.7084542000666,,,,,,,,,,,,834.2305044000968,834.7291286000982,,,,4.512353800004348,,,,,,,,,,,,None,None,,,,,,,,,,Lampe,,,cuedRecallAdj,2,,,,,,,,,,,,,,,,,,,,,0,,,,,,,,,,,,,,,,,,,,,,,,,,,,,,,829.6986386999488,829.7084542000666,829.7084542000666,834.2274966000114,hell,return,4.512353800004348,None,834.2277688998729,834.237152799964,834.237152799964,834.2304030000232,,None,,,,,2,2023-12-06_12h58.44.437,watkins1,2023.2.3,99.76584964944801,47,2023-12-06 12h58.52.285158 +0000,
,,,,,,,,,,,,,,,,,,,,,,,15,0,15,0,834.7390739000402,,,,,,,,,,,,843.8895858998876,844.3882969000842,,,,9.13785729999654,,,,,,,,,,,,None,None,,,,,,,,,,Schlüssel,,,cuedRecallAdj,2,,,,,,,,,,,,,,,,,,,,,0,,,,,,,,,,,,,,,,,,,,,,,,,,,,,,,834.7293716999702,834.7390739000402,834.7390739000402,843.8864853999112,hässlich,return,9.13785729999654,None,843.8867530000862,843.8961992999539,843.8961992999539,843.8894835999236,,None,,,,,2,2023-12-06_12h58.44.437,watkins1,2023.2.3,99.76584964944801,47,2023-12-06 12h58.52.285158 +0000,
,,,,,,,,,,,,,,,,,,,,,,,16,0,16,0,844.398230599938,,,,,,,,,,,,853.3980992999859,853.8966101000551,,,,8.990570100024343,,,,,,,,,,,,None,None,,,,,,,,,,Stift,,,cuedRecallAdj,2,,,,,,,,,,,,,,,,,,,,,0,,,,,,,,,,,,,,,,,,,,,,,,,,,,,,,844.3885437001009,844.398230599938,844.398230599938,853.3951042999979,klein,return,8.990570100024343,None,853.3953974000178,853.404625599971,853.404625599971,853.3979972999077,,None,,,,,2,2023-12-06_12h58.44.437,watkins1,2023.2.3,99.76584964944801,47,2023-12-06 12h58.52.285158 +0000,
,,,,,,,,,,,,,,,,,,,,,,,17,0,17,0,853.9066150998697,,,,,,,,,,,,859.9145748000592,860.4128111000173,,,,6.002318700077012,,,,,,,,,,,,None,None,,,,,,,,,,Bürste,,,cuedRecallAdj,2,,,,,,,,,,,,,,,,,,,,,0,,,,,,,,,,,,,,,,,,,,,,,,,,,,,,,853.8968531000428,853.9066150998697,853.9066150998697,859.9113863999955,sauber,return,6.002318700077012,None,859.911670200061,859.9209282000083,859.9209282000083,859.9144661999308,,None,,,,,2,2023-12-06_12h58.44.437,watkins1,2023.2.3,99.76584964944801,47,2023-12-06 12h58.52.285158 +0000,
,,,,,,,,,,,,,,,,,,,,,,,18,0,18,0,860.4228574999142,,,,,,,,,,,,865.4263279999141,865.9253604998812,,,,4.997945200186223,,,,,,,,,,,,None,None,,,,,,,,,,Vase,,,cuedRecallAdj,2,,,,,,,,,,,,,,,,,,,,,0,,,,,,,,,,,,,,,,,,,,,,,,,,,,,,,860.4130571000278,860.4228574999142,860.4228574999142,865.4236294000875,gut,return,4.997945200186223,None,865.4238980000373,865.433248499874,865.433248499874,865.426225299947,,None,,,,,2,2023-12-06_12h58.44.437,watkins1,2023.2.3,99.76584964944801,47,2023-12-06 12h58.52.285158 +0000,
,,,,,,,,,,,,,,,,,,,,,,,19,0,19,0,865.9352682000026,,,,,,,,,,,,869.6642332000192,870.1628310999367,,,,3.717573400121182,,,,,,,,,,,,None,None,,,,,,,,,,Socke,,,cuedRecallAdj,2,,,,,,,,,,,,,,,,,,,,,0,,,,,,,,,,,,,,,,,,,,,,,,,,,,,,,865.9256040998735,865.9352682000026,865.9352682000026,869.6610578000546,kratzig,return,3.717573400121182,None,869.6613247999921,869.6707893998828,869.6707893998828,869.6641311000567,,None,,,,,2,2023-12-06_12h58.44.437,watkins1,2023.2.3,99.76584964944801,47,2023-12-06 12h58.52.285158 +0000,
,,,,,,,,,,,,,,,,,,,,,,,20,0,20,0,870.1727873999625,,,,,,,,,,,,887.3847185000777,887.8741778999101,,,,17.200064999982715,,,,,,,,,,,,None,None,,,,,,,,,,Hut,,,cuedRecallAdj,2,,,,,,,,,,,,,,,,,,,,,0,,,,,,,,,,,,,,,,,,,,,,,,,,,,,,,870.1630774999503,870.1727873999625,870.1727873999625,887.3824936999008,,return,17.200064999982715,None,887.3827619999647,887.3922182999086,887.3922182999086,887.3846152999904,,None,,,,,2,2023-12-06_12h58.44.437,watkins1,2023.2.3,99.76584964944801,47,2023-12-06 12h58.52.285158 +0000,
,,,,,,,,,,,,,,,,,,,,,,,21,0,21,0,887.8841502000578,,,,,,,,,,,,893.3296014000662,893.8282928999979,,,,5.4405678999610245,,,,,,,,,,,,None,None,,,,,,,,,,Rucksack,,,cuedRecallAdj,2,,,,,,,,,,,,,,,,,,,,,0,,,,,,,,,,,,,,,,,,,,,,,,,,,,,,,887.8744165000971,887.8841502000578,887.8841502000578,893.3263769999612,kaputt,return,5.4405678999610245,None,893.3266443999019,893.3358859999571,893.3358859999571,893.3294955000747,,None,,,,,2,2023-12-06_12h58.44.437,watkins1,2023.2.3,99.76584964944801,47,2023-12-06 12h58.52.285158 +0000,
,,,,,,,,,,,,,,,,,,,,,,,22,0,22,0,893.8381906999275,,,,,,,,,,,,900.3882895000279,900.8868515000213,,,,6.542545199859887,,,,,,,,,,,,None,None,,,,,,,,,,Fahrrad,,,cuedRecallAdj,2,,,,,,,,,,,,,,,,,,,,,0,,,,,,,,,,,,,,,,,,,,,,,,,,,,,,,893.8285441999324,893.8381906999275,893.8381906999275,900.3852202000562,groß,return,6.542545199859887,None,900.3854863999877,900.3947314999532,900.3947314999532,900.3881862000562,,None,,,,,2,2023-12-06_12h58.44.437,watkins1,2023.2.3,99.76584964944801,47,2023-12-06 12h58.52.285158 +0000,
,,,,,,,,,,,,,,,,,,,,,,,23,0,23,0,900.8968527999241,,,,,,,,,,,,904.7749747999478,905.2645179000683,,,,3.867964700097218,,,,,,,,,,,,None,None,,,,,,,,,,Tasche,,,cuedRecallAdj,2,,,,,,,,,,,,,,,,,,,,,0,,,,,,,,,,,,,,,,,,,,,,,,,,,,,,,900.8870900000911,900.8968527999241,900.8968527999241,904.7727063999046,,return,3.867964700097218,None,904.7729809000157,904.7824776999187,904.7824776999187,904.7748690999579,,None,,,,,2,2023-12-06_12h58.44.437,watkins1,2023.2.3,99.76584964944801,47,2023-12-06 12h58.52.285158 +0000,
,,,,,,,,,,,,,,,,,,,,,,,24,0,24,0,905.2744457998779,,,,,,,,,,,,910.9821997999679,911.4809383000247,,,,5.698380299843848,,,,,,,,,,,,None,None,,,,,,,,,,Brille,,,cuedRecallAdj,2,,,,,,,,,,,,,,,,,,,,,0,,,,,,,,,,,,,,,,,,,,,,,,,,,,,,,905.2647667999845,905.2744457998779,905.2744457998779,910.9793249999639,rund,return,5.698380299843848,None,910.9795951000415,910.9888462000526,910.9888462000526,910.9820973998867,,None,,,,,2,2023-12-06_12h58.44.437,watkins1,2023.2.3,99.76584964944801,47,2023-12-06 12h58.52.285158 +0000,
,,,,,,,,,,,,,,,,,,,,,,,25,0,25,0,911.4909785999916,,,,,,,,,,,,917.0770658999681,917.5757931999397,,,,5.57775150006637,,,,,,,,,,,,None,None,,,,,,,,,,Geige,,,cuedRecallAdj,2,,,,,,,,,,,,,,,,,,,,,0,,,,,,,,,,,,,,,,,,,,,,,,,,,,,,,911.4812384999823,911.4909785999916,911.4909785999916,917.0741711000446,kurz,return,5.57775150006637,None,917.074441799894,917.083717700094,917.083717700094,917.0769593000878,,None,,,,,2,2023-12-06_12h58.44.437,watkins1,2023.2.3,99.76584964944801,47,2023-12-06 12h58.52.285158 +0000,
,,,,,,,,,,,,,,,,,,,,,,,26,0,26,0,917.5857430999167,,,,,,,,,,,,929.9902746998705,930.4796134000644,,,,12.395166700007394,,,,,,,,,,,,None,None,,,,,,,,,,Buch,,,cuedRecallAdj,2,,,,,,,,,,,,,,,,,,,,,0,,,,,,,,,,,,,,,,,,,,,,,,,,,,,,,917.5760393000674,917.5857430999167,917.5857430999167,929.9881631999742,,return,12.395166700007394,None,929.9884325999301,929.9976742998697,929.9976742998697,929.990172999911,,None,,,,,2,2023-12-06_12h58.44.437,watkins1,2023.2.3,99.76584964944801,47,2023-12-06 12h58.52.285158 +0000,
,,,,,,,,,,,,,,,,,,,,,,,27,0,27,0,930.4895774000324,,,,,,,,,,,,931.8776465000119,932.36733249994,,,,1.3790923000779003,,,,,,,,,,,,None,None,,,,,,,,,,Telefon,,,cuedRecallAdj,2,,,,,,,,,,,,,,,,,,,,,0,,,,,,,,,,,,,,,,,,,,,,,,,,,,,,,930.4798572000582,930.4895774000324,930.4895774000324,931.8756967000663,,return,1.3790923000779003,None,931.8759645998944,931.8852420998737,931.8852420998737,931.877542299917,,None,,,,,2,2023-12-06_12h58.44.437,watkins1,2023.2.3,99.76584964944801,47,2023-12-06 12h58.52.285158 +0000,
,,,,,,,,,,,,,,,,,,,,,,,28,0,28,0,932.3772847999353,,,,,,,,,,,,935.4925901000388,935.9820000000764,,,,3.107519800076261,,,,,,,,,,,,None,None,,,,,,,,,,Kiste,,,cuedRecallAdj,2,,,,,,,,,,,,,,,,,,,,,0,,,,,,,,,,,,,,,,,,,,,,,,,,,,,,,932.3675758999307,932.3772847999353,932.3772847999353,935.4905087000225,,return,3.107519800076261,None,935.490778400097,935.4999857000075,935.4999857000075,935.4924882000778,,None,,,,,2,2023-12-06_12h58.44.437,watkins1,2023.2.3,99.76584964944801,47,2023-12-06 12h58.52.285158 +0000,
,,,,,,,,,,,,,,,,,,,,,,,29,0,29,0,935.9919668999501,,,,,,,,,,,,944.4198654000647,944.9182807998732,,,,8.420771799981594,,,,,,,,,,,,None,None,,,,,,,,,,Eimer,,,cuedRecallAdj,2,,,,,,,,,,,,,,,,,,,,,0,,,,,,,,,,,,,,,,,,,,,,,,,,,,,,,935.9822450999636,935.9919668999501,935.9919668999501,944.4167253000196,biegsam,return,8.420771799981594,None,944.4169920999557,944.4263824999798,944.4263824999798,944.4197619000915,,None,,,,,2,2023-12-06_12h58.44.437,watkins1,2023.2.3,99.76584964944801,47,2023-12-06 12h58.52.285158 +0000,
,,,,,,,,,,,,,,,,,,,,,,,,,,,,,,,,,,,,,,,,,,,,,,,,,,,,,,,,,,,,,,,,,,,,,,,2,,,,,,,,,,,,,,,,,,,,,,,,,,,,,,,,,,,,,,,,,,,,,,,,,,,,,,,,,,,,,,,,,,944.9348873000126,q,2551.0272085999604,None,2,2023-12-06_12h58.44.437,watkins1,2023.2.3,99.76584964944801,47,2023-12-06 12h58.52.285158 +0000,
