Equation,CorrectResponse,Correctbutton,trials_7.thisRepN,trials_7.thisTrialN,trials_7.thisN,trials_7.thisIndex,trials.thisRepN,trials.thisTrialN,trials.thisN,trials.thisIndex,trials_3.thisRepN,trials_3.thisTrialN,trials_3.thisN,trials_3.thisIndex,trials_2.thisRepN,trials_2.thisTrialN,trials_2.thisN,trials_2.thisIndex,trials_4.thisRepN,trials_4.thisTrialN,trials_4.thisN,trials_4.thisIndex,trials_5.thisRepN,trials_5.thisTrialN,trials_5.thisN,trials_5.thisIndex,thisRow.t,notes,code_marius.started,code_marius.stopped,welcome.started,welcome.stopped,instruction_study.started,instruction_study.stopped,fixationcross.started,fixationcross.stopped,blanc.started,blanc.stopped,study_control_probe.started,study_control_probe.stopped,responseKey,responseTime,scale_answer_2.keys,study_control_probe_2.started,study_control_probe_2.stopped,scale_answer_3.keys,scale_answer_3.rt,scale_answer_3.duration,blanc_2.started,blanc_2.stopped,test_attr_probe.started,test_attr_probe.stopped,recalled_attr,firstKeyTime,secondWordTime,blanc_3.started,blanc_3.stopped,test_sub_probe.started,test_sub_probe.stopped,recalled_sub,instruction_probe_end.started,instruction_probe_end.stopped,study.started,study.stopped,substantive,adjective,wordpair,task,condition,liste_sub_phase1,liste_adj_phase1,scale_answer.keys,scale_answer.rt,scale_answer.duration,code_defineWordsInit.started,code_defineWordsInit.stopped,liste_sub_phase2,study_control.started,study_control.stopped,scale_answer_4.keys,restudy_same.started,restudy_same.stopped,scale_answer_5.keys,restudy_different.started,restudy_different.stopped,scale_answer_6.keys,scale_answer_6.rt,scale_answer_6.duration,test_attr.started,test_attr.stopped,test_sub.started,test_sub.stopped,scale_answer_4.rt,scale_answer_4.duration,distractortask.started,equation_text.started,distractortask.stopped,mouse_answer.x,mouse_answer.y,mouse_answer.leftButton,mouse_answer.midButton,mouse_answer.rightButton,mouse_answer.time,mouse_answer.clicked_name,feedback_distractortask.started,feedback_distractortask.stopped,free_recall.started,text_enter.started,key_resp.started,free_recall.stopped,key_resp.keys,key_resp.rt,key_resp.duration,free_recalled_sub,mouse_continue.x,mouse_continue.y,mouse_continue.leftButton,mouse_continue.midButton,mouse_continue.rightButton,mouse_continue.time,mouse_continue.clicked_name,cued_recall.started,text_enter_2.started,correct,key_continue.started,cued_recall.stopped,recalled_attr1,key_continue.keys,key_continue.rt,key_continue.duration,cued_recall_2.started,text_enter_3.started,key_continue_2.started,cued_recall_2.stopped,recalled_attr2,key_continue_2.keys,key_continue_2.rt,key_continue_2.duration,key_resp_8.started,key_resp_8.keys,key_resp_8.rt,key_resp_8.duration,condition,date,expName,psychopyVersion,frameRate,participant,expStart,
,,,,,,,,,,,,,,,,,,,,,,,,,,,,,0.12766769994050264,0.12774500017985702,0.12775320000946522,9.173080600332469,,,,,,,,,,,,,,,,,,,,,,,,,,,,,,,,,,,,,1,,,,,,,,,,,,,,,,,,,,,,,,,,,,,,,,,,,,,,,,,,,,,,,,,,,,,,,,,,,,,,,,,,,,,,,,,,1,2024-01-10_11h38.24.033,watkins1,2023.2.3,99.79960263794364,80,2024-01-10 11h38.36.985877 +0000,
,,,,,,,,,,,,,,,,,,,,,,,,,,,,,,,,,9.173135200049728,27.237238200381398,,,,,,,,,,,,,,,,,,,,,,,,,,,,,,,,,,,1,,,,,,,,,,,,,,,,,,,,,,,,,,,,,,,,,,,,,,,,,,,,,,,,,,,,,,,,,,,,,,,,,,,,,,,,,,1,2024-01-10_11h38.24.033,watkins1,2023.2.3,99.79960263794364,80,2024-01-10 11h38.36.985877 +0000,
,,,0,0,0,0,,,,,,,,,,,,,,,,,,,,,28.251000500284135,,,,,,,,27.237254800274968,28.241091000381857,34.74042070005089,35.23191450024024,28.73362580034882,34.74023100035265,3,1.9839100004173815,None,35.231928599998355,41.2354574999772,3,1.9839100004173815,None,41.23578430013731,41.2358095003292,41.23581670038402,41.23591800034046,,None,None,41.236085900105536,41.236106800381094,41.236113500315696,41.23619040008634,,,,,,,,,,1,,,,,,,,,,,,,,,,,,,,,,,,,,,,,,,,,,,,,,,,,,,,,,,,,,,,,,,,,,,,,,,,,,,,,,,,,,1,2024-01-10_11h38.24.033,watkins1,2023.2.3,99.79960263794364,80,2024-01-10 11h38.36.985877 +0000,
,,,,,,,,,,,,,,,,,,,,,,,,,,,,,,,,,,,,,,,,,,,,,,,,,,,,,,,,,,,,,41.23630749993026,44.680019200313836,,,,,,,1,,,,,,,,,,,,,,,,,,,,,,,,,,,,,,,,,,,,,,,,,,,,,,,,,,,,,,,,,,,,,,,,,,,,,,,,,,1,2024-01-10_11h38.24.033,watkins1,2023.2.3,99.79960263794364,80,2024-01-10 11h38.36.985877 +0000,
,,,,,,,0,0,0,0,,,,,,,,,,,,,,,,,45.69375830003992,,,,,,,,44.68003860022873,45.68383160000667,45.68435460003093,46.17582690017298,,,3,2.615661600138992,,,,,,,,,,,,,,,,,,,,,46.175840199925005,52.18024180037901,Hut,sauber,"['Hut', 'sauber']",control,1,"['Hut', 'Fahrrad', 'Stift', 'Uhr', 'Würfel', 'Telefon', 'Lampe', 'Buch', 'Socke', 'Kette', 'Tasche', 'Löffel', 'Hammer', 'Vase', 'Geige', 'Eimer', 'Flasche', 'Schlüssel', 'Bürste', 'Kamera', 'Blume', 'Jacke']",['sauber'],3,2.615661600138992,None,,,,,,,,,,,,,,,,,,,,,,,,,,,,,,,,,,,,,,,,,,,,,,,,,,,,,,,,,,,,,,,,,,,,,1,2024-01-10_11h38.24.033,watkins1,2023.2.3,99.79960263794364,80,2024-01-10 11h38.36.985877 +0000,
,,,,,,,1,0,1,0,,,,,,,,,,,,,,,,,52.18968670023605,,,,,,,,,,52.18086120020598,52.67207450000569,,,1,1.8206762000918388,,,,,,,,,,,,,,,,,,,,,52.67208700021729,58.68224010011181,Fahrrad,glatt,"['Fahrrad', 'glatt']",restudy_diff,1,"['Hut', 'Fahrrad', 'Stift', 'Uhr', 'Würfel', 'Telefon', 'Lampe', 'Buch', 'Socke', 'Kette', 'Tasche', 'Löffel', 'Hammer', 'Vase', 'Geige', 'Eimer', 'Flasche', 'Schlüssel', 'Bürste', 'Kamera', 'Blume', 'Jacke']","['sauber', 'glatt']",1,1.8206762000918388,None,,,,,,,,,,,,,,,,,,,,,,,,,,,,,,,,,,,,,,,,,,,,,,,,,,,,,,,,,,,,,,,,,,,,,1,2024-01-10_11h38.24.033,watkins1,2023.2.3,99.79960263794364,80,2024-01-10 11h38.36.985877 +0000,
,,,,,,,2,0,2,0,,,,,,,,,,,,,,,,,58.6917135999538,,,,,,,,,,58.682736800052226,59.174064700026065,,,2,1.33517299965024,,,,,,,,,,,,,,,,,,,,,59.174077400006354,65.17771790036932,Stift,biegsam,"['Stift', 'biegsam']",restudy_diff,1,"['Hut', 'Fahrrad', 'Stift', 'Uhr', 'Würfel', 'Telefon', 'Lampe', 'Buch', 'Socke', 'Kette', 'Tasche', 'Löffel', 'Hammer', 'Vase', 'Geige', 'Eimer', 'Flasche', 'Schlüssel', 'Bürste', 'Kamera', 'Blume', 'Jacke']","['sauber', 'glatt', 'biegsam']",2,1.33517299965024,None,,,,,,,,,,,,,,,,,,,,,,,,,,,,,,,,,,,,,,,,,,,,,,,,,,,,,,,,,,,,,,,,,,,,,1,2024-01-10_11h38.24.033,watkins1,2023.2.3,99.79960263794364,80,2024-01-10 11h38.36.985877 +0000,
,,,,,,,3,0,3,0,,,,,,,,,,,,,,,,,65.18711190018803,,,,,,,,,,65.17821240006015,65.66920420015231,,,1,1.3839189000427723,,,,,,,,,,,,,,,,,,,,,65.66921650012955,71.67058819998056,Uhr,sportlich,"['Uhr', 'sportlich']",control,1,"['Hut', 'Fahrrad', 'Stift', 'Uhr', 'Würfel', 'Telefon', 'Lampe', 'Buch', 'Socke', 'Kette', 'Tasche', 'Löffel', 'Hammer', 'Vase', 'Geige', 'Eimer', 'Flasche', 'Schlüssel', 'Bürste', 'Kamera', 'Blume', 'Jacke']","['sauber', 'glatt', 'biegsam', 'sportlich']",1,1.3839189000427723,None,,,,,,,,,,,,,,,,,,,,,,,,,,,,,,,,,,,,,,,,,,,,,,,,,,,,,,,,,,,,,,,,,,,,,1,2024-01-10_11h38.24.033,watkins1,2023.2.3,99.79960263794364,80,2024-01-10 11h38.36.985877 +0000,
,,,,,,,4,0,4,0,,,,,,,,,,,,,,,,,71.67997180018574,,,,,,,,,,71.67115690000355,72.16213700035587,,,1,1.7069401000626385,,,,,,,,,,,,,,,,,,,,,72.16214850032702,78.16965010017157,Würfel,krumm,"['Würfel', 'krumm']",restudy_diff,1,"['Hut', 'Fahrrad', 'Stift', 'Uhr', 'Würfel', 'Telefon', 'Lampe', 'Buch', 'Socke', 'Kette', 'Tasche', 'Löffel', 'Hammer', 'Vase', 'Geige', 'Eimer', 'Flasche', 'Schlüssel', 'Bürste', 'Kamera', 'Blume', 'Jacke']","['sauber', 'glatt', 'biegsam', 'sportlich', 'krumm']",1,1.7069401000626385,None,,,,,,,,,,,,,,,,,,,,,,,,,,,,,,,,,,,,,,,,,,,,,,,,,,,,,,,,,,,,,,,,,,,,,1,2024-01-10_11h38.24.033,watkins1,2023.2.3,99.79960263794364,80,2024-01-10 11h38.36.985877 +0000,
,,,,,,,5,0,5,0,,,,,,,,,,,,,,,,,78.17927370034158,,,,,,,,,,78.17017860012129,78.66188580030575,,,2,1.7647277996875346,,,,,,,,,,,,,,,,,,,,,78.66190010029823,84.66563400020823,Telefon,lang,"['Telefon', 'lang']",control,1,"['Hut', 'Fahrrad', 'Stift', 'Uhr', 'Würfel', 'Telefon', 'Lampe', 'Buch', 'Socke', 'Kette', 'Tasche', 'Löffel', 'Hammer', 'Vase', 'Geige', 'Eimer', 'Flasche', 'Schlüssel', 'Bürste', 'Kamera', 'Blume', 'Jacke']","['sauber', 'glatt', 'biegsam', 'sportlich', 'krumm', 'lang']",2,1.7647277996875346,None,,,,,,,,,,,,,,,,,,,,,,,,,,,,,,,,,,,,,,,,,,,,,,,,,,,,,,,,,,,,,,,,,,,,,1,2024-01-10_11h38.24.033,watkins1,2023.2.3,99.79960263794364,80,2024-01-10 11h38.36.985877 +0000,
,,,,,,,6,0,6,0,,,,,,,,,,,,,,,,,84.67485760012642,,,,,,,,,,84.66622789995745,85.15718000009656,,,3,2.080410700291395,,,,,,,,,,,,,,,,,,,,,85.1571931000799,91.16287450026721,Lampe,neu,"['Lampe', 'neu']",restudy_diff,1,"['Hut', 'Fahrrad', 'Stift', 'Uhr', 'Würfel', 'Telefon', 'Lampe', 'Buch', 'Socke', 'Kette', 'Tasche', 'Löffel', 'Hammer', 'Vase', 'Geige', 'Eimer', 'Flasche', 'Schlüssel', 'Bürste', 'Kamera', 'Blume', 'Jacke']","['sauber', 'glatt', 'biegsam', 'sportlich', 'krumm', 'lang', 'neu']",3,2.080410700291395,None,,,,,,,,,,,,,,,,,,,,,,,,,,,,,,,,,,,,,,,,,,,,,,,,,,,,,,,,,,,,,,,,,,,,,1,2024-01-10_11h38.24.033,watkins1,2023.2.3,99.79960263794364,80,2024-01-10 11h38.36.985877 +0000,
,,,,,,,7,0,7,0,,,,,,,,,,,,,,,,,91.17199860000983,,,,,,,,,,91.16353229992092,91.65452089998871,,,3,2.1353207998909056,,,,,,,,,,,,,,,,,,,,,91.65453330008313,97.66357400035486,Buch,praktisch,"['Buch', 'praktisch']",control,1,"['Hut', 'Fahrrad', 'Stift', 'Uhr', 'Würfel', 'Telefon', 'Lampe', 'Buch', 'Socke', 'Kette', 'Tasche', 'Löffel', 'Hammer', 'Vase', 'Geige', 'Eimer', 'Flasche', 'Schlüssel', 'Bürste', 'Kamera', 'Blume', 'Jacke']","['sauber', 'glatt', 'biegsam', 'sportlich', 'krumm', 'lang', 'neu', 'praktisch']",3,2.1353207998909056,None,,,,,,,,,,,,,,,,,,,,,,,,,,,,,,,,,,,,,,,,,,,,,,,,,,,,,,,,,,,,,,,,,,,,,1,2024-01-10_11h38.24.033,watkins1,2023.2.3,99.79960263794364,80,2024-01-10 11h38.36.985877 +0000,
,,,,,,,8,0,8,0,,,,,,,,,,,,,,,,,97.672289500013,,,,,,,,,,97.66410219995305,98.15490930015221,,,2,2.283228199928999,,,,,,,,,,,,,,,,,,,,,98.1549226003699,104.15675200009719,Socke,klobig,"['Socke', 'klobig']",restudy_diff,1,"['Hut', 'Fahrrad', 'Stift', 'Uhr', 'Würfel', 'Telefon', 'Lampe', 'Buch', 'Socke', 'Kette', 'Tasche', 'Löffel', 'Hammer', 'Vase', 'Geige', 'Eimer', 'Flasche', 'Schlüssel', 'Bürste', 'Kamera', 'Blume', 'Jacke']","['sauber', 'glatt', 'biegsam', 'sportlich', 'krumm', 'lang', 'neu', 'praktisch', 'klobig']",2,2.283228199928999,None,,,,,,,,,,,,,,,,,,,,,,,,,,,,,,,,,,,,,,,,,,,,,,,,,,,,,,,,,,,,,,,,,,,,,1,2024-01-10_11h38.24.033,watkins1,2023.2.3,99.79960263794364,80,2024-01-10 11h38.36.985877 +0000,
,,,,,,,9,0,9,0,,,,,,,,,,,,,,,,,104.16626980016008,,,,,,,,,,104.15723860030994,104.64859810005873,,,3,2.637010599952191,,,,,,,,,,,,,,,,,,,,,104.64861030038446,110.65535680018365,Kette,elegant,"['Kette', 'elegant']",restudy_diff,1,"['Hut', 'Fahrrad', 'Stift', 'Uhr', 'Würfel', 'Telefon', 'Lampe', 'Buch', 'Socke', 'Kette', 'Tasche', 'Löffel', 'Hammer', 'Vase', 'Geige', 'Eimer', 'Flasche', 'Schlüssel', 'Bürste', 'Kamera', 'Blume', 'Jacke']","['sauber', 'glatt', 'biegsam', 'sportlich', 'krumm', 'lang', 'neu', 'praktisch', 'klobig', 'elegant']",3,2.637010599952191,None,,,,,,,,,,,,,,,,,,,,,,,,,,,,,,,,,,,,,,,,,,,,,,,,,,,,,,,,,,,,,,,,,,,,,1,2024-01-10_11h38.24.033,watkins1,2023.2.3,99.79960263794364,80,2024-01-10 11h38.36.985877 +0000,
,,,,,,,10,0,10,0,,,,,,,,,,,,,,,,,110.66470920015126,,,,,,,,,,110.65585179999471,111.14692850038409,,,2,1.9959261999465525,,,,,,,,,,,,,,,,,,,,,111.14694100013003,117.14786410005763,Tasche,flauschig,"['Tasche', 'flauschig']",control,1,"['Hut', 'Fahrrad', 'Stift', 'Uhr', 'Würfel', 'Telefon', 'Lampe', 'Buch', 'Socke', 'Kette', 'Tasche', 'Löffel', 'Hammer', 'Vase', 'Geige', 'Eimer', 'Flasche', 'Schlüssel', 'Bürste', 'Kamera', 'Blume', 'Jacke']","['sauber', 'glatt', 'biegsam', 'sportlich', 'krumm', 'lang', 'neu', 'praktisch', 'klobig', 'elegant', 'flauschig']",2,1.9959261999465525,None,,,,,,,,,,,,,,,,,,,,,,,,,,,,,,,,,,,,,,,,,,,,,,,,,,,,,,,,,,,,,,,,,,,,,1,2024-01-10_11h38.24.033,watkins1,2023.2.3,99.79960263794364,80,2024-01-10 11h38.36.985877 +0000,
,,,,,,,11,0,11,0,,,,,,,,,,,,,,,,,117.15726750018075,,,,,,,,,,117.14835719997063,117.63960799993947,,,2,2.229449999984354,,,,,,,,,,,,,,,,,,,,,117.63962050015107,123.64974329993129,Löffel,gestreift,"['Löffel', 'gestreift']",restudy_diff,1,"['Hut', 'Fahrrad', 'Stift', 'Uhr', 'Würfel', 'Telefon', 'Lampe', 'Buch', 'Socke', 'Kette', 'Tasche', 'Löffel', 'Hammer', 'Vase', 'Geige', 'Eimer', 'Flasche', 'Schlüssel', 'Bürste', 'Kamera', 'Blume', 'Jacke']","['sauber', 'glatt', 'biegsam', 'sportlich', 'krumm', 'lang', 'neu', 'praktisch', 'klobig', 'elegant', 'flauschig', 'gestreift']",2,2.229449999984354,None,,,,,,,,,,,,,,,,,,,,,,,,,,,,,,,,,,,,,,,,,,,,,,,,,,,,,,,,,,,,,,,,,,,,,1,2024-01-10_11h38.24.033,watkins1,2023.2.3,99.79960263794364,80,2024-01-10 11h38.36.985877 +0000,
,,,,,,,12,0,12,0,,,,,,,,,,,,,,,,,123.65915440022945,,,,,,,,,,123.65025119995698,124.14150810008869,,,2,2.1825216999277472,,,,,,,,,,,,,,,,,,,,,124.14152010018006,130.14958330010995,Hammer,glänzend,"['Hammer', 'glänzend']",control,1,"['Hut', 'Fahrrad', 'Stift', 'Uhr', 'Würfel', 'Telefon', 'Lampe', 'Buch', 'Socke', 'Kette', 'Tasche', 'Löffel', 'Hammer', 'Vase', 'Geige', 'Eimer', 'Flasche', 'Schlüssel', 'Bürste', 'Kamera', 'Blume', 'Jacke']","['sauber', 'glatt', 'biegsam', 'sportlich', 'krumm', 'lang', 'neu', 'praktisch', 'klobig', 'elegant', 'flauschig', 'gestreift', 'glänzend']",2,2.1825216999277472,None,,,,,,,,,,,,,,,,,,,,,,,,,,,,,,,,,,,,,,,,,,,,,,,,,,,,,,,,,,,,,,,,,,,,,1,2024-01-10_11h38.24.033,watkins1,2023.2.3,99.79960263794364,80,2024-01-10 11h38.36.985877 +0000,
,,,,,,,13,0,13,0,,,,,,,,,,,,,,,,,130.15873660007492,,,,,,,,,,130.15016680024564,130.64121970022097,,,3,3.3792884997092187,,,,,,,,,,,,,,,,,,,,,130.64123179996386,136.64884100016207,Vase,winzig,"['Vase', 'winzig']",restudy_diff,1,"['Hut', 'Fahrrad', 'Stift', 'Uhr', 'Würfel', 'Telefon', 'Lampe', 'Buch', 'Socke', 'Kette', 'Tasche', 'Löffel', 'Hammer', 'Vase', 'Geige', 'Eimer', 'Flasche', 'Schlüssel', 'Bürste', 'Kamera', 'Blume', 'Jacke']","['sauber', 'glatt', 'biegsam', 'sportlich', 'krumm', 'lang', 'neu', 'praktisch', 'klobig', 'elegant', 'flauschig', 'gestreift', 'glänzend', 'winzig']",3,3.3792884997092187,None,,,,,,,,,,,,,,,,,,,,,,,,,,,,,,,,,,,,,,,,,,,,,,,,,,,,,,,,,,,,,,,,,,,,,1,2024-01-10_11h38.24.033,watkins1,2023.2.3,99.79960263794364,80,2024-01-10 11h38.36.985877 +0000,
,,,,,,,14,0,14,0,,,,,,,,,,,,,,,,,136.65830120025203,,,,,,,,,,136.64932950027287,137.14052399992943,,,1,1.713266100268811,,,,,,,,,,,,,,,,,,,,,137.14053710037842,143.15057480009273,Geige,kratzig,"['Geige', 'kratzig']",restudy_diff,1,"['Hut', 'Fahrrad', 'Stift', 'Uhr', 'Würfel', 'Telefon', 'Lampe', 'Buch', 'Socke', 'Kette', 'Tasche', 'Löffel', 'Hammer', 'Vase', 'Geige', 'Eimer', 'Flasche', 'Schlüssel', 'Bürste', 'Kamera', 'Blume', 'Jacke']","['sauber', 'glatt', 'biegsam', 'sportlich', 'krumm', 'lang', 'neu', 'praktisch', 'klobig', 'elegant', 'flauschig', 'gestreift', 'glänzend', 'winzig', 'kratzig']",1,1.713266100268811,None,,,,,,,,,,,,,,,,,,,,,,,,,,,,,,,,,,,,,,,,,,,,,,,,,,,,,,,,,,,,,,,,,,,,,1,2024-01-10_11h38.24.033,watkins1,2023.2.3,99.79960263794364,80,2024-01-10 11h38.36.985877 +0000,
,,,,,,,15,0,15,0,,,,,,,,,,,,,,,,,143.15996720036492,,,,,,,,,,143.15108830016106,143.64459850033745,,,1,2.233090799767524,,,,,,,,,,,,,,,,,,,,,143.64461060008034,149.64691090025008,Eimer,zart,"['Eimer', 'zart']",restudy_diff,1,"['Hut', 'Fahrrad', 'Stift', 'Uhr', 'Würfel', 'Telefon', 'Lampe', 'Buch', 'Socke', 'Kette', 'Tasche', 'Löffel', 'Hammer', 'Vase', 'Geige', 'Eimer', 'Flasche', 'Schlüssel', 'Bürste', 'Kamera', 'Blume', 'Jacke']","['sauber', 'glatt', 'biegsam', 'sportlich', 'krumm', 'lang', 'neu', 'praktisch', 'klobig', 'elegant', 'flauschig', 'gestreift', 'glänzend', 'winzig', 'kratzig', 'zart']",1,2.233090799767524,None,,,,,,,,,,,,,,,,,,,,,,,,,,,,,,,,,,,,,,,,,,,,,,,,,,,,,,,,,,,,,,,,,,,,,1,2024-01-10_11h38.24.033,watkins1,2023.2.3,99.79960263794364,80,2024-01-10 11h38.36.985877 +0000,
,,,,,,,16,0,16,0,,,,,,,,,,,,,,,,,149.65626389998943,,,,,,,,,,149.64740579994395,150.13867130037397,,,1,1.7877994002774358,,,,,,,,,,,,,,,,,,,,,150.13868350023404,156.14523100014776,Flasche,niedlich,"['Flasche', 'niedlich']",restudy_diff,1,"['Hut', 'Fahrrad', 'Stift', 'Uhr', 'Würfel', 'Telefon', 'Lampe', 'Buch', 'Socke', 'Kette', 'Tasche', 'Löffel', 'Hammer', 'Vase', 'Geige', 'Eimer', 'Flasche', 'Schlüssel', 'Bürste', 'Kamera', 'Blume', 'Jacke']","['sauber', 'glatt', 'biegsam', 'sportlich', 'krumm', 'lang', 'neu', 'praktisch', 'klobig', 'elegant', 'flauschig', 'gestreift', 'glänzend', 'winzig', 'kratzig', 'zart', 'niedlich']",1,1.7877994002774358,None,,,,,,,,,,,,,,,,,,,,,,,,,,,,,,,,,,,,,,,,,,,,,,,,,,,,,,,,,,,,,,,,,,,,,1,2024-01-10_11h38.24.033,watkins1,2023.2.3,99.79960263794364,80,2024-01-10 11h38.36.985877 +0000,
,,,,,,,17,0,17,0,,,,,,,,,,,,,,,,,156.15381660033017,,,,,,,,,,156.14586280006915,156.63795340014622,,,2,1.4401330999098718,,,,,,,,,,,,,,,,,,,,,156.63796550035477,162.6391139002517,Schlüssel,nachhaltig,"['Schlüssel', 'nachhaltig']",restudy_diff,1,"['Hut', 'Fahrrad', 'Stift', 'Uhr', 'Würfel', 'Telefon', 'Lampe', 'Buch', 'Socke', 'Kette', 'Tasche', 'Löffel', 'Hammer', 'Vase', 'Geige', 'Eimer', 'Flasche', 'Schlüssel', 'Bürste', 'Kamera', 'Blume', 'Jacke']","['sauber', 'glatt', 'biegsam', 'sportlich', 'krumm', 'lang', 'neu', 'praktisch', 'klobig', 'elegant', 'flauschig', 'gestreift', 'glänzend', 'winzig', 'kratzig', 'zart', 'niedlich', 'nachhaltig']",2,1.4401330999098718,None,,,,,,,,,,,,,,,,,,,,,,,,,,,,,,,,,,,,,,,,,,,,,,,,,,,,,,,,,,,,,,,,,,,,,1,2024-01-10_11h38.24.033,watkins1,2023.2.3,99.79960263794364,80,2024-01-10 11h38.36.985877 +0000,
,,,,,,,18,0,18,0,,,,,,,,,,,,,,,,,162.64806490018964,,,,,,,,,,162.63967650011182,163.130843100138,,,2,1.427594400011003,,,,,,,,,,,,,,,,,,,,,163.1308602001518,169.13480930030346,Bürste,matt,"['Bürste', 'matt']",restudy_diff,1,"['Hut', 'Fahrrad', 'Stift', 'Uhr', 'Würfel', 'Telefon', 'Lampe', 'Buch', 'Socke', 'Kette', 'Tasche', 'Löffel', 'Hammer', 'Vase', 'Geige', 'Eimer', 'Flasche', 'Schlüssel', 'Bürste', 'Kamera', 'Blume', 'Jacke']","['sauber', 'glatt', 'biegsam', 'sportlich', 'krumm', 'lang', 'neu', 'praktisch', 'klobig', 'elegant', 'flauschig', 'gestreift', 'glänzend', 'winzig', 'kratzig', 'zart', 'niedlich', 'nachhaltig', 'matt']",2,1.427594400011003,None,,,,,,,,,,,,,,,,,,,,,,,,,,,,,,,,,,,,,,,,,,,,,,,,,,,,,,,,,,,,,,,,,,,,,1,2024-01-10_11h38.24.033,watkins1,2023.2.3,99.79960263794364,80,2024-01-10 11h38.36.985877 +0000,
,,,,,,,19,0,19,0,,,,,,,,,,,,,,,,,169.14408720005304,,,,,,,,,,169.13530560024083,169.62631740001962,,,3,1.3568326001986861,,,,,,,,,,,,,,,,,,,,,169.62632870022207,175.63293440034613,Kamera,kaputt,"['Kamera', 'kaputt']",control,1,"['Hut', 'Fahrrad', 'Stift', 'Uhr', 'Würfel', 'Telefon', 'Lampe', 'Buch', 'Socke', 'Kette', 'Tasche', 'Löffel', 'Hammer', 'Vase', 'Geige', 'Eimer', 'Flasche', 'Schlüssel', 'Bürste', 'Kamera', 'Blume', 'Jacke']","['sauber', 'glatt', 'biegsam', 'sportlich', 'krumm', 'lang', 'neu', 'praktisch', 'klobig', 'elegant', 'flauschig', 'gestreift', 'glänzend', 'winzig', 'kratzig', 'zart', 'niedlich', 'nachhaltig', 'matt', 'kaputt']",3,1.3568326001986861,None,,,,,,,,,,,,,,,,,,,,,,,,,,,,,,,,,,,,,,,,,,,,,,,,,,,,,,,,,,,,,,,,,,,,,1,2024-01-10_11h38.24.033,watkins1,2023.2.3,99.79960263794364,80,2024-01-10 11h38.36.985877 +0000,
,,,,,,,20,0,20,0,,,,,,,,,,,,,,,,,175.6424132999964,,,,,,,,,,175.63342730002478,176.12467550020665,,,3,1.617963599972427,,,,,,,,,,,,,,,,,,,,,176.12468679994345,182.13403129996732,Blume,hässlich,"['Blume', 'hässlich']",restudy_diff,1,"['Hut', 'Fahrrad', 'Stift', 'Uhr', 'Würfel', 'Telefon', 'Lampe', 'Buch', 'Socke', 'Kette', 'Tasche', 'Löffel', 'Hammer', 'Vase', 'Geige', 'Eimer', 'Flasche', 'Schlüssel', 'Bürste', 'Kamera', 'Blume', 'Jacke']","['sauber', 'glatt', 'biegsam', 'sportlich', 'krumm', 'lang', 'neu', 'praktisch', 'klobig', 'elegant', 'flauschig', 'gestreift', 'glänzend', 'winzig', 'kratzig', 'zart', 'niedlich', 'nachhaltig', 'matt', 'kaputt', 'hässlich']",3,1.617963599972427,None,,,,,,,,,,,,,,,,,,,,,,,,,,,,,,,,,,,,,,,,,,,,,,,,,,,,,,,,,,,,,,,,,,,,,1,2024-01-10_11h38.24.033,watkins1,2023.2.3,99.79960263794364,80,2024-01-10 11h38.36.985877 +0000,
,,,,,,,21,0,21,0,,,,,,,,,,,,,,,,,182.14343920024112,,,,,,,,,,182.13454500027,182.62569350004196,,,3,2.1967501998879015,,,,,,,,,,,,,,,,,,,,,182.62570480024442,188.62933150026947,Jacke,schlicht,"['Jacke', 'schlicht']",restudy_diff,1,"['Hut', 'Fahrrad', 'Stift', 'Uhr', 'Würfel', 'Telefon', 'Lampe', 'Buch', 'Socke', 'Kette', 'Tasche', 'Löffel', 'Hammer', 'Vase', 'Geige', 'Eimer', 'Flasche', 'Schlüssel', 'Bürste', 'Kamera', 'Blume', 'Jacke']","['sauber', 'glatt', 'biegsam', 'sportlich', 'krumm', 'lang', 'neu', 'praktisch', 'klobig', 'elegant', 'flauschig', 'gestreift', 'glänzend', 'winzig', 'kratzig', 'zart', 'niedlich', 'nachhaltig', 'matt', 'kaputt', 'hässlich', 'schlicht']",3,2.1967501998879015,None,,,,,,,,,,,,,,,,,,,,,,,,,,,,,,,,,,,,,,,,,,,,,,,,,,,,,,,,,,,,,,,,,,,,,1,2024-01-10_11h38.24.033,watkins1,2023.2.3,99.79960263794364,80,2024-01-10 11h38.36.985877 +0000,
,,,,,,,,,,,0,0,0,0,,,,,,,,,,,,,188.63874660013244,,,,,,,,,,188.63027860037982,189.12105830013752,,,2,1.2612761002965271,,,,,,,,,,,,None,None,,,,,,,,,,Stift,kalt,"['Stift', 'kalt']",restudy_diff,1,,,,,,188.630195800215,188.63025110028684,"['Stift', 'Fahrrad', 'Würfel', 'Kerze', 'Eimer', 'Kiste', 'Schere', 'Lampe', 'Brille', 'Trommel', 'Geige', 'Bürste', 'Löffel', 'Tasse', 'Socke', 'Rucksack', 'Vase', 'Blume', 'Kette', 'Jacke', 'Ring', 'Schlüssel', 'Flasche']",189.12107170000672,189.1242259000428,None,189.1244216002524,189.1271871002391,None,189.12737810006365,195.13775580003858,2,1.2612761002965271,None,195.13818300003186,195.13962730020285,195.13964139996096,195.14078980032355,,,,,,,,,,,,,,,,,,,,,,,,,,,,,,,,,,,,,,,,,,,,,,,,,,,1,2024-01-10_11h38.24.033,watkins1,2023.2.3,99.79960263794364,80,2024-01-10 11h38.36.985877 +0000,
,,,,,,,,,,,1,0,1,0,,,,,,,,,,,,,195.14706220012158,,,,,,,,,,195.14109080005437,195.63942359993234,,,3,1.3848906001076102,,,,,,,,,,,,None,None,,,,,,,,,,Fahrrad,schmutzig,"['Fahrrad', 'schmutzig']",restudy_diff,1,,,,,,195.14101759996265,195.1410631001927,"['Stift', 'Fahrrad', 'Würfel', 'Kerze', 'Eimer', 'Kiste', 'Schere', 'Lampe', 'Brille', 'Trommel', 'Geige', 'Bürste', 'Löffel', 'Tasse', 'Socke', 'Rucksack', 'Vase', 'Blume', 'Kette', 'Jacke', 'Ring', 'Schlüssel', 'Flasche']",195.63943760003895,195.64238300034776,None,195.64251090027392,195.6450550002046,None,195.64516900014132,201.6522691003047,3,1.3848906001076102,None,201.6525791999884,201.65407330030575,201.65408740006387,201.6555143003352,,,,,,,,,,,,,,,,,,,,,,,,,,,,,,,,,,,,,,,,,,,,,,,,,,,1,2024-01-10_11h38.24.033,watkins1,2023.2.3,99.79960263794364,80,2024-01-10 11h38.36.985877 +0000,
,,,,,,,,,,,2,0,2,0,,,,,,,,,,,,,201.66163610015064,,,,,,,,,,201.65582390036434,202.15432500001043,,,1,1.6114737996831536,,,,,,,,,,,,None,None,,,,,,,,,,Würfel,strahlend,"['Würfel', 'strahlend']",restudy_diff,1,,,,,,201.65574930002913,201.65579560026526,"['Stift', 'Fahrrad', 'Würfel', 'Kerze', 'Eimer', 'Kiste', 'Schere', 'Lampe', 'Brille', 'Trommel', 'Geige', 'Bürste', 'Löffel', 'Tasse', 'Socke', 'Rucksack', 'Vase', 'Blume', 'Kette', 'Jacke', 'Ring', 'Schlüssel', 'Flasche']",202.15433809999377,202.15815490018576,None,202.15831300010905,202.16225900035352,None,202.16238859994337,208.1707770000212,1,1.6114737996831536,None,208.1710594999604,208.17243040027097,208.17244260013103,208.1737032001838,,,,,,,,,,,,,,,,,,,,,,,,,,,,,,,,,,,,,,,,,,,,,,,,,,,1,2024-01-10_11h38.24.033,watkins1,2023.2.3,99.79960263794364,80,2024-01-10 11h38.36.985877 +0000,
,,,,,,,,,,,3,0,3,0,,,,,,,,,,,,,208.18023180030286,,,,,,,,,,208.17397500015795,208.67269350029528,,,[],[],,,,,,,,,,,,None,None,,,,,,,,,,Kerze,blass,"['Kerze', 'blass']",control,1,,,,,,208.17390950024128,208.1739480001852,"['Stift', 'Fahrrad', 'Würfel', 'Kerze', 'Eimer', 'Kiste', 'Schere', 'Lampe', 'Brille', 'Trommel', 'Geige', 'Bürste', 'Löffel', 'Tasse', 'Socke', 'Rucksack', 'Vase', 'Blume', 'Kette', 'Jacke', 'Ring', 'Schlüssel', 'Flasche']",208.67270520003513,214.67694230005145,1,214.67730710003525,214.68017410021275,None,214.68029480008408,214.6831589001231,None,,,214.68328140024096,214.68460920033976,214.6846683002077,214.68642379995435,3.6217369996011257,None,,,,,,,,,,,,,,,,,,,,,,,,,,,,,,,,,,,,,,,,,,,,,,,,,1,2024-01-10_11h38.24.033,watkins1,2023.2.3,99.79960263794364,80,2024-01-10 11h38.36.985877 +0000,
,,,,,,,,,,,4,0,4,0,,,,,,,,,,,,,214.69038060028106,,,,,,,,,,214.68678470002487,215.18548650015146,,,3,1.4962046002037823,,,,,,,,,,,,None,None,,,,,,,,,,Eimer,groß,"['Eimer', 'groß']",restudy_diff,1,,,,,,214.68668929999694,214.68675300013274,"['Stift', 'Fahrrad', 'Würfel', 'Kerze', 'Eimer', 'Kiste', 'Schere', 'Lampe', 'Brille', 'Trommel', 'Geige', 'Bürste', 'Löffel', 'Tasse', 'Socke', 'Rucksack', 'Vase', 'Blume', 'Kette', 'Jacke', 'Ring', 'Schlüssel', 'Flasche']",215.18549980036914,215.1873161001131,None,215.18745080009103,215.18902639998123,None,215.18917240016162,221.19716930016875,3,1.4962046002037823,None,221.19747190037742,221.1988610001281,221.19887319998816,221.19997430033982,,,,,,,,,,,,,,,,,,,,,,,,,,,,,,,,,,,,,,,,,,,,,,,,,,,1,2024-01-10_11h38.24.033,watkins1,2023.2.3,99.79960263794364,80,2024-01-10 11h38.36.985877 +0000,
,,,,,,,,,,,5,0,5,0,,,,,,,,,,,,,221.20658530015498,,,,,,,,,,221.20025580003858,221.69876509997994,,,[],[],,,,,,,,,,,,None,None,,,,,,,,,,Kiste,hübsch,"['Kiste', 'hübsch']",control,1,,,,,,221.20018610032275,221.20022709993646,"['Stift', 'Fahrrad', 'Würfel', 'Kerze', 'Eimer', 'Kiste', 'Schere', 'Lampe', 'Brille', 'Trommel', 'Geige', 'Bürste', 'Löffel', 'Tasse', 'Socke', 'Rucksack', 'Vase', 'Blume', 'Kette', 'Jacke', 'Ring', 'Schlüssel', 'Flasche']",221.69877779996023,227.70516850007698,3,227.7054457999766,227.708175400272,None,227.7082809000276,227.71082790009677,None,,,227.71093090018257,227.7121104001999,227.71212200028822,227.71329719992355,1.5400799997150898,None,,,,,,,,,,,,,,,,,,,,,,,,,,,,,,,,,,,,,,,,,,,,,,,,,1,2024-01-10_11h38.24.033,watkins1,2023.2.3,99.79960263794364,80,2024-01-10 11h38.36.985877 +0000,
,,,,,,,,,,,6,0,6,0,,,,,,,,,,,,,227.71690310025588,,,,,,,,,,227.71356460032985,228.2102101999335,,,[],[],,,,,,,,,,,,None,None,,,,,,,,,,Schere,rustikal,"['Schere', 'rustikal']",control,1,,,,,,227.7135021002032,227.7135406001471,"['Stift', 'Fahrrad', 'Würfel', 'Kerze', 'Eimer', 'Kiste', 'Schere', 'Lampe', 'Brille', 'Trommel', 'Geige', 'Bürste', 'Löffel', 'Tasse', 'Socke', 'Rucksack', 'Vase', 'Blume', 'Kette', 'Jacke', 'Ring', 'Schlüssel', 'Flasche']",228.210223400034,234.21812330000103,1,234.2184496000409,234.22145149996504,None,234.22157640010118,234.2243367000483,None,,,234.22445420036092,234.22574050026014,234.2257543001324,234.22704230016097,3.9239467000588775,None,,,,,,,,,,,,,,,,,,,,,,,,,,,,,,,,,,,,,,,,,,,,,,,,,1,2024-01-10_11h38.24.033,watkins1,2023.2.3,99.79960263794364,80,2024-01-10 11h38.36.985877 +0000,
,,,,,,,,,,,7,0,7,0,,,,,,,,,,,,,234.23086660029367,,,,,,,,,,234.22735260007903,234.7254066001624,,,2,2.2702783001586795,,,,,,,,,,,,None,None,,,,,,,,,,Lampe,hohl,"['Lampe', 'hohl']",restudy_diff,1,,,,,,234.22727070003748,234.22732480010018,"['Stift', 'Fahrrad', 'Würfel', 'Kerze', 'Eimer', 'Kiste', 'Schere', 'Lampe', 'Brille', 'Trommel', 'Geige', 'Bürste', 'Löffel', 'Tasse', 'Socke', 'Rucksack', 'Vase', 'Blume', 'Kette', 'Jacke', 'Ring', 'Schlüssel', 'Flasche']",234.72541870037094,234.72706679999828,None,234.7271897001192,234.72882570000365,None,234.72893240023404,240.73727639997378,2,2.2702783001586795,None,240.73761150008067,240.73929260019213,240.73930780030787,240.74078069999814,,,,,,,,,,,,,,,,,,,,,,,,,,,,,,,,,,,,,,,,,,,,,,,,,,,1,2024-01-10_11h38.24.033,watkins1,2023.2.3,99.79960263794364,80,2024-01-10 11h38.36.985877 +0000,
,,,,,,,,,,,8,0,8,0,,,,,,,,,,,,,240.74652149993926,,,,,,,,,,240.74111200030893,241.23916470026597,,,[],[],,,,,,,,,,,,None,None,,,,,,,,,,Brille,gut,"['Brille', 'gut']",control,1,,,,,,240.74102970026433,240.74107940029353,"['Stift', 'Fahrrad', 'Würfel', 'Kerze', 'Eimer', 'Kiste', 'Schere', 'Lampe', 'Brille', 'Trommel', 'Geige', 'Bürste', 'Löffel', 'Tasse', 'Socke', 'Rucksack', 'Vase', 'Blume', 'Kette', 'Jacke', 'Ring', 'Schlüssel', 'Flasche']",241.239178000018,247.23977890005335,3,247.24006940005347,247.2426797002554,None,247.24280899995938,247.24600440030918,None,,,247.24613950029016,247.2477481001988,247.24776410032064,247.24908770015463,1.743767200037837,None,,,,,,,,,,,,,,,,,,,,,,,,,,,,,,,,,,,,,,,,,,,,,,,,,1,2024-01-10_11h38.24.033,watkins1,2023.2.3,99.79960263794364,80,2024-01-10 11h38.36.985877 +0000,
,,,,,,,,,,,9,0,9,0,,,,,,,,,,,,,247.25292220013216,,,,,,,,,,247.24941980000585,247.74790400033817,,,[],[],,,,,,,,,,,,None,None,,,,,,,,,,Trommel,durchsichtig,"['Trommel', 'durchsichtig']",control,1,,,,,,247.2493362003006,247.24939240003005,"['Stift', 'Fahrrad', 'Würfel', 'Kerze', 'Eimer', 'Kiste', 'Schere', 'Lampe', 'Brille', 'Trommel', 'Geige', 'Bürste', 'Löffel', 'Tasse', 'Socke', 'Rucksack', 'Vase', 'Blume', 'Kette', 'Jacke', 'Ring', 'Schlüssel', 'Flasche']",247.7479171003215,253.75802340032533,3,253.75832309992984,253.76132180029526,None,253.76144210016355,253.7644963003695,None,,,253.7646292001009,253.76610230002552,253.7661187001504,253.76768180029467,2.0824750997126102,None,,,,,,,,,,,,,,,,,,,,,,,,,,,,,,,,,,,,,,,,,,,,,,,,,1,2024-01-10_11h38.24.033,watkins1,2023.2.3,99.79960263794364,80,2024-01-10 11h38.36.985877 +0000,
,,,,,,,,,,,10,0,10,0,,,,,,,,,,,,,253.77162550017238,,,,,,,,,,253.76800810033455,254.26718070032075,,,3,1.2081458000466228,,,,,,,,,,,,None,None,,,,,,,,,,Geige,breit,"['Geige', 'breit']",restudy_diff,1,,,,,,253.76792469993234,253.76798080001026,"['Stift', 'Fahrrad', 'Würfel', 'Kerze', 'Eimer', 'Kiste', 'Schere', 'Lampe', 'Brille', 'Trommel', 'Geige', 'Bürste', 'Löffel', 'Tasse', 'Socke', 'Rucksack', 'Vase', 'Blume', 'Kette', 'Jacke', 'Ring', 'Schlüssel', 'Flasche']",254.26719410018995,254.2689769002609,None,254.2691097999923,254.2706704000011,None,254.27078359993175,260.2768701999448,3,1.2081458000466228,None,260.27728829998523,260.2788626002148,260.27887760009617,260.2802599002607,,,,,,,,,,,,,,,,,,,,,,,,,,,,,,,,,,,,,,,,,,,,,,,,,,,1,2024-01-10_11h38.24.033,watkins1,2023.2.3,99.79960263794364,80,2024-01-10 11h38.36.985877 +0000,
,,,,,,,,,,,11,0,11,0,,,,,,,,,,,,,260.28742990037426,,,,,,,,,,260.28060960024595,260.77087450027466,,,3,1.2210679999552667,,,,,,,,,,,,None,None,,,,,,,,,,Bürste,bunt,"['Bürste', 'bunt']",restudy_diff,1,,,,,,260.2805165001191,260.2805660003796,"['Stift', 'Fahrrad', 'Würfel', 'Kerze', 'Eimer', 'Kiste', 'Schere', 'Lampe', 'Brille', 'Trommel', 'Geige', 'Bürste', 'Löffel', 'Tasse', 'Socke', 'Rucksack', 'Vase', 'Blume', 'Kette', 'Jacke', 'Ring', 'Schlüssel', 'Flasche']",260.7708928002976,260.7741954000667,None,260.7743335003033,260.7772000003606,None,260.7773233000189,266.78365630004555,3,1.2210679999552667,None,266.7839598003775,266.78545860014856,266.7854723003693,266.78702210029587,,,,,,,,,,,,,,,,,,,,,,,,,,,,,,,,,,,,,,,,,,,,,,,,,,,1,2024-01-10_11h38.24.033,watkins1,2023.2.3,99.79960263794364,80,2024-01-10 11h38.36.985877 +0000,
,,,,,,,,,,,12,0,12,0,,,,,,,,,,,,,266.79309409996495,,,,,,,,,,266.7873283000663,267.2856435002759,,,3,2.514837000053376,,,,,,,,,,,,None,None,,,,,,,,,,Löffel,schwer,"['Löffel', 'schwer']",restudy_diff,1,,,,,,266.7872542999685,266.7873006002046,"['Stift', 'Fahrrad', 'Würfel', 'Kerze', 'Eimer', 'Kiste', 'Schere', 'Lampe', 'Brille', 'Trommel', 'Geige', 'Bürste', 'Löffel', 'Tasse', 'Socke', 'Rucksack', 'Vase', 'Blume', 'Kette', 'Jacke', 'Ring', 'Schlüssel', 'Flasche']",267.2856569001451,267.28872269997373,None,267.28887900011614,267.2920090002008,None,267.2921458003111,273.29963780008256,3,2.514837000053376,None,273.29993950016797,273.30136150028557,273.30137509992346,273.30264040036127,,,,,,,,,,,,,,,,,,,,,,,,,,,,,,,,,,,,,,,,,,,,,,,,,,,1,2024-01-10_11h38.24.033,watkins1,2023.2.3,99.79960263794364,80,2024-01-10 11h38.36.985877 +0000,
,,,,,,,,,,,13,0,13,0,,,,,,,,,,,,,273.3089726003818,,,,,,,,,,273.3029430001043,273.8018431002274,,,[],[],,,,,,,,,,,,None,None,,,,,,,,,,Tasse,teuer,"['Tasse', 'teuer']",control,1,,,,,,273.30287120025605,273.30291620036587,"['Stift', 'Fahrrad', 'Würfel', 'Kerze', 'Eimer', 'Kiste', 'Schere', 'Lampe', 'Brille', 'Trommel', 'Geige', 'Bürste', 'Löffel', 'Tasse', 'Socke', 'Rucksack', 'Vase', 'Blume', 'Kette', 'Jacke', 'Ring', 'Schlüssel', 'Flasche']",273.8018565000966,279.8125829999335,3,279.812904600054,279.81581730023026,None,279.8159423000179,279.8185638003051,None,,,279.818679000251,279.8198839002289,279.81989620020613,279.8210758003406,1.3560931999236345,None,,,,,,,,,,,,,,,,,,,,,,,,,,,,,,,,,,,,,,,,,,,,,,,,,1,2024-01-10_11h38.24.033,watkins1,2023.2.3,99.79960263794364,80,2024-01-10 11h38.36.985877 +0000,
,,,,,,,,,,,14,0,14,0,,,,,,,,,,,,,279.82479480002075,,,,,,,,,,279.8213587002829,280.318865200039,,,3,1.2597360997460783,,,,,,,,,,,,None,None,,,,,,,,,,Socke,dunkel,"['Socke', 'dunkel']",restudy_diff,1,,,,,,279.82128940010443,279.8213343000971,"['Stift', 'Fahrrad', 'Würfel', 'Kerze', 'Eimer', 'Kiste', 'Schere', 'Lampe', 'Brille', 'Trommel', 'Geige', 'Bürste', 'Löffel', 'Tasse', 'Socke', 'Rucksack', 'Vase', 'Blume', 'Kette', 'Jacke', 'Ring', 'Schlüssel', 'Flasche']",280.3188787000254,280.32085760030895,None,280.3209902001545,280.32254240009934,None,280.322664400097,286.32541300030425,3,1.2597360997460783,None,286.32570890011266,286.3270380003378,286.3270521000959,286.32825740007684,,,,,,,,,,,,,,,,,,,,,,,,,,,,,,,,,,,,,,,,,,,,,,,,,,,1,2024-01-10_11h38.24.033,watkins1,2023.2.3,99.79960263794364,80,2024-01-10 11h38.36.985877 +0000,
,,,,,,,,,,,15,0,15,0,,,,,,,,,,,,,286.33482470037416,,,,,,,,,,286.32853140030056,286.8270789999515,,,[],[],,,,,,,,,,,,None,None,,,,,,,,,,Rucksack,nass,"['Rucksack', 'nass']",control,1,,,,,,286.3284668000415,286.32850550021976,"['Stift', 'Fahrrad', 'Würfel', 'Kerze', 'Eimer', 'Kiste', 'Schere', 'Lampe', 'Brille', 'Trommel', 'Geige', 'Bürste', 'Löffel', 'Tasse', 'Socke', 'Rucksack', 'Vase', 'Blume', 'Kette', 'Jacke', 'Ring', 'Schlüssel', 'Flasche']",286.8270920999348,292.83076680032536,3,292.83107760036364,292.833976900205,None,292.8340887003578,292.8366209003143,None,,,292.83672909997404,292.83805450005457,292.8380667003803,292.83915550028905,1.0353260999545455,None,,,,,,,,,,,,,,,,,,,,,,,,,,,,,,,,,,,,,,,,,,,,,,,,,1,2024-01-10_11h38.24.033,watkins1,2023.2.3,99.79960263794364,80,2024-01-10 11h38.36.985877 +0000,
,,,,,,,,,,,16,0,16,0,,,,,,,,,,,,,292.8428692999296,,,,,,,,,,292.8394357999787,293.3368367003277,,,1,2.090929599944502,,,,,,,,,,,,None,None,,,,,,,,,,Vase,flach,"['Vase', 'flach']",restudy_diff,1,,,,,,292.8393672001548,292.83941130014136,"['Stift', 'Fahrrad', 'Würfel', 'Kerze', 'Eimer', 'Kiste', 'Schere', 'Lampe', 'Brille', 'Trommel', 'Geige', 'Bürste', 'Löffel', 'Tasse', 'Socke', 'Rucksack', 'Vase', 'Blume', 'Kette', 'Jacke', 'Ring', 'Schlüssel', 'Flasche']",293.3368494999595,293.3383567002602,None,293.33847870025784,293.33990940032527,None,293.3400153000839,299.34416630025953,1,2.090929599944502,None,299.3444663002156,299.345859200228,299.3458735002205,299.3471459001303,,,,,,,,,,,,,,,,,,,,,,,,,,,,,,,,,,,,,,,,,,,,,,,,,,,1,2024-01-10_11h38.24.033,watkins1,2023.2.3,99.79960263794364,80,2024-01-10 11h38.36.985877 +0000,
,,,,,,,,,,,17,0,17,0,,,,,,,,,,,,,299.35357500007376,,,,,,,,,,299.347448900342,299.8462134003639,,,1,4.921792800072581,,,,,,,,,,,,None,None,,,,,,,,,,Blume,gepunktet,"['Blume', 'gepunktet']",restudy_diff,1,,,,,,299.34737580036744,299.34742180025205,"['Stift', 'Fahrrad', 'Würfel', 'Kerze', 'Eimer', 'Kiste', 'Schere', 'Lampe', 'Brille', 'Trommel', 'Geige', 'Bürste', 'Löffel', 'Tasse', 'Socke', 'Rucksack', 'Vase', 'Blume', 'Kette', 'Jacke', 'Ring', 'Schlüssel', 'Flasche']",299.84622650034726,299.84919170010835,None,299.84932520007715,299.85202840017155,None,299.8521555000916,305.8588751000352,1,4.921792800072581,None,305.85919070011005,305.86061190022156,305.86062559997663,305.86198130017146,,,,,,,,,,,,,,,,,,,,,,,,,,,,,,,,,,,,,,,,,,,,,,,,,,,1,2024-01-10_11h38.24.033,watkins1,2023.2.3,99.79960263794364,80,2024-01-10 11h38.36.985877 +0000,
,,,,,,,,,,,18,0,18,0,,,,,,,,,,,,,305.86809469992295,,,,,,,,,,305.86229060031474,306.36067630024627,,,3,2.2234378000721335,,,,,,,,,,,,None,None,,,,,,,,,,Kette,dick,"['Kette', 'dick']",restudy_diff,1,,,,,,305.86221650009975,305.86226310022175,"['Stift', 'Fahrrad', 'Würfel', 'Kerze', 'Eimer', 'Kiste', 'Schere', 'Lampe', 'Brille', 'Trommel', 'Geige', 'Bürste', 'Löffel', 'Tasse', 'Socke', 'Rucksack', 'Vase', 'Blume', 'Kette', 'Jacke', 'Ring', 'Schlüssel', 'Flasche']",306.36068910034373,306.36372360028327,None,306.36384900007397,306.3666469003074,None,306.3667749003507,312.3757998999208,3,2.2234378000721335,None,312.3760911002755,312.37748209992424,312.377496200148,312.37874240009114,,,,,,,,,,,,,,,,,,,,,,,,,,,,,,,,,,,,,,,,,,,,,,,,,,,1,2024-01-10_11h38.24.033,watkins1,2023.2.3,99.79960263794364,80,2024-01-10 11h38.36.985877 +0000,
,,,,,,,,,,,19,0,19,0,,,,,,,,,,,,,312.3851892002858,,,,,,,,,,312.37902930006385,312.87750479998067,,,3,1.3155352999456227,,,,,,,,,,,,None,None,,,,,,,,,,Jacke,kurz,"['Jacke', 'kurz']",restudy_diff,1,,,,,,312.37896110024303,312.37900299998,"['Stift', 'Fahrrad', 'Würfel', 'Kerze', 'Eimer', 'Kiste', 'Schere', 'Lampe', 'Brille', 'Trommel', 'Geige', 'Bürste', 'Löffel', 'Tasse', 'Socke', 'Rucksack', 'Vase', 'Blume', 'Kette', 'Jacke', 'Ring', 'Schlüssel', 'Flasche']",312.8775172000751,312.880415300373,None,312.88054080028087,312.8831310002133,None,312.883251900319,318.884654100053,3,1.3155352999456227,None,318.8849516999908,318.8863114002161,318.88632440008223,318.88749180035666,,,,,,,,,,,,,,,,,,,,,,,,,,,,,,,,,,,,,,,,,,,,,,,,,,,1,2024-01-10_11h38.24.033,watkins1,2023.2.3,99.79960263794364,80,2024-01-10 11h38.36.985877 +0000,
,,,,,,,,,,,20,0,20,0,,,,,,,,,,,,,318.8939812001772,,,,,,,,,,318.8877851003781,319.3860613000579,,,[],[],,,,,,,,,,,,None,None,,,,,,,,,,Ring,robust,"['Ring', 'robust']",control,1,,,,,,318.88771510031074,318.88775889994577,"['Stift', 'Fahrrad', 'Würfel', 'Kerze', 'Eimer', 'Kiste', 'Schere', 'Lampe', 'Brille', 'Trommel', 'Geige', 'Bürste', 'Löffel', 'Tasse', 'Socke', 'Rucksack', 'Vase', 'Blume', 'Kette', 'Jacke', 'Ring', 'Schlüssel', 'Flasche']",319.38607370015234,325.39164560008794,2,325.39202050026506,325.3946358002722,None,325.3947578999214,325.39731510030106,None,,,325.3974332003854,325.3985692001879,325.39858150016516,325.3997764000669,3.5247812001034617,None,,,,,,,,,,,,,,,,,,,,,,,,,,,,,,,,,,,,,,,,,,,,,,,,,1,2024-01-10_11h38.24.033,watkins1,2023.2.3,99.79960263794364,80,2024-01-10 11h38.36.985877 +0000,
,,,,,,,,,,,21,0,21,0,,,,,,,,,,,,,325.403520999942,,,,,,,,,,325.40006080036983,325.8971927999519,,,2,4.282319099642336,,,,,,,,,,,,None,None,,,,,,,,,,Schlüssel,lustig,"['Schlüssel', 'lustig']",restudy_diff,1,,,,,,325.39999209996313,325.40003579994664,"['Stift', 'Fahrrad', 'Würfel', 'Kerze', 'Eimer', 'Kiste', 'Schere', 'Lampe', 'Brille', 'Trommel', 'Geige', 'Bürste', 'Löffel', 'Tasse', 'Socke', 'Rucksack', 'Vase', 'Blume', 'Kette', 'Jacke', 'Ring', 'Schlüssel', 'Flasche']",325.89720429992303,325.8988928999752,None,325.89901440031826,325.90066790021956,None,325.9008026001975,331.90697100013494,2,4.282319099642336,None,331.9072648999281,331.9088723999448,331.90888480003923,331.9101074002683,,,,,,,,,,,,,,,,,,,,,,,,,,,,,,,,,,,,,,,,,,,,,,,,,,,1,2024-01-10_11h38.24.033,watkins1,2023.2.3,99.79960263794364,80,2024-01-10 11h38.36.985877 +0000,
,,,,,,,,,,,22,0,22,0,,,,,,,,,,,,,331.916337300092,,,,,,,,,,331.9103827001527,332.408864099998,,,1,1.6551558999344707,,,,,,,,,,,,None,None,,,,,,,,,,Flasche,verspielt,"['Flasche', 'verspielt']",restudy_diff,1,,,,,,331.9103159001097,331.910356500186,"['Stift', 'Fahrrad', 'Würfel', 'Kerze', 'Eimer', 'Kiste', 'Schere', 'Lampe', 'Brille', 'Trommel', 'Geige', 'Bürste', 'Löffel', 'Tasse', 'Socke', 'Rucksack', 'Vase', 'Blume', 'Kette', 'Jacke', 'Ring', 'Schlüssel', 'Flasche']",332.4088782002218,332.4118693000637,None,332.4119981001131,332.4147340003401,None,332.41485089994967,338.4171955003403,1,1.6551558999344707,None,338.4174812999554,338.4191109002568,338.4191256002523,338.42061559995636,,,,,,,,,,,,,,,,,,,,,,,,,,,,,,,,,,,,,,,,,,,,,,,,,,,1,2024-01-10_11h38.24.033,watkins1,2023.2.3,99.79960263794364,80,2024-01-10 11h38.36.985877 +0000,
,,,,,,,,,,,,,,,,,,,,,,,,,,,,,,,,,,,,,,,,,,,,,,,,,,,,,,,,,,,,,,,,,,,,,1,,,,,,,,,,,,,,,,,,,,,,,,,,,,,,,,,,,,,,,,,,,,,,,,,,,,,,,,,,,,,,,,,,,,,,,,,,1,2024-01-10_11h38.24.033,watkins1,2023.2.3,99.79960263794364,80,2024-01-10 11h38.36.985877 +0000,
(80 : 10) + 9 = 17 ,Correct,button_correct,,,,,,,,,,,,,0,0,0,3,,,,,,,,,355.93536570016295,,,,,,,,354.81370220007375,355.81760800024495,,,,,['button_correct'],[5.298128699883819],,,,,,,,,,,,,,,,,,,,,,,,,,distractorTask,1,,,,,,,,,,,,,,,,,,,,,,,,,,355.91381590021774,355.93536570016295,361.22679250035435,[0.36574074074074076],[-0.39814814814814814],[1],[0],[0],[5.298128699883819],['button_correct'],361.2275098003447,362.2308249003254,,,,,,,,,,,,,,,,,,,,,,,,,,,,,,,,,,,,,1,2024-01-10_11h38.24.033,watkins1,2023.2.3,99.79960263794364,80,2024-01-10 11h38.36.985877 +0000,
(7 x 6) + 9 = 48 ,Incorrect,button_incorrect,,,,,,,,,,,,,0,1,1,9,,,,,,,,,362.24071680009365,,,,,,,,,,,,,,['button_incorrect'],[5.6513522998429835],,,,,,,,,,,,,,,,,,,,,,,,,,distractorTask,1,,,,,,,,,,,,,,,,,,,,,,,,,,362.2310689003207,362.24071680009365,367.8862143000588,[-0.3351851851851852],[-0.3925925925925926],[1],[0],[0],[5.6513522998429835],['button_incorrect'],367.8866219003685,368.8901917003095,,,,,,,,,,,,,,,,,,,,,,,,,,,,,,,,,,,,,1,2024-01-10_11h38.24.033,watkins1,2023.2.3,99.79960263794364,80,2024-01-10 11h38.36.985877 +0000,
(28 : 7) - 3 = 1 ,Correct,button_correct,,,,,,,,,,,,,0,2,2,0,,,,,,,,,368.90009050024673,,,,,,,,,,,,,,['button_correct'],[3.201952700037509],,,,,,,,,,,,,,,,,,,,,,,,,,distractorTask,1,,,,,,,,,,,,,,,,,,,,,,,,,,368.8904261002317,368.90009050024673,372.0953839002177,[0.33055555555555555],[-0.3962962962962963],[1],[0],[0],[3.201952700037509],['button_correct'],372.0957999001257,373.0992928002961,,,,,,,,,,,,,,,,,,,,,,,,,,,,,,,,,,,,,1,2024-01-10_11h38.24.033,watkins1,2023.2.3,99.79960263794364,80,2024-01-10 11h38.36.985877 +0000,
(9 x 5) - 9 = 36 ,Correct,button_correct,,,,,,,,,,,,,0,3,3,4,,,,,,,,,373.1092334003188,,,,,,,,,,,,,,['button_correct'],[8.917841699905694],,,,,,,,,,,,,,,,,,,,,,,,,,distractorTask,1,,,,,,,,,,,,,,,,,,,,,,,,,,373.09955079993233,373.1092334003188,382.01989710005,[0.3851851851851852],[-0.4111111111111111],[1],[0],[0],[8.917841699905694],['button_correct'],382.0203129001893,383.02402210002765,,,,,,,,,,,,,,,,,,,,,,,,,,,,,,,,,,,,,1,2024-01-10_11h38.24.033,watkins1,2023.2.3,99.79960263794364,80,2024-01-10 11h38.36.985877 +0000,
(4 : 2) + 4 = 6 ,Correct,button_correct,,,,,,,,,,,,,0,4,4,1,,,,,,,,,383.03402400016785,,,,,,,,,,,,,,['button_correct'],[1.9472496001981199],,,,,,,,,,,,,,,,,,,,,,,,,,distractorTask,1,,,,,,,,,,,,,,,,,,,,,,,,,,383.0242353002541,383.03402400016785,384.9732639002614,[0.3388888888888889],[-0.3972222222222222],[1],[0],[0],[1.9472496001981199],['button_correct'],384.97367780003697,385.9772192002274,,,,,,,,,,,,,,,,,,,,,,,,,,,,,,,,,,,,,1,2024-01-10_11h38.24.033,watkins1,2023.2.3,99.79960263794364,80,2024-01-10 11h38.36.985877 +0000,
(54 : 6) - 10 = 0 ,Incorrect,button_incorrect,,,,,,,,,,,,,0,5,5,5,,,,,,,,,385.98734110035,,,,,,,,,,,,,,['button_incorrect'],[7.6833323002792895],,,,,,,,,,,,,,,,,,,,,,,,,,distractorTask,1,,,,,,,,,,,,,,,,,,,,,,,,,,385.9774380000308,385.98734110035,393.6625462002121,[-0.30185185185185187],[-0.3925925925925926],[1],[0],[0],[7.6833323002792895],['button_incorrect'],393.66295070014894,394.6666174000129,,,,,,,,,,,,,,,,,,,,,,,,,,,,,,,,,,,,,1,2024-01-10_11h38.24.033,watkins1,2023.2.3,99.79960263794364,80,2024-01-10 11h38.36.985877 +0000,
(40 : 5) + 8 = 15 ,Incorrect,button_incorrect,,,,,,,,,,,,,0,6,6,7,,,,,,,,,394.676542500034,,,,,,,,,,,,,,['button_incorrect'],[3.704749200027436],,,,,,,,,,,,,,,,,,,,,,,,,,distractorTask,1,,,,,,,,,,,,,,,,,,,,,,,,,,394.6668547000736,394.676542500034,398.3734703003429,[-0.35185185185185186],[-0.40185185185185185],[1],[0],[0],[3.704749200027436],['button_incorrect'],398.3738687001169,399.37752770027146,,,,,,,,,,,,,,,,,,,,,,,,,,,,,,,,,,,,,1,2024-01-10_11h38.24.033,watkins1,2023.2.3,99.79960263794364,80,2024-01-10 11h38.36.985877 +0000,
(25 : 5) + 5 = 9 ,Incorrect,button_incorrect,,,,,,,,,,,,,0,7,7,6,,,,,,,,,399.38763060001656,,,,,,,,,,,,,,['button_incorrect'],[4.076429500244558],,,,,,,,,,,,,,,,,,,,,,,,,,distractorTask,1,,,,,,,,,,,,,,,,,,,,,,,,,,399.37773000029847,399.38763060001656,403.4561294000596,[-0.3685185185185185],[-0.38333333333333336],[1],[0],[0],[4.076429500244558],['button_incorrect'],403.4565467000939,404.4600246003829,,,,,,,,,,,,,,,,,,,,,,,,,,,,,,,,,,,,,1,2024-01-10_11h38.24.033,watkins1,2023.2.3,99.79960263794364,80,2024-01-10 11h38.36.985877 +0000,
(6 x 3) + 10 = 27 ,Incorrect,button_incorrect,,,,,,,,,,,,,0,8,8,8,,,,,,,,,404.4699480999261,,,,,,,,,,,,,,['button_incorrect'],[4.508794700261205],,,,,,,,,,,,,,,,,,,,,,,,,,distractorTask,1,,,,,,,,,,,,,,,,,,,,,,,,,,404.46029049996287,404.4699480999261,408.97105769999325,[-0.3037037037037037],[-0.39166666666666666],[1],[0],[0],[4.508794700261205],['button_incorrect'],408.97156480001286,409.97496920032427,,,,,,,,,,,,,,,,,,,,,,,,,,,,,,,,,,,,,1,2024-01-10_11h38.24.033,watkins1,2023.2.3,99.79960263794364,80,2024-01-10 11h38.36.985877 +0000,
(2 x 5) + 3 = 13 ,Correct,button_correct,,,,,,,,,,,,,0,9,9,2,,,,,,,,,409.98490920010954,,,,,,,,,,,,,,['button_correct'],[3.2236202997155488],,,,,,,,,,,,,,,,,,,,,,,,,,distractorTask,1,,,,,,,,,,,,,,,,,,,,,,,,,,409.97520440025255,409.98490920010954,413.200680100359,[0.37407407407407406],[-0.41388888888888886],[1],[0],[0],[3.2236202997155488],['button_correct'],413.20108930021524,414.20434350008145,,,,,,,,,,,,,,,,,,,,,,,,,,,,,,,,,,,,,1,2024-01-10_11h38.24.033,watkins1,2023.2.3,99.79960263794364,80,2024-01-10 11h38.36.985877 +0000,
,,,,,,,,,,,,,,,,,,,,,,,,,,,,,,,,,,,,,,,,,,,,,,,,,,,,,,,,,,,,,,,,,,,,,1,,,,,,,,,,,,,,,,,,,,,,,,,,,,,,,,,,,,,,,,,,,,,,,,,,,,,,,,,,,,,,,,,,,,,,,,,,1,2024-01-10_11h38.24.033,watkins1,2023.2.3,99.79960263794364,80,2024-01-10 11h38.36.985877 +0000,
,,,,,,,,,,,,,,,,,,,0,0,0,0,,,,,423.3258605003357,,,,,,,,,,,,,,Hund,5.49385099997744,,,,,,,,,,,,3.855608600191772,None,,,,,,,,,,,,,freeRecallSub,1,,,,,,,,,,,,,,,,,,,,,,,,,,,,,,,,,,,,,,423.3180205002427,423.3258605003357,423.3258605003357,428.82083560014144,return,5.49385099997744,None,Hund,"[-0.01574074074074074, -0.016666666666666666]","[0.025925925925925925, 0.06574074074074074]","[1, 1]","[0, 0]","[0, 0]","[1.8762232000008225, 2.2587536997161806]",[],,,,,,,,,,,,,,,,,,,,,,1,2024-01-10_11h38.24.033,watkins1,2023.2.3,99.79960263794364,80,2024-01-10 11h38.36.985877 +0000,
,,,,,,,,,,,,,,,,,,,1,0,1,0,,,,,428.8360983999446,,,,,,,,,,,,,,Vase,4.25573470024392,,,,,,,,,,,,0.9419219000265002,1.9867068002931774,,,,,,,,,,,,,freeRecallSub,1,,,,,,,,,,,,,,,,,,,,,,,,,,,,,,,,,,,,,,428.8228760003112,428.8360983999446,428.8360983999446,433.09700160007924,return,4.25573470024392,None,Vase,[],[],[],[],[],[],[],,,,,,,,,,,,,,,,,,,,,,1,2024-01-10_11h38.24.033,watkins1,2023.2.3,99.79960263794364,80,2024-01-10 11h38.36.985877 +0000,
,,,,,,,,,,,,,,,,,,,2,0,2,0,,,,,433.1076466999948,,,,,,,,,,,,,,Blume,6.096095200162381,,,,,,,,,,,,1.2050708997994661,None,,,,,,,,,,,,,freeRecallSub,1,,,,,,,,,,,,,,,,,,,,,,,,,,,,,,,,,,,,,,433.0982926003635,433.1076466999948,433.1076466999948,439.20558770000935,return,6.096095200162381,None,Blume,[],[],[],[],[],[],[],,,,,,,,,,,,,,,,,,,,,,1,2024-01-10_11h38.24.033,watkins1,2023.2.3,99.79960263794364,80,2024-01-10 11h38.36.985877 +0000,
,,,,,,,,,,,,,,,,,,,3,0,3,0,,,,,439.21793249994516,,,,,,,,,,,,,,Fahrrad,5.265756499953568,,,,,,,,,,,,3.1671536997891963,None,,,,,,,,,,,,,freeRecallSub,1,,,,,,,,,,,,,,,,,,,,,,,,,,,,,,,,,,,,,,439.20695410016924,439.21793249994516,439.21793249994516,444.49383960012347,return,5.265756499953568,None,Fahrrad,[],[],[],[],[],[],[],,,,,,,,,,,,,,,,,,,,,,1,2024-01-10_11h38.24.033,watkins1,2023.2.3,99.79960263794364,80,2024-01-10 11h38.36.985877 +0000,
,,,,,,,,,,,,,,,,,,,4,0,4,0,,,,,444.5059037003666,,,,,,,,,,,,,,Jacke,12.28975629992783,,,,,,,,,,,,9.846289100125432,None,,,,,,,,,,,,,freeRecallSub,1,,,,,,,,,,,,,,,,,,,,,,,,,,,,,,,,,,,,,,444.49521870026365,444.5059037003666,444.5059037003666,456.80296980030835,return,12.28975629992783,None,Jacke,[],[],[],[],[],[],[],,,,,,,,,,,,,,,,,,,,,,1,2024-01-10_11h38.24.033,watkins1,2023.2.3,99.79960263794364,80,2024-01-10 11h38.36.985877 +0000,
,,,,,,,,,,,,,,,,,,,5,0,5,0,,,,,456.8150491002016,,,,,,,,,,,,,,Löffel,11.732658899854869,,,,,,,,,,,,10.047629499807954,None,,,,,,,,,,,,,freeRecallSub,1,,,,,,,,,,,,,,,,,,,,,,,,,,,,,,,,,,,,,,456.80436810012907,456.8150491002016,456.8150491002016,468.54933470021933,return,11.732658899854869,None,Löffel,[],[],[],[],[],[],[],,,,,,,,,,,,,,,,,,,,,,1,2024-01-10_11h38.24.033,watkins1,2023.2.3,99.79960263794364,80,2024-01-10 11h38.36.985877 +0000,
,,,,,,,,,,,,,,,,,,,6,0,6,0,,,,,468.56070600030944,,,,,,,,,,,,,,Geige,93.59511889982969,,,,,,,,,,,,91.35072669992223,None,,,,,,,,,,,,,freeRecallSub,1,,,,,,,,,,,,,,,,,,,,,,,,,,,,,,,,,,,,,,468.5506346002221,468.56070600030944,468.56070600030944,562.161831700243,return,93.59511889982969,None,Geige,[],[],[],[],[],[],[],,,,,,,,,,,,,,,,,,,,,,1,2024-01-10_11h38.24.033,watkins1,2023.2.3,99.79960263794364,80,2024-01-10 11h38.36.985877 +0000,
,,,,,,,,,,,,,,,,,,,7,0,7,0,,,,,562.1744882999919,,,,,,,,,,,,,,Socke,14.381184599827975,,,,,,,,,,,,11.345480700023472,None,,,,,,,,,,,,,freeRecallSub,1,,,,,,,,,,,,,,,,,,,,,,,,,,,,,,,,,,,,,,562.1632667002268,562.1744882999919,562.1744882999919,576.5624223002233,return,14.381184599827975,None,Socke,[],[],[],[],[],[],[],,,,,,,,,,,,,,,,,,,,,,1,2024-01-10_11h38.24.033,watkins1,2023.2.3,99.79960263794364,80,2024-01-10 11h38.36.985877 +0000,
,,,,,,,,,,,,,,,,,,,8,0,8,0,,,,,576.5758147002198,,,,,,,,,,,,,,,[],,,,,,,,,,,,None,None,,,,,,,,,,,,,freeRecallSub,1,,,,,,,,,,,,,,,,,,,,,,,,,,,,,,,,,,,,,,576.5638025002554,576.5758147002198,576.5758147002198,673.5587125001475,None,,,,[0.38055555555555554],[-0.4148148148148148],[1],[0],[0],[96.99002439994365],['button_continue'],,,,,,,,,,,,,,,,,,,,,,1,2024-01-10_11h38.24.033,watkins1,2023.2.3,99.79960263794364,80,2024-01-10 11h38.36.985877 +0000,
,,,,,,,,,,,,,,,,,,,,,,,,,,,,,,,,,,,,,,,,,,,,,,,,,,,,,,,,,,,,,,,,,,,,,1,,,,,,,,,,,,,,,,,,,,,,,,,,,,,,,,,,,,,,,,,,,,,,,,,,,,,,,,,,,,,,,,,,,,,,,,,,1,2024-01-10_11h38.24.033,watkins1,2023.2.3,99.79960263794364,80,2024-01-10 11h38.36.985877 +0000,
,,,,,,,,,,,,,,,,,,,,,,,0,0,0,0,680.6388844000176,,,,,,,,,,698.311694000382,698.8104165000841,,,,17.660932700149715,,,,,,,,,,,,None,None,,,,,,,,,,Uhr,,,cuedRecallAdj,1,,,,,,,,,,,,,,,,,,,,,,,,,,,,,,,,,,,,,,,,,,,,,,,,,,,,,680.6299350000918,680.6388844000176,0,680.6388844000176,698.3084237999283,kratzig,return,17.660932700149715,None,698.308834800031,698.3180716000497,698.3180716000497,698.3115387000144,,None,,,,,,,1,2024-01-10_11h38.24.033,watkins1,2023.2.3,99.79960263794364,80,2024-01-10 11h38.36.985877 +0000,
,,,,,,,,,,,,,,,,,,,,,,,1,0,1,0,698.8203231999651,,,,,,,,,,702.8417537999339,703.3404379999265,,,,4.015533500351012,,,,,,,,,,,,None,None,,,,,,,,,,Ring,,,cuedRecallAdj,1,,,,,,,,,,,,,,,,,,,,,,,,,,,,,,,,,,,,,,,,,,,,,,,,,,,,,698.8106915000826,698.8203231999651,0,698.8203231999651,702.8386363000609,klobig,return,4.015533500351012,None,702.8389079002663,702.8479619999416,702.8479619999416,702.8416475001723,,None,,,,,,,1,2024-01-10_11h38.24.033,watkins1,2023.2.3,99.79960263794364,80,2024-01-10 11h38.36.985877 +0000,
,,,,,,,,,,,,,,,,,,,,,,,2,0,2,0,703.3503408003598,,,,,,,,,,719.8039084002376,720.2954706000164,,,,6.549441700335592,,,,,,,,,,,,9.892996300011873,None,,,,,,,,,,Schlüssel,,,cuedRecallAdj,1,,,,,,,,,,,,,,,,,,,,,,,,,,,,,,,,,,,,,,,,,,,,,,,,,,,,,703.3406887003221,703.3503408003598,0,703.3503408003598,709.9099134001881,lustig,return,6.549441700335592,None,709.9101900001988,709.9195465999655,709.9195465999655,719.8035438000225,,return,9.87624579994008,None,,,,,1,2024-01-10_11h38.24.033,watkins1,2023.2.3,99.79960263794364,80,2024-01-10 11h38.36.985877 +0000,
,,,,,,,,,,,,,,,,,,,,,,,3,0,3,0,720.3052997002378,,,,,,,,,,730.862169300206,731.3538623000495,,,lang,9.178440200164914,,,,,,,,,,,,0.6621353002265096,None,,,,,,,,,,Socke,,,cuedRecallAdj,1,,,,,,,,,,,,,,,,,,,,,,,,,,,,,,,,,,,,,,,,,,,,,,,,,,,,,720.2957485001534,720.3052997002378,0,720.3052997002378,729.4859515000135,klobig,return,9.178440200164914,None,729.4862212999724,729.4954580003396,729.4954580003396,730.8618942000903,lang,return,1.3564491998404264,None,,,,,1,2024-01-10_11h38.24.033,watkins1,2023.2.3,99.79960263794364,80,2024-01-10 11h38.36.985877 +0000,
,,,,,,,,,,,,,,,,,,,,,,,4,0,4,0,731.3637499003671,,,,,,,,,,742.9178530001082,743.4165799003094,,,,11.544167899992317,,,,,,,,,,,,None,None,,,,,,,,,,Tasse,,,cuedRecallAdj,1,,,,,,,,,,,,,,,,,,,,,,,,,,,,,,,,,,,,,,,,,,,,,,,,,,,,,731.3541363999248,731.3637499003671,0,731.3637499003671,742.9149964000098,,return,11.544167899992317,None,742.9152697003447,742.9245695001446,742.9245695001446,742.9177478002384,,None,,,,,,,1,2024-01-10_11h38.24.033,watkins1,2023.2.3,99.79960263794364,80,2024-01-10 11h38.36.985877 +0000,
,,,,,,,,,,,,,,,,,,,,,,,5,0,5,0,743.42660970008,,,,,,,,,,746.9155423003249,747.4139664000832,,,,3.4811754999682307,,,,,,,,,,,,None,None,,,,,,,,,,Trommel,,,cuedRecallAdj,1,,,,,,,,,,,,,,,,,,,,,,,,,,,,,,,,,,,,,,,,,,,,,,,,,,,,,743.4168335003778,743.42660970008,0,743.42660970008,746.9123357003555,durchsichtig,return,3.4811754999682307,None,746.9126045000739,746.9218446002342,746.9218446002342,746.9154388001189,,None,,,,,,,1,2024-01-10_11h38.24.033,watkins1,2023.2.3,99.79960263794364,80,2024-01-10 11h38.36.985877 +0000,
,,,,,,,,,,,,,,,,,,,,,,,6,0,6,0,747.4238636000082,,,,,,,,,,759.2649638000876,759.7563110003248,,,,7.835933200083673,,,,,,,,,,,,3.99626010004431,None,,,,,,,,,,Kette,,,cuedRecallAdj,1,,,,,,,,,,,,,,,,,,,,,,,,,,,,,,,,,,,,,,,,,,,,,,,,,,,,,747.4142485000193,747.4238636000082,0,747.4238636000082,755.2676634001546,elegant,return,7.835933200083673,None,755.2679304000922,755.2772952001542,755.2772952001542,759.2646582000889,,return,3.982542300131172,None,,,,,1,2024-01-10_11h38.24.033,watkins1,2023.2.3,99.79960263794364,80,2024-01-10 11h38.36.985877 +0000,
,,,,,,,,,,,,,,,,,,,,,,,7,0,7,0,759.7663133000024,,,,,,,,,,764.4808180001564,764.9793818001635,,,,4.709440100006759,,,,,,,,,,,,None,None,,,,,,,,,,Kamera,,,cuedRecallAdj,1,,,,,,,,,,,,,,,,,,,,,,,,,,,,,,,,,,,,,,,,,,,,,,,,,,,,,759.756593100261,759.7663133000024,0,759.7663133000024,764.4774275999516,kaputt,return,4.709440100006759,None,764.4776937002316,764.4869242999703,764.4869242999703,764.4807154000737,,None,,,,,,,1,2024-01-10_11h38.24.033,watkins1,2023.2.3,99.79960263794364,80,2024-01-10 11h38.36.985877 +0000,
,,,,,,,,,,,,,,,,,,,,,,,8,0,8,0,764.9892981001176,,,,,,,,,,769.4132409002632,769.9118944001384,,,,4.414466900285333,,,,,,,,,,,,None,None,,,,,,,,,,Telefon,,,cuedRecallAdj,1,,,,,,,,,,,,,,,,,,,,,,,,,,,,,,,,,,,,,,,,,,,,,,,,,,,,,764.9796494003385,764.9892981001176,0,764.9892981001176,769.410277500283,lang,return,4.414466900285333,None,769.4105450003408,769.4196974001825,769.4196974001825,769.4131388999522,,None,,,,,,,1,2024-01-10_11h38.24.033,watkins1,2023.2.3,99.79960263794364,80,2024-01-10 11h38.36.985877 +0000,
,,,,,,,,,,,,,,,,,,,,,,,9,0,9,0,769.9218593002297,,,,,,,,,,774.706171200145,775.2046226002276,,,,4.777897299733013,,,,,,,,,,,,None,None,,,,,,,,,,Schere,,,cuedRecallAdj,1,,,,,,,,,,,,,,,,,,,,,,,,,,,,,,,,,,,,,,,,,,,,,,,,,,,,,769.9121616999619,769.9218593002297,0,769.9218593002297,774.7030637003481,rustikal,return,4.777897299733013,None,774.7033314001746,774.7125826999545,774.7125826999545,774.7060676002875,,None,,,,,,,1,2024-01-10_11h38.24.033,watkins1,2023.2.3,99.79960263794364,80,2024-01-10 11h38.36.985877 +0000,
,,,,,,,,,,,,,,,,,,,,,,,10,0,10,0,775.2145177000202,,,,,,,,,,778.1204584999941,778.6191867999732,,,,2.8933514999225736,,,,,,,,,,,,None,None,,,,,,,,,,Hut,,,cuedRecallAdj,1,,,,,,,,,,,,,,,,,,,,,,,,,,,,,,,,,,,,,,,,,,,,,,,,,,,,,775.2048732000403,775.2145177000202,0,775.2145177000202,778.1173775000498,sauber,return,2.8933514999225736,None,778.117647500243,778.127151499968,778.127151499968,778.1203519003466,,None,,,,,,,1,2024-01-10_11h38.24.033,watkins1,2023.2.3,99.79960263794364,80,2024-01-10 11h38.36.985877 +0000,
,,,,,,,,,,,,,,,,,,,,,,,11,0,11,0,778.6291317003779,,,,,,,,,,783.9029550999403,784.3943402003497,,,,3.878565500024706,,,,,,,,,,,,1.3855791999958456,None,,,,,,,,,,Jacke,,,cuedRecallAdj,1,,,,,,,,,,,,,,,,,,,,,,,,,,,,,,,,,,,,,,,,,,,,,,,,,,,,,778.6194784999825,778.6291317003779,0,778.6291317003779,782.5163164003752,kurz,return,3.878565500024706,None,782.5165898003615,782.525930700358,782.525930700358,783.9026838000864,,return,1.373827500268817,None,,,,,1,2024-01-10_11h38.24.033,watkins1,2023.2.3,99.79960263794364,80,2024-01-10 11h38.36.985877 +0000,
,,,,,,,,,,,,,,,,,,,,,,,12,0,12,0,784.4043228002265,,,,,,,,,,787.1496463003568,787.6481603002176,,,,2.7354414998553693,,,,,,,,,,,,None,None,,,,,,,,,,Kerze,,,cuedRecallAdj,1,,,,,,,,,,,,,,,,,,,,,,,,,,,,,,,,,,,,,,,,,,,,,,,,,,,,,784.3945923000574,784.4043228002265,0,784.4043228002265,787.146654299926,blass,return,2.7354414998553693,None,787.1469239001162,787.1561635001563,787.1561635001563,787.1495437999256,,None,,,,,,,1,2024-01-10_11h38.24.033,watkins1,2023.2.3,99.79960263794364,80,2024-01-10 11h38.36.985877 +0000,
,,,,,,,,,,,,,,,,,,,,,,,13,0,13,0,787.6580789000727,,,,,,,,,,803.9092077999376,804.4008486000821,,,,15.105869099963456,,,,,,,,,,,,1.143566600047052,None,,,,,,,,,,Flasche,,,cuedRecallAdj,1,,,,,,,,,,,,,,,,,,,,,,,,,,,,,,,,,,,,,,,,,,,,,,,,,,,,,787.6484137000516,787.6580789000727,0,787.6580789000727,802.7645902000368,verspielt,return,15.105869099963456,None,802.7648761002347,802.7737585003488,802.7737585003488,803.9089327002876,,return,1.1340672001242638,None,,,,,1,2024-01-10_11h38.24.033,watkins1,2023.2.3,99.79960263794364,80,2024-01-10 11h38.36.985877 +0000,
,,,,,,,,,,,,,,,,,,,,,,,14,0,14,0,804.4108207002282,,,,,,,,,,810.8193113002926,811.3107146001421,,,hübsch,3.769015799742192,,,,,,,,,,,,1.2849706001579762,None,,,,,,,,,,Blume,,,cuedRecallAdj,1,,,,,,,,,,,,,,,,,,,,,,,,,,,,,,,,,,,,,,,,,,,,,,,,,,,,,804.4011206999421,804.4108207002282,0,804.4108207002282,808.1875030002557,gepunktet,return,3.769015799742192,None,808.1877752002329,808.1971745002083,808.1971745002083,810.8190419003367,hübsch,return,2.6146900998428464,None,,,,,1,2024-01-10_11h38.24.033,watkins1,2023.2.3,99.79960263794364,80,2024-01-10 11h38.36.985877 +0000,
,,,,,,,,,,,,,,,,,,,,,,,15,0,15,0,811.3206702000462,,,,,,,,,,816.9354626000859,817.4269157000817,,,biegsam,2.3152153003029525,,,,,,,,,,,,1.7166013000532985,None,,,,,,,,,,Stift,,,cuedRecallAdj,1,,,,,,,,,,,,,,,,,,,,,,,,,,,,,,,,,,,,,,,,,,,,,,,,,,,,,811.3109705001116,811.3206702000462,0,811.3206702000462,813.6410972001031,kalt,return,2.3152153003029525,None,813.641385300085,813.6506038000807,813.6506038000807,816.9351901002228,biegsam,return,3.281258599832654,None,,,,,1,2024-01-10_11h38.24.033,watkins1,2023.2.3,99.79960263794364,80,2024-01-10 11h38.36.985877 +0000,
,,,,,,,,,,,,,,,,,,,,,,,16,0,16,0,817.4368871999905,,,,,,,,,,826.4304873002693,826.9295547003858,,,,8.982943200040609,,,,,,,,,,,,None,None,,,,,,,,,,Tasche,,,cuedRecallAdj,1,,,,,,,,,,,,,,,,,,,,,,,,,,,,,,,,,,,,,,,,,,,,,,,,,,,,,817.4272019001655,817.4368871999905,0,817.4368871999905,826.4278636001982,,return,8.982943200040609,None,826.4281407999806,826.4374109003693,826.4374109003693,826.4303835001774,,None,,,,,,,1,2024-01-10_11h38.24.033,watkins1,2023.2.3,99.79960263794364,80,2024-01-10 11h38.36.985877 +0000,
,,,,,,,,,,,,,,,,,,,,,,,17,0,17,0,826.9395039002411,,,,,,,,,,830.0456608003005,830.535606500227,,,,3.096317299641669,,,,,,,,,,,,None,None,,,,,,,,,,Rucksack,,,cuedRecallAdj,1,,,,,,,,,,,,,,,,,,,,,,,,,,,,,,,,,,,,,,,,,,,,,,,,,,,,,826.929828400258,826.9395039002411,0,826.9395039002411,830.043690000195,,return,3.096317299641669,None,830.0439561000094,830.0534240002744,830.0534240002744,830.0455577000976,,None,,,,,,,1,2024-01-10_11h38.24.033,watkins1,2023.2.3,99.79960263794364,80,2024-01-10 11h38.36.985877 +0000,
,,,,,,,,,,,,,,,,,,,,,,,18,0,18,0,830.5455967001617,,,,,,,,,,832.6882560001686,833.1871043001302,,,,2.138144299853593,,,,,,,,,,,,None,None,,,,,,,,,,Brille,,,cuedRecallAdj,1,,,,,,,,,,,,,,,,,,,,,,,,,,,,,,,,,,,,,,,,,,,,,,,,,,,,,830.5358823002316,830.5455967001617,0,830.5455967001617,832.6853889003396,gut,return,2.138144299853593,None,832.6856579999439,832.694927399978,832.694927399978,832.6881508999504,,None,,,,,,,1,2024-01-10_11h38.24.033,watkins1,2023.2.3,99.79960263794364,80,2024-01-10 11h38.36.985877 +0000,
,,,,,,,,,,,,,,,,,,,,,,,19,0,19,0,833.1970466999337,,,,,,,,,,835.9022296001203,836.4010185003281,,,,2.6947671002708375,,,,,,,,,,,,None,None,,,,,,,,,,Hammer,,,cuedRecallAdj,1,,,,,,,,,,,,,,,,,,,,,,,,,,,,,,,,,,,,,,,,,,,,,,,,,,,,,833.187354600057,833.1970466999337,0,833.1970466999337,835.8991404003464,glänzend,return,2.6947671002708375,None,835.8994074999355,835.9088242002763,835.9088242002763,835.9021288999356,,None,,,,,,,1,2024-01-10_11h38.24.033,watkins1,2023.2.3,99.79960263794364,80,2024-01-10 11h38.36.985877 +0000,
,,,,,,,,,,,,,,,,,,,,,,,20,0,20,0,836.4108583000489,,,,,,,,,,844.3177734003402,844.8092307001352,,,,3.20885459985584,,,,,,,,,,,,4.689810199663043,None,,,,,,,,,,Eimer,,,cuedRecallAdj,1,,,,,,,,,,,,,,,,,,,,,,,,,,,,,,,,,,,,,,,,,,,,,,,,,,,,,836.4012742000632,836.4108583000489,0,836.4108583000489,839.6271345000714,groß,return,3.20885459985584,None,839.6274105003104,839.6367395003326,839.6367395003326,844.3175063002855,,return,4.670999700203538,None,,,,,1,2024-01-10_11h38.24.033,watkins1,2023.2.3,99.79960263794364,80,2024-01-10 11h38.36.985877 +0000,
,,,,,,,,,,,,,,,,,,,,,,,21,0,21,0,844.8191734002903,,,,,,,,,,849.2691971999593,849.7607015999965,,,bunt,2.768689400050789,,,,,,,,,,,,0.3708158996887505,None,,,,,,,,,,Bürste,,,cuedRecallAdj,1,,,,,,,,,,,,,,,,,,,,,,,,,,,,,,,,,,,,,,,,,,,,,,,,,,,,,844.8094836999662,844.8191734002903,0,844.8191734002903,847.591664200183,matt,return,2.768689400050789,None,847.5919556999579,847.6012381003238,847.6012381003238,849.2689268002287,bunt,return,1.6665930999442935,None,,,,,1,2024-01-10_11h38.24.033,watkins1,2023.2.3,99.79960263794364,80,2024-01-10 11h38.36.985877 +0000,
,,,,,,,,,,,,,,,,,,,,,,,22,0,22,0,849.7706426000223,,,,,,,,,,871.4662319002673,871.9575314000249,,,schmal,18.59320560004562,,,,,,,,,,,,2.1489347997121513,None,,,,,,,,,,Vase,,,cuedRecallAdj,1,,,,,,,,,,,,,,,,,,,,,,,,,,,,,,,,,,,,,,,,,,,,,,,,,,,,,849.7609693002887,849.7706426000223,0,849.7706426000223,868.3720871000551,winzig,return,18.59320560004562,None,868.3723556003533,868.3816272001714,868.3816272001714,871.465961500071,schmal,return,3.078204700257629,None,,,,,1,2024-01-10_11h38.24.033,watkins1,2023.2.3,99.79960263794364,80,2024-01-10 11h38.36.985877 +0000,
,,,,,,,,,,,,,,,,,,,,,,,23,0,23,0,871.9674463002011,,,,,,,,,,878.8490928001702,879.3402845002711,,,gestreift,3.4602859998121858,,,,,,,,,,,,1.7869164999574423,None,,,,,,,,,,Löffel,,,cuedRecallAdj,1,,,,,,,,,,,,,,,,,,,,,,,,,,,,,,,,,,,,,,,,,,,,,,,,,,,,,871.9577868999913,871.9674463002011,0,871.9674463002011,875.4334597000852,schwer,return,3.4602859998121858,None,875.4337316001765,875.4429020001553,875.4429020001553,878.8488095002249,gestreift,return,3.4008953999727964,None,,,,,1,2024-01-10_11h38.24.033,watkins1,2023.2.3,99.79960263794364,80,2024-01-10 11h38.36.985877 +0000,
,,,,,,,,,,,,,,,,,,,,,,,24,0,24,0,879.3502750000916,,,,,,,,,,883.3409548001364,883.8302718000486,,,,3.9814611999318004,,,,,,,,,,,,None,None,,,,,,,,,,Buch,,,cuedRecallAdj,1,,,,,,,,,,,,,,,,,,,,,,,,,,,,,,,,,,,,,,,,,,,,,,,,,,,,,879.3405402000062,879.3502750000916,0,879.3502750000916,883.3384500001557,,return,3.9814611999318004,None,883.3387265000492,883.3478062003851,883.3478062003851,883.3408496002667,,None,,,,,,,1,2024-01-10_11h38.24.033,watkins1,2023.2.3,99.79960263794364,80,2024-01-10 11h38.36.985877 +0000,
,,,,,,,,,,,,,,,,,,,,,,,25,0,25,0,883.8400647002272,,,,,,,,,,887.7605982003734,888.2595001999289,,,,3.907785899937153,,,,,,,,,,,,None,None,,,,,,,,,,Kiste,,,cuedRecallAdj,1,,,,,,,,,,,,,,,,,,,,,,,,,,,,,,,,,,,,,,,,,,,,,,,,,,,,,883.8305986002088,883.8400647002272,0,883.8400647002272,887.7575734001584,hübsch,return,3.907785899937153,None,887.7578440001234,887.7672836999409,887.7672836999409,887.7604943001643,,None,,,,,,,1,2024-01-10_11h38.24.033,watkins1,2023.2.3,99.79960263794364,80,2024-01-10 11h38.36.985877 +0000,
,,,,,,,,,,,,,,,,,,,,,,,26,0,26,0,888.269424600061,,,,,,,,,,899.5985938003287,900.0900564002804,,,,2.702418299857527,,,,,,,,,,,,8.616470899898559,None,,,,,,,,,,Würfel,,,cuedRecallAdj,1,,,,,,,,,,,,,,,,,,,,,,,,,,,,,,,,,,,,,,,,,,,,,,,,,,,,,888.2597647001967,888.269424600061,0,888.269424600061,890.9810394002125,krumm,return,2.702418299857527,None,890.981307100039,890.9907575999387,890.9907575999387,899.5983203002252,,return,8.604996600188315,None,,,,,1,2024-01-10_11h38.24.033,watkins1,2023.2.3,99.79960263794364,80,2024-01-10 11h38.36.985877 +0000,
,,,,,,,,,,,,,,,,,,,,,,,27,0,27,0,900.0999891003594,,,,,,,,,,914.4531694999896,914.9444929002784,,,teuer,8.623783899936825,,,,,,,,,,,,4.699572700075805,None,,,,,,,,,,Lampe,,,cuedRecallAdj,1,,,,,,,,,,,,,,,,,,,,,,,,,,,,,,,,,,,,,,,,,,,,,,,,,,,,,900.0903158001602,900.0999891003594,0,900.0999891003594,908.7281585000455,hohl,return,8.623783899936825,None,908.7284249002114,908.7377081001177,908.7377081001177,914.4528842000291,teuer,return,5.706051600165665,None,,,,,1,2024-01-10_11h38.24.033,watkins1,2023.2.3,99.79960263794364,80,2024-01-10 11h38.36.985877 +0000,
,,,,,,,,,,,,,,,,,,,,,,,28,0,28,0,914.9544692002237,,,,,,,,,,923.3726776000112,923.8640765999444,,,,3.5452720001339912,,,,,,,,,,,,4.870836599729955,None,,,,,,,,,,Fahrrad,,,cuedRecallAdj,1,,,,,,,,,,,,,,,,,,,,,,,,,,,,,,,,,,,,,,,,,,,,,,,,,,,,,914.9447566000745,914.9544692002237,0,914.9544692002237,918.5007572001778,schmutzig,return,3.5452720001339912,None,918.5010415003635,918.5101295001805,918.5101295001805,923.372404600028,,return,4.861653700005263,None,,,,,1,2024-01-10_11h38.24.033,watkins1,2023.2.3,99.79960263794364,80,2024-01-10 11h38.36.985877 +0000,
,,,,,,,,,,,,,,,,,,,,,,,29,0,29,0,923.8740603001788,,,,,,,,,,928.2334190001711,928.7249257001095,,,kratzig,2.401782799977809,,,,,,,,,,,,0.943344300147146,None,,,,,,,,,,Geige,,,cuedRecallAdj,1,,,,,,,,,,,,,,,,,,,,,,,,,,,,,,,,,,,,,,,,,,,,,,,,,,,,,923.8643259000964,923.8740603001788,0,923.8740603001788,926.2846873002127,breit,return,2.401782799977809,None,926.285094300285,926.2943408000283,926.2943408000283,928.2331500002183,kratzig,return,1.9334939997643232,None,,,,,1,2024-01-10_11h38.24.033,watkins1,2023.2.3,99.79960263794364,80,2024-01-10 11h38.36.985877 +0000,
,,,,,,,,,,,,,,,,,,,,,,,,,,,,,,,,,,,,,,,,,,,,,,,,,,,,,,,,,,,,,,,,,,,,,1,,,,,,,,,,,,,,,,,,,,,,,,,,,,,,,,,,,,,,,,,,,,,,,,,,,,,,,,,,,,,,,,,,,,,,928.742280700244,q,2546.1897678002715,None,1,2024-01-10_11h38.24.033,watkins1,2023.2.3,99.79960263794364,80,2024-01-10 11h38.36.985877 +0000,
