Equation,CorrectResponse,Correctbutton,trials_7.thisRepN,trials_7.thisTrialN,trials_7.thisN,trials_7.thisIndex,trials.thisRepN,trials.thisTrialN,trials.thisN,trials.thisIndex,trials_3.thisRepN,trials_3.thisTrialN,trials_3.thisN,trials_3.thisIndex,trials_2.thisRepN,trials_2.thisTrialN,trials_2.thisN,trials_2.thisIndex,trials_4.thisRepN,trials_4.thisTrialN,trials_4.thisN,trials_4.thisIndex,trials_5.thisRepN,trials_5.thisTrialN,trials_5.thisN,trials_5.thisIndex,thisRow.t,notes,code_marius.started,code_marius.stopped,welcome.started,welcome.stopped,instruction_study.started,instruction_study.stopped,fixationcross.started,fixationcross.stopped,blanc.started,blanc.stopped,study_control_probe.started,study_control_probe.stopped,responseKey,responseTime,scale_answer_2.keys,study_control_probe_2.started,study_control_probe_2.stopped,scale_answer_3.keys,scale_answer_3.rt,scale_answer_3.duration,blanc_2.started,blanc_2.stopped,test_attr_probe.started,test_attr_probe.stopped,recalled_attr,firstKeyTime,secondWordTime,blanc_3.started,blanc_3.stopped,test_sub_probe.started,test_sub_probe.stopped,recalled_sub,instruction_probe_end.started,instruction_probe_end.stopped,study.started,study.stopped,substantive,adjective,wordpair,task,condition,liste_sub_phase1,liste_adj_phase1,scale_answer.keys,scale_answer.rt,scale_answer.duration,code_defineWordsInit.started,code_defineWordsInit.stopped,liste_sub_phase2,study_control.started,study_control.stopped,scale_answer_4.keys,restudy_same.started,restudy_same.stopped,scale_answer_5.keys,scale_answer_5.rt,scale_answer_5.duration,restudy_different.started,restudy_different.stopped,scale_answer_6.keys,test_attr.started,test_attr.stopped,test_sub.started,test_sub.stopped,correct,distractortask.started,equation_text.started,distractortask.stopped,mouse_answer.x,mouse_answer.y,mouse_answer.leftButton,mouse_answer.midButton,mouse_answer.rightButton,mouse_answer.time,mouse_answer.clicked_name,feedback_distractortask.started,feedback_distractortask.stopped,free_recall.started,text_enter.started,key_resp.started,free_recall.stopped,key_resp.keys,key_resp.rt,key_resp.duration,free_recalled_sub,mouse_continue.x,mouse_continue.y,mouse_continue.leftButton,mouse_continue.midButton,mouse_continue.rightButton,mouse_continue.time,mouse_continue.clicked_name,cued_recall.started,text_enter_2.started,key_continue.started,cued_recall.stopped,recalled_attr1,key_continue.keys,key_continue.rt,key_continue.duration,cued_recall_2.started,text_enter_3.started,key_continue_2.started,cued_recall_2.stopped,recalled_attr2,key_continue_2.keys,key_resp_8.started,key_resp_8.keys,key_resp_8.rt,key_resp_8.duration,condition,date,expName,psychopyVersion,frameRate,participant,expStart,
,,,,,,,,,,,,,,,,,,,,,,,,,,,,,0.10646169999381527,0.10652729999856092,0.1065359999993234,4.995544299999892,,,,,,,,,,,,,,,,,,,,,,,,,,,,,,,,,,,,,3,,,,,,,,,,,,,,,,,,,,,,,,,,,,,,,,,,,,,,,,,,,,,,,,,,,,,,,,,,,,,,,,,,,,,,3,2023-12-14_11h11.25.218,watkins1,2023.2.3,99.7310254240786,66,2023-12-14 11h11.32.949396 +0000,
,,,,,,,,,,,,,,,,,,,,,,,,,,,,,,,,,4.995591799997783,32.17476009999518,,,,,,,,,,,,,,,,,,,,,,,,,,,,,,,,,,,3,,,,,,,,,,,,,,,,,,,,,,,,,,,,,,,,,,,,,,,,,,,,,,,,,,,,,,,,,,,,,,,,,,,,,,3,2023-12-14_11h11.25.218,watkins1,2023.2.3,99.7310254240786,66,2023-12-14 11h11.32.949396 +0000,
,,,0,0,0,0,,,,,,,,,,,,,,,,,,,,,33.18850999999995,,,,,,,,32.17477549999603,33.17852209999546,39.67245179999736,40.16381549999642,33.67059809999773,39.67228819999582,2,2.908214400005818,None,40.16382619999786,46.174306299995806,2,2.908214400005818,None,46.17460819999542,46.665685099993425,46.665695399999095,52.67037419999542,vergnügt,None,None,52.670602999998664,52.67062889999943,52.67063619999681,52.6707180999947,,,,,,,,,,3,,,,,,,,,,,,,,,,,,,,,,,,,,,,,,,,,,,,,,,,,,,,,,,,,,,,,,,,,,,,,,,,,,,,,,3,2023-12-14_11h11.25.218,watkins1,2023.2.3,99.7310254240786,66,2023-12-14 11h11.32.949396 +0000,
,,,,,,,,,,,,,,,,,,,,,,,,,,,,,,,,,,,,,,,,,,,,,,,,,,,,,,,,,,,,,52.670839599995816,58.407219999993686,,,,,,,3,,,,,,,,,,,,,,,,,,,,,,,,,,,,,,,,,,,,,,,,,,,,,,,,,,,,,,,,,,,,,,,,,,,,,,3,2023-12-14_11h11.25.218,watkins1,2023.2.3,99.7310254240786,66,2023-12-14 11h11.32.949396 +0000,
,,,,,,,0,0,0,0,,,,,,,,,,,,,,,,,59.420899999997346,,,,,,,,58.4072359999991,59.410938199995144,59.411421199998586,59.90296059999673,,,3,3.131890700002259,,,,,,,,,,,,,,,,,,,,,59.90298449999682,65.90727440000046,Vase,flach,"['Vase', 'flach']",test_adj,3,"['Vase', 'Bürste', 'Hut', 'Jacke', 'Tasse', 'Kamera', 'Buch', 'Tasche', 'Ring', 'Uhr', 'Rucksack', 'Kette', 'Telefon', 'Eimer', 'Geige', 'Schere', 'Hammer', 'Schlüssel', 'Fahrrad', 'Kerze', 'Blume', 'Socke', 'Würfel', 'Trommel', 'Lampe', 'Stift', 'Löffel', 'Brille', 'Kiste', 'Flasche']",['flach'],3,3.131890700002259,None,,,,,,,,,,,,,,,,,,,,,,,,,,,,,,,,,,,,,,,,,,,,,,,,,,,,,,,,,,,,,,,,,3,2023-12-14_11h11.25.218,watkins1,2023.2.3,99.7310254240786,66,2023-12-14 11h11.32.949396 +0000,
,,,,,,,1,0,1,0,,,,,,,,,,,,,,,,,65.91678499999398,,,,,,,,,,65.90794359999563,66.39892459999828,,,3,4.013663500001712,,,,,,,,,,,,,,,,,,,,,66.39893499999744,72.40113229999406,Bürste,niedlich,"['Bürste', 'niedlich']",test_adj,3,"['Vase', 'Bürste', 'Hut', 'Jacke', 'Tasse', 'Kamera', 'Buch', 'Tasche', 'Ring', 'Uhr', 'Rucksack', 'Kette', 'Telefon', 'Eimer', 'Geige', 'Schere', 'Hammer', 'Schlüssel', 'Fahrrad', 'Kerze', 'Blume', 'Socke', 'Würfel', 'Trommel', 'Lampe', 'Stift', 'Löffel', 'Brille', 'Kiste', 'Flasche']","['flach', 'niedlich']",3,4.013663500001712,None,,,,,,,,,,,,,,,,,,,,,,,,,,,,,,,,,,,,,,,,,,,,,,,,,,,,,,,,,,,,,,,,,3,2023-12-14_11h11.25.218,watkins1,2023.2.3,99.7310254240786,66,2023-12-14 11h11.32.949396 +0000,
,,,,,,,2,0,2,0,,,,,,,,,,,,,,,,,72.41057729999739,,,,,,,,,,72.40166989999852,72.8928986999963,,,2,5.735178100003395,,,,,,,,,,,,,,,,,,,,,72.89290939999773,78.89804749999894,Hut,groß,"['Hut', 'groß']",restudy,3,"['Vase', 'Bürste', 'Hut', 'Jacke', 'Tasse', 'Kamera', 'Buch', 'Tasche', 'Ring', 'Uhr', 'Rucksack', 'Kette', 'Telefon', 'Eimer', 'Geige', 'Schere', 'Hammer', 'Schlüssel', 'Fahrrad', 'Kerze', 'Blume', 'Socke', 'Würfel', 'Trommel', 'Lampe', 'Stift', 'Löffel', 'Brille', 'Kiste', 'Flasche']","['flach', 'niedlich', 'groß']",2,5.735178100003395,None,,,,,,,,,,,,,,,,,,,,,,,,,,,,,,,,,,,,,,,,,,,,,,,,,,,,,,,,,,,,,,,,,3,2023-12-14_11h11.25.218,watkins1,2023.2.3,99.7310254240786,66,2023-12-14 11h11.32.949396 +0000,
,,,,,,,3,0,3,0,,,,,,,,,,,,,,,,,78.90759379999508,,,,,,,,,,78.89858039999672,79.38966639999853,,,3,4.214786799995636,,,,,,,,,,,,,,,,,,,,,79.38967679999769,85.3964194999935,Jacke,dunkel,"['Jacke', 'dunkel']",restudy,3,"['Vase', 'Bürste', 'Hut', 'Jacke', 'Tasse', 'Kamera', 'Buch', 'Tasche', 'Ring', 'Uhr', 'Rucksack', 'Kette', 'Telefon', 'Eimer', 'Geige', 'Schere', 'Hammer', 'Schlüssel', 'Fahrrad', 'Kerze', 'Blume', 'Socke', 'Würfel', 'Trommel', 'Lampe', 'Stift', 'Löffel', 'Brille', 'Kiste', 'Flasche']","['flach', 'niedlich', 'groß', 'dunkel']",3,4.214786799995636,None,,,,,,,,,,,,,,,,,,,,,,,,,,,,,,,,,,,,,,,,,,,,,,,,,,,,,,,,,,,,,,,,,3,2023-12-14_11h11.25.218,watkins1,2023.2.3,99.7310254240786,66,2023-12-14 11h11.32.949396 +0000,
,,,,,,,4,0,4,0,,,,,,,,,,,,,,,,,85.40588629999547,,,,,,,,,,85.39695509999729,85.88787359999696,,,1,3.0608712999965064,,,,,,,,,,,,,,,,,,,,,85.88788449999993,91.89076249999925,Tasse,flauschig,"['Tasse', 'flauschig']",restudy,3,"['Vase', 'Bürste', 'Hut', 'Jacke', 'Tasse', 'Kamera', 'Buch', 'Tasche', 'Ring', 'Uhr', 'Rucksack', 'Kette', 'Telefon', 'Eimer', 'Geige', 'Schere', 'Hammer', 'Schlüssel', 'Fahrrad', 'Kerze', 'Blume', 'Socke', 'Würfel', 'Trommel', 'Lampe', 'Stift', 'Löffel', 'Brille', 'Kiste', 'Flasche']","['flach', 'niedlich', 'groß', 'dunkel', 'flauschig']",1,3.0608712999965064,None,,,,,,,,,,,,,,,,,,,,,,,,,,,,,,,,,,,,,,,,,,,,,,,,,,,,,,,,,,,,,,,,,3,2023-12-14_11h11.25.218,watkins1,2023.2.3,99.7310254240786,66,2023-12-14 11h11.32.949396 +0000,
,,,,,,,5,0,5,0,,,,,,,,,,,,,,,,,91.90015449999919,,,,,,,,,,91.89130669999577,92.38231959999393,,,None,[],,,,,,,,,,,,,,,,,,,,,92.38233039999614,98.38373799999681,Kamera,blass,"['Kamera', 'blass']",test_adj,3,"['Vase', 'Bürste', 'Hut', 'Jacke', 'Tasse', 'Kamera', 'Buch', 'Tasche', 'Ring', 'Uhr', 'Rucksack', 'Kette', 'Telefon', 'Eimer', 'Geige', 'Schere', 'Hammer', 'Schlüssel', 'Fahrrad', 'Kerze', 'Blume', 'Socke', 'Würfel', 'Trommel', 'Lampe', 'Stift', 'Löffel', 'Brille', 'Kiste', 'Flasche']","['flach', 'niedlich', 'groß', 'dunkel', 'flauschig', 'blass']",None,,,,,,,,,,,,,,,,,,,,,,,,,,,,,,,,,,,,,,,,,,,,,,,,,,,,,,,,,,,,,,,,,,,3,2023-12-14_11h11.25.218,watkins1,2023.2.3,99.7310254240786,66,2023-12-14 11h11.32.949396 +0000,
,,,,,,,6,0,6,0,,,,,,,,,,,,,,,,,98.39319909999904,,,,,,,,,,98.38413159999618,98.87542179999582,,,2,3.465828300002613,,,,,,,,,,,,,,,,,,,,,98.87543219999498,104.87770520000049,Buch,robust,"['Buch', 'robust']",restudy,3,"['Vase', 'Bürste', 'Hut', 'Jacke', 'Tasse', 'Kamera', 'Buch', 'Tasche', 'Ring', 'Uhr', 'Rucksack', 'Kette', 'Telefon', 'Eimer', 'Geige', 'Schere', 'Hammer', 'Schlüssel', 'Fahrrad', 'Kerze', 'Blume', 'Socke', 'Würfel', 'Trommel', 'Lampe', 'Stift', 'Löffel', 'Brille', 'Kiste', 'Flasche']","['flach', 'niedlich', 'groß', 'dunkel', 'flauschig', 'blass', 'robust']",2,3.465828300002613,None,,,,,,,,,,,,,,,,,,,,,,,,,,,,,,,,,,,,,,,,,,,,,,,,,,,,,,,,,,,,,,,,,3,2023-12-14_11h11.25.218,watkins1,2023.2.3,99.7310254240786,66,2023-12-14 11h11.32.949396 +0000,
,,,,,,,7,0,7,0,,,,,,,,,,,,,,,,,104.88717529999849,,,,,,,,,,104.87825370000064,105.36950619999698,,,3,2.596261400001822,,,,,,,,,,,,,,,,,,,,,105.36951639999461,111.37848629999644,Tasche,hübsch,"['Tasche', 'hübsch']",test_adj,3,"['Vase', 'Bürste', 'Hut', 'Jacke', 'Tasse', 'Kamera', 'Buch', 'Tasche', 'Ring', 'Uhr', 'Rucksack', 'Kette', 'Telefon', 'Eimer', 'Geige', 'Schere', 'Hammer', 'Schlüssel', 'Fahrrad', 'Kerze', 'Blume', 'Socke', 'Würfel', 'Trommel', 'Lampe', 'Stift', 'Löffel', 'Brille', 'Kiste', 'Flasche']","['flach', 'niedlich', 'groß', 'dunkel', 'flauschig', 'blass', 'robust', 'hübsch']",3,2.596261400001822,None,,,,,,,,,,,,,,,,,,,,,,,,,,,,,,,,,,,,,,,,,,,,,,,,,,,,,,,,,,,,,,,,,3,2023-12-14_11h11.25.218,watkins1,2023.2.3,99.7310254240786,66,2023-12-14 11h11.32.949396 +0000,
,,,,,,,8,0,8,0,,,,,,,,,,,,,,,,,111.38796159999765,,,,,,,,,,111.37900909999735,111.87000459999399,,,3,2.0789457999999286,,,,,,,,,,,,,,,,,,,,,111.87001529999543,117.87404709999828,Ring,krumm,"['Ring', 'krumm']",restudy,3,"['Vase', 'Bürste', 'Hut', 'Jacke', 'Tasse', 'Kamera', 'Buch', 'Tasche', 'Ring', 'Uhr', 'Rucksack', 'Kette', 'Telefon', 'Eimer', 'Geige', 'Schere', 'Hammer', 'Schlüssel', 'Fahrrad', 'Kerze', 'Blume', 'Socke', 'Würfel', 'Trommel', 'Lampe', 'Stift', 'Löffel', 'Brille', 'Kiste', 'Flasche']","['flach', 'niedlich', 'groß', 'dunkel', 'flauschig', 'blass', 'robust', 'hübsch', 'krumm']",3,2.0789457999999286,None,,,,,,,,,,,,,,,,,,,,,,,,,,,,,,,,,,,,,,,,,,,,,,,,,,,,,,,,,,,,,,,,,3,2023-12-14_11h11.25.218,watkins1,2023.2.3,99.7310254240786,66,2023-12-14 11h11.32.949396 +0000,
,,,,,,,9,0,9,0,,,,,,,,,,,,,,,,,117.88346729999466,,,,,,,,,,117.87456149999343,118.36573599999974,,,1,2.4473383000004105,,,,,,,,,,,,,,,,,,,,,118.3657463999989,124.36888509999699,Uhr,lang,"['Uhr', 'lang']",test_adj,3,"['Vase', 'Bürste', 'Hut', 'Jacke', 'Tasse', 'Kamera', 'Buch', 'Tasche', 'Ring', 'Uhr', 'Rucksack', 'Kette', 'Telefon', 'Eimer', 'Geige', 'Schere', 'Hammer', 'Schlüssel', 'Fahrrad', 'Kerze', 'Blume', 'Socke', 'Würfel', 'Trommel', 'Lampe', 'Stift', 'Löffel', 'Brille', 'Kiste', 'Flasche']","['flach', 'niedlich', 'groß', 'dunkel', 'flauschig', 'blass', 'robust', 'hübsch', 'krumm', 'lang']",1,2.4473383000004105,None,,,,,,,,,,,,,,,,,,,,,,,,,,,,,,,,,,,,,,,,,,,,,,,,,,,,,,,,,,,,,,,,,3,2023-12-14_11h11.25.218,watkins1,2023.2.3,99.7310254240786,66,2023-12-14 11h11.32.949396 +0000,
,,,,,,,10,0,10,0,,,,,,,,,,,,,,,,,124.37839030000032,,,,,,,,,,124.36940519999916,124.8604481999937,,,3,2.59289980000176,,,,,,,,,,,,,,,,,,,,,124.86045869999361,130.8702317999996,Rucksack,nachhaltig,"['Rucksack', 'nachhaltig']",test_adj,3,"['Vase', 'Bürste', 'Hut', 'Jacke', 'Tasse', 'Kamera', 'Buch', 'Tasche', 'Ring', 'Uhr', 'Rucksack', 'Kette', 'Telefon', 'Eimer', 'Geige', 'Schere', 'Hammer', 'Schlüssel', 'Fahrrad', 'Kerze', 'Blume', 'Socke', 'Würfel', 'Trommel', 'Lampe', 'Stift', 'Löffel', 'Brille', 'Kiste', 'Flasche']","['flach', 'niedlich', 'groß', 'dunkel', 'flauschig', 'blass', 'robust', 'hübsch', 'krumm', 'lang', 'nachhaltig']",3,2.59289980000176,None,,,,,,,,,,,,,,,,,,,,,,,,,,,,,,,,,,,,,,,,,,,,,,,,,,,,,,,,,,,,,,,,,3,2023-12-14_11h11.25.218,watkins1,2023.2.3,99.7310254240786,66,2023-12-14 11h11.32.949396 +0000,
,,,,,,,11,0,11,0,,,,,,,,,,,,,,,,,130.87972900000022,,,,,,,,,,130.87075679999543,131.3617105999947,,,1,2.6667285000003176,,,,,,,,,,,,,,,,,,,,,131.3617207999996,137.3661546000003,Kette,praktisch,"['Kette', 'praktisch']",restudy,3,"['Vase', 'Bürste', 'Hut', 'Jacke', 'Tasse', 'Kamera', 'Buch', 'Tasche', 'Ring', 'Uhr', 'Rucksack', 'Kette', 'Telefon', 'Eimer', 'Geige', 'Schere', 'Hammer', 'Schlüssel', 'Fahrrad', 'Kerze', 'Blume', 'Socke', 'Würfel', 'Trommel', 'Lampe', 'Stift', 'Löffel', 'Brille', 'Kiste', 'Flasche']","['flach', 'niedlich', 'groß', 'dunkel', 'flauschig', 'blass', 'robust', 'hübsch', 'krumm', 'lang', 'nachhaltig', 'praktisch']",1,2.6667285000003176,None,,,,,,,,,,,,,,,,,,,,,,,,,,,,,,,,,,,,,,,,,,,,,,,,,,,,,,,,,,,,,,,,,3,2023-12-14_11h11.25.218,watkins1,2023.2.3,99.7310254240786,66,2023-12-14 11h11.32.949396 +0000,
,,,,,,,12,0,12,0,,,,,,,,,,,,,,,,,137.37561759999517,,,,,,,,,,137.36668179999833,137.85766589999548,,,1,4.155856599994877,,,,,,,,,,,,,,,,,,,,,137.85767619999388,143.86671059999935,Telefon,lustig,"['Telefon', 'lustig']",restudy,3,"['Vase', 'Bürste', 'Hut', 'Jacke', 'Tasse', 'Kamera', 'Buch', 'Tasche', 'Ring', 'Uhr', 'Rucksack', 'Kette', 'Telefon', 'Eimer', 'Geige', 'Schere', 'Hammer', 'Schlüssel', 'Fahrrad', 'Kerze', 'Blume', 'Socke', 'Würfel', 'Trommel', 'Lampe', 'Stift', 'Löffel', 'Brille', 'Kiste', 'Flasche']","['flach', 'niedlich', 'groß', 'dunkel', 'flauschig', 'blass', 'robust', 'hübsch', 'krumm', 'lang', 'nachhaltig', 'praktisch', 'lustig']",1,4.155856599994877,None,,,,,,,,,,,,,,,,,,,,,,,,,,,,,,,,,,,,,,,,,,,,,,,,,,,,,,,,,,,,,,,,,3,2023-12-14_11h11.25.218,watkins1,2023.2.3,99.7310254240786,66,2023-12-14 11h11.32.949396 +0000,
,,,,,,,13,0,13,0,,,,,,,,,,,,,,,,,143.8761760999987,,,,,,,,,,143.8672232999961,144.35815329999605,,,1,1.486670199999935,,,,,,,,,,,,,,,,,,,,,144.3581636999952,150.36398659999395,Eimer,gestreift,"['Eimer', 'gestreift']",test_adj,3,"['Vase', 'Bürste', 'Hut', 'Jacke', 'Tasse', 'Kamera', 'Buch', 'Tasche', 'Ring', 'Uhr', 'Rucksack', 'Kette', 'Telefon', 'Eimer', 'Geige', 'Schere', 'Hammer', 'Schlüssel', 'Fahrrad', 'Kerze', 'Blume', 'Socke', 'Würfel', 'Trommel', 'Lampe', 'Stift', 'Löffel', 'Brille', 'Kiste', 'Flasche']","['flach', 'niedlich', 'groß', 'dunkel', 'flauschig', 'blass', 'robust', 'hübsch', 'krumm', 'lang', 'nachhaltig', 'praktisch', 'lustig', 'gestreift']",1,1.486670199999935,None,,,,,,,,,,,,,,,,,,,,,,,,,,,,,,,,,,,,,,,,,,,,,,,,,,,,,,,,,,,,,,,,,3,2023-12-14_11h11.25.218,watkins1,2023.2.3,99.7310254240786,66,2023-12-14 11h11.32.949396 +0000,
,,,,,,,14,0,14,0,,,,,,,,,,,,,,,,,150.3734922999938,,,,,,,,,,150.36452209999698,150.85562659999414,,,2,1.500341600003594,,,,,,,,,,,,,,,,,,,,,150.85563700000057,156.86264069999743,Geige,hässlich,"['Geige', 'hässlich']",test_adj,3,"['Vase', 'Bürste', 'Hut', 'Jacke', 'Tasse', 'Kamera', 'Buch', 'Tasche', 'Ring', 'Uhr', 'Rucksack', 'Kette', 'Telefon', 'Eimer', 'Geige', 'Schere', 'Hammer', 'Schlüssel', 'Fahrrad', 'Kerze', 'Blume', 'Socke', 'Würfel', 'Trommel', 'Lampe', 'Stift', 'Löffel', 'Brille', 'Kiste', 'Flasche']","['flach', 'niedlich', 'groß', 'dunkel', 'flauschig', 'blass', 'robust', 'hübsch', 'krumm', 'lang', 'nachhaltig', 'praktisch', 'lustig', 'gestreift', 'hässlich']",2,1.500341600003594,None,,,,,,,,,,,,,,,,,,,,,,,,,,,,,,,,,,,,,,,,,,,,,,,,,,,,,,,,,,,,,,,,,3,2023-12-14_11h11.25.218,watkins1,2023.2.3,99.7310254240786,66,2023-12-14 11h11.32.949396 +0000,
,,,,,,,15,0,15,0,,,,,,,,,,,,,,,,,156.8721621999939,,,,,,,,,,156.8631733000002,157.3541655999943,,,1,2.794657800004643,,,,,,,,,,,,,,,,,,,,,157.35417619999498,163.3576877999949,Schere,winzig,"['Schere', 'winzig']",test_adj,3,"['Vase', 'Bürste', 'Hut', 'Jacke', 'Tasse', 'Kamera', 'Buch', 'Tasche', 'Ring', 'Uhr', 'Rucksack', 'Kette', 'Telefon', 'Eimer', 'Geige', 'Schere', 'Hammer', 'Schlüssel', 'Fahrrad', 'Kerze', 'Blume', 'Socke', 'Würfel', 'Trommel', 'Lampe', 'Stift', 'Löffel', 'Brille', 'Kiste', 'Flasche']","['flach', 'niedlich', 'groß', 'dunkel', 'flauschig', 'blass', 'robust', 'hübsch', 'krumm', 'lang', 'nachhaltig', 'praktisch', 'lustig', 'gestreift', 'hässlich', 'winzig']",1,2.794657800004643,None,,,,,,,,,,,,,,,,,,,,,,,,,,,,,,,,,,,,,,,,,,,,,,,,,,,,,,,,,,,,,,,,,3,2023-12-14_11h11.25.218,watkins1,2023.2.3,99.7310254240786,66,2023-12-14 11h11.32.949396 +0000,
,,,,,,,16,0,16,0,,,,,,,,,,,,,,,,,163.36718329999712,,,,,,,,,,163.35822769999504,163.84916439999506,,,1,1.508528300000762,,,,,,,,,,,,,,,,,,,,,163.84917489999498,169.85424169999897,Hammer,bunt,"['Hammer', 'bunt']",restudy,3,"['Vase', 'Bürste', 'Hut', 'Jacke', 'Tasse', 'Kamera', 'Buch', 'Tasche', 'Ring', 'Uhr', 'Rucksack', 'Kette', 'Telefon', 'Eimer', 'Geige', 'Schere', 'Hammer', 'Schlüssel', 'Fahrrad', 'Kerze', 'Blume', 'Socke', 'Würfel', 'Trommel', 'Lampe', 'Stift', 'Löffel', 'Brille', 'Kiste', 'Flasche']","['flach', 'niedlich', 'groß', 'dunkel', 'flauschig', 'blass', 'robust', 'hübsch', 'krumm', 'lang', 'nachhaltig', 'praktisch', 'lustig', 'gestreift', 'hässlich', 'winzig', 'bunt']",1,1.508528300000762,None,,,,,,,,,,,,,,,,,,,,,,,,,,,,,,,,,,,,,,,,,,,,,,,,,,,,,,,,,,,,,,,,,3,2023-12-14_11h11.25.218,watkins1,2023.2.3,99.7310254240786,66,2023-12-14 11h11.32.949396 +0000,
,,,,,,,17,0,17,0,,,,,,,,,,,,,,,,,169.8637280999974,,,,,,,,,,169.85477489999903,170.34573349999846,,,2,2.100001099999645,,,,,,,,,,,,,,,,,,,,,170.34574439999415,176.3543836999961,Schlüssel,dick,"['Schlüssel', 'dick']",test_adj,3,"['Vase', 'Bürste', 'Hut', 'Jacke', 'Tasse', 'Kamera', 'Buch', 'Tasche', 'Ring', 'Uhr', 'Rucksack', 'Kette', 'Telefon', 'Eimer', 'Geige', 'Schere', 'Hammer', 'Schlüssel', 'Fahrrad', 'Kerze', 'Blume', 'Socke', 'Würfel', 'Trommel', 'Lampe', 'Stift', 'Löffel', 'Brille', 'Kiste', 'Flasche']","['flach', 'niedlich', 'groß', 'dunkel', 'flauschig', 'blass', 'robust', 'hübsch', 'krumm', 'lang', 'nachhaltig', 'praktisch', 'lustig', 'gestreift', 'hässlich', 'winzig', 'bunt', 'dick']",2,2.100001099999645,None,,,,,,,,,,,,,,,,,,,,,,,,,,,,,,,,,,,,,,,,,,,,,,,,,,,,,,,,,,,,,,,,,3,2023-12-14_11h11.25.218,watkins1,2023.2.3,99.7310254240786,66,2023-12-14 11h11.32.949396 +0000,
,,,,,,,18,0,18,0,,,,,,,,,,,,,,,,,176.36390050000045,,,,,,,,,,176.3549070999943,176.84593389999645,,,3,2.7352144999968004,,,,,,,,,,,,,,,,,,,,,176.84594509999442,182.84669980000035,Fahrrad,kaputt,"['Fahrrad', 'kaputt']",test_adj,3,"['Vase', 'Bürste', 'Hut', 'Jacke', 'Tasse', 'Kamera', 'Buch', 'Tasche', 'Ring', 'Uhr', 'Rucksack', 'Kette', 'Telefon', 'Eimer', 'Geige', 'Schere', 'Hammer', 'Schlüssel', 'Fahrrad', 'Kerze', 'Blume', 'Socke', 'Würfel', 'Trommel', 'Lampe', 'Stift', 'Löffel', 'Brille', 'Kiste', 'Flasche']","['flach', 'niedlich', 'groß', 'dunkel', 'flauschig', 'blass', 'robust', 'hübsch', 'krumm', 'lang', 'nachhaltig', 'praktisch', 'lustig', 'gestreift', 'hässlich', 'winzig', 'bunt', 'dick', 'kaputt']",3,2.7352144999968004,None,,,,,,,,,,,,,,,,,,,,,,,,,,,,,,,,,,,,,,,,,,,,,,,,,,,,,,,,,,,,,,,,,3,2023-12-14_11h11.25.218,watkins1,2023.2.3,99.7310254240786,66,2023-12-14 11h11.32.949396 +0000,
,,,,,,,19,0,19,0,,,,,,,,,,,,,,,,,182.85606659999758,,,,,,,,,,182.84722759999568,183.3385804999998,,,2,1.7070530000055442,,,,,,,,,,,,,,,,,,,,,183.33859099999972,189.3412970999998,Kerze,klobig,"['Kerze', 'klobig']",test_adj,3,"['Vase', 'Bürste', 'Hut', 'Jacke', 'Tasse', 'Kamera', 'Buch', 'Tasche', 'Ring', 'Uhr', 'Rucksack', 'Kette', 'Telefon', 'Eimer', 'Geige', 'Schere', 'Hammer', 'Schlüssel', 'Fahrrad', 'Kerze', 'Blume', 'Socke', 'Würfel', 'Trommel', 'Lampe', 'Stift', 'Löffel', 'Brille', 'Kiste', 'Flasche']","['flach', 'niedlich', 'groß', 'dunkel', 'flauschig', 'blass', 'robust', 'hübsch', 'krumm', 'lang', 'nachhaltig', 'praktisch', 'lustig', 'gestreift', 'hässlich', 'winzig', 'bunt', 'dick', 'kaputt', 'klobig']",2,1.7070530000055442,None,,,,,,,,,,,,,,,,,,,,,,,,,,,,,,,,,,,,,,,,,,,,,,,,,,,,,,,,,,,,,,,,,3,2023-12-14_11h11.25.218,watkins1,2023.2.3,99.7310254240786,66,2023-12-14 11h11.32.949396 +0000,
,,,,,,,20,0,20,0,,,,,,,,,,,,,,,,,189.35072599999694,,,,,,,,,,189.34183479999774,189.8328790999949,,,1,1.940520900003321,,,,,,,,,,,,,,,,,,,,,189.83288979999634,195.8418950999985,Blume,glänzend,"['Blume', 'glänzend']",restudy,3,"['Vase', 'Bürste', 'Hut', 'Jacke', 'Tasse', 'Kamera', 'Buch', 'Tasche', 'Ring', 'Uhr', 'Rucksack', 'Kette', 'Telefon', 'Eimer', 'Geige', 'Schere', 'Hammer', 'Schlüssel', 'Fahrrad', 'Kerze', 'Blume', 'Socke', 'Würfel', 'Trommel', 'Lampe', 'Stift', 'Löffel', 'Brille', 'Kiste', 'Flasche']","['flach', 'niedlich', 'groß', 'dunkel', 'flauschig', 'blass', 'robust', 'hübsch', 'krumm', 'lang', 'nachhaltig', 'praktisch', 'lustig', 'gestreift', 'hässlich', 'winzig', 'bunt', 'dick', 'kaputt', 'klobig', 'glänzend']",1,1.940520900003321,None,,,,,,,,,,,,,,,,,,,,,,,,,,,,,,,,,,,,,,,,,,,,,,,,,,,,,,,,,,,,,,,,,3,2023-12-14_11h11.25.218,watkins1,2023.2.3,99.7310254240786,66,2023-12-14 11h11.32.949396 +0000,
,,,,,,,21,0,21,0,,,,,,,,,,,,,,,,,195.85130879999633,,,,,,,,,,195.84242090000043,196.33351079999557,,,1,3.160460700004478,,,,,,,,,,,,,,,,,,,,,196.3335208999997,202.34219519999897,Socke,kurz,"['Socke', 'kurz']",test_adj,3,"['Vase', 'Bürste', 'Hut', 'Jacke', 'Tasse', 'Kamera', 'Buch', 'Tasche', 'Ring', 'Uhr', 'Rucksack', 'Kette', 'Telefon', 'Eimer', 'Geige', 'Schere', 'Hammer', 'Schlüssel', 'Fahrrad', 'Kerze', 'Blume', 'Socke', 'Würfel', 'Trommel', 'Lampe', 'Stift', 'Löffel', 'Brille', 'Kiste', 'Flasche']","['flach', 'niedlich', 'groß', 'dunkel', 'flauschig', 'blass', 'robust', 'hübsch', 'krumm', 'lang', 'nachhaltig', 'praktisch', 'lustig', 'gestreift', 'hässlich', 'winzig', 'bunt', 'dick', 'kaputt', 'klobig', 'glänzend', 'kurz']",1,3.160460700004478,None,,,,,,,,,,,,,,,,,,,,,,,,,,,,,,,,,,,,,,,,,,,,,,,,,,,,,,,,,,,,,,,,,3,2023-12-14_11h11.25.218,watkins1,2023.2.3,99.7310254240786,66,2023-12-14 11h11.32.949396 +0000,
,,,,,,,22,0,22,0,,,,,,,,,,,,,,,,,202.35162739999942,,,,,,,,,,202.34271509999962,202.8336252999943,,,2,2.77967190000345,,,,,,,,,,,,,,,,,,,,,202.83363569999347,208.83682409999892,Würfel,matt,"['Würfel', 'matt']",restudy,3,"['Vase', 'Bürste', 'Hut', 'Jacke', 'Tasse', 'Kamera', 'Buch', 'Tasche', 'Ring', 'Uhr', 'Rucksack', 'Kette', 'Telefon', 'Eimer', 'Geige', 'Schere', 'Hammer', 'Schlüssel', 'Fahrrad', 'Kerze', 'Blume', 'Socke', 'Würfel', 'Trommel', 'Lampe', 'Stift', 'Löffel', 'Brille', 'Kiste', 'Flasche']","['flach', 'niedlich', 'groß', 'dunkel', 'flauschig', 'blass', 'robust', 'hübsch', 'krumm', 'lang', 'nachhaltig', 'praktisch', 'lustig', 'gestreift', 'hässlich', 'winzig', 'bunt', 'dick', 'kaputt', 'klobig', 'glänzend', 'kurz', 'matt']",2,2.77967190000345,None,,,,,,,,,,,,,,,,,,,,,,,,,,,,,,,,,,,,,,,,,,,,,,,,,,,,,,,,,,,,,,,,,3,2023-12-14_11h11.25.218,watkins1,2023.2.3,99.7310254240786,66,2023-12-14 11h11.32.949396 +0000,
,,,,,,,23,0,23,0,,,,,,,,,,,,,,,,,208.84625279999455,,,,,,,,,,208.83736379999755,209.32852859999548,,,1,1.8369220999957179,,,,,,,,,,,,,,,,,,,,,209.32853869999963,215.33833569999842,Trommel,elegant,"['Trommel', 'elegant']",test_adj,3,"['Vase', 'Bürste', 'Hut', 'Jacke', 'Tasse', 'Kamera', 'Buch', 'Tasche', 'Ring', 'Uhr', 'Rucksack', 'Kette', 'Telefon', 'Eimer', 'Geige', 'Schere', 'Hammer', 'Schlüssel', 'Fahrrad', 'Kerze', 'Blume', 'Socke', 'Würfel', 'Trommel', 'Lampe', 'Stift', 'Löffel', 'Brille', 'Kiste', 'Flasche']","['flach', 'niedlich', 'groß', 'dunkel', 'flauschig', 'blass', 'robust', 'hübsch', 'krumm', 'lang', 'nachhaltig', 'praktisch', 'lustig', 'gestreift', 'hässlich', 'winzig', 'bunt', 'dick', 'kaputt', 'klobig', 'glänzend', 'kurz', 'matt', 'elegant']",1,1.8369220999957179,None,,,,,,,,,,,,,,,,,,,,,,,,,,,,,,,,,,,,,,,,,,,,,,,,,,,,,,,,,,,,,,,,,3,2023-12-14_11h11.25.218,watkins1,2023.2.3,99.7310254240786,66,2023-12-14 11h11.32.949396 +0000,
,,,,,,,24,0,24,0,,,,,,,,,,,,,,,,,215.34786149999854,,,,,,,,,,215.3388632999995,215.8298888999998,,,3,3.9110516000000644,,,,,,,,,,,,,,,,,,,,,215.82989959999395,221.8317320999995,Lampe,gepunktet,"['Lampe', 'gepunktet']",restudy,3,"['Vase', 'Bürste', 'Hut', 'Jacke', 'Tasse', 'Kamera', 'Buch', 'Tasche', 'Ring', 'Uhr', 'Rucksack', 'Kette', 'Telefon', 'Eimer', 'Geige', 'Schere', 'Hammer', 'Schlüssel', 'Fahrrad', 'Kerze', 'Blume', 'Socke', 'Würfel', 'Trommel', 'Lampe', 'Stift', 'Löffel', 'Brille', 'Kiste', 'Flasche']","['flach', 'niedlich', 'groß', 'dunkel', 'flauschig', 'blass', 'robust', 'hübsch', 'krumm', 'lang', 'nachhaltig', 'praktisch', 'lustig', 'gestreift', 'hässlich', 'winzig', 'bunt', 'dick', 'kaputt', 'klobig', 'glänzend', 'kurz', 'matt', 'elegant', 'gepunktet']",3,3.9110516000000644,None,,,,,,,,,,,,,,,,,,,,,,,,,,,,,,,,,,,,,,,,,,,,,,,,,,,,,,,,,,,,,,,,,3,2023-12-14_11h11.25.218,watkins1,2023.2.3,99.7310254240786,66,2023-12-14 11h11.32.949396 +0000,
,,,,,,,25,0,25,0,,,,,,,,,,,,,,,,,221.8412121999936,,,,,,,,,,221.832259099996,222.3233387999935,,,1,1.6904623999944306,,,,,,,,,,,,,,,,,,,,,222.32334919999994,228.3322182999982,Stift,breit,"['Stift', 'breit']",restudy,3,"['Vase', 'Bürste', 'Hut', 'Jacke', 'Tasse', 'Kamera', 'Buch', 'Tasche', 'Ring', 'Uhr', 'Rucksack', 'Kette', 'Telefon', 'Eimer', 'Geige', 'Schere', 'Hammer', 'Schlüssel', 'Fahrrad', 'Kerze', 'Blume', 'Socke', 'Würfel', 'Trommel', 'Lampe', 'Stift', 'Löffel', 'Brille', 'Kiste', 'Flasche']","['flach', 'niedlich', 'groß', 'dunkel', 'flauschig', 'blass', 'robust', 'hübsch', 'krumm', 'lang', 'nachhaltig', 'praktisch', 'lustig', 'gestreift', 'hässlich', 'winzig', 'bunt', 'dick', 'kaputt', 'klobig', 'glänzend', 'kurz', 'matt', 'elegant', 'gepunktet', 'breit']",1,1.6904623999944306,None,,,,,,,,,,,,,,,,,,,,,,,,,,,,,,,,,,,,,,,,,,,,,,,,,,,,,,,,,,,,,,,,,3,2023-12-14_11h11.25.218,watkins1,2023.2.3,99.7310254240786,66,2023-12-14 11h11.32.949396 +0000,
,,,,,,,26,0,26,0,,,,,,,,,,,,,,,,,228.34166529999493,,,,,,,,,,228.3327449999997,228.82374100000015,,,1,2.060861999998451,,,,,,,,,,,,,,,,,,,,,228.82375189999584,234.82786049999413,Löffel,biegsam,"['Löffel', 'biegsam']",restudy,3,"['Vase', 'Bürste', 'Hut', 'Jacke', 'Tasse', 'Kamera', 'Buch', 'Tasche', 'Ring', 'Uhr', 'Rucksack', 'Kette', 'Telefon', 'Eimer', 'Geige', 'Schere', 'Hammer', 'Schlüssel', 'Fahrrad', 'Kerze', 'Blume', 'Socke', 'Würfel', 'Trommel', 'Lampe', 'Stift', 'Löffel', 'Brille', 'Kiste', 'Flasche']","['flach', 'niedlich', 'groß', 'dunkel', 'flauschig', 'blass', 'robust', 'hübsch', 'krumm', 'lang', 'nachhaltig', 'praktisch', 'lustig', 'gestreift', 'hässlich', 'winzig', 'bunt', 'dick', 'kaputt', 'klobig', 'glänzend', 'kurz', 'matt', 'elegant', 'gepunktet', 'breit', 'biegsam']",1,2.060861999998451,None,,,,,,,,,,,,,,,,,,,,,,,,,,,,,,,,,,,,,,,,,,,,,,,,,,,,,,,,,,,,,,,,,3,2023-12-14_11h11.25.218,watkins1,2023.2.3,99.7310254240786,66,2023-12-14 11h11.32.949396 +0000,
,,,,,,,27,0,27,0,,,,,,,,,,,,,,,,,234.83736659999704,,,,,,,,,,234.82839550000062,235.31936819999828,,,2,2.190460699996038,,,,,,,,,,,,,,,,,,,,,235.31937900000048,241.326281499998,Brille,kalt,"['Brille', 'kalt']",test_adj,3,"['Vase', 'Bürste', 'Hut', 'Jacke', 'Tasse', 'Kamera', 'Buch', 'Tasche', 'Ring', 'Uhr', 'Rucksack', 'Kette', 'Telefon', 'Eimer', 'Geige', 'Schere', 'Hammer', 'Schlüssel', 'Fahrrad', 'Kerze', 'Blume', 'Socke', 'Würfel', 'Trommel', 'Lampe', 'Stift', 'Löffel', 'Brille', 'Kiste', 'Flasche']","['flach', 'niedlich', 'groß', 'dunkel', 'flauschig', 'blass', 'robust', 'hübsch', 'krumm', 'lang', 'nachhaltig', 'praktisch', 'lustig', 'gestreift', 'hässlich', 'winzig', 'bunt', 'dick', 'kaputt', 'klobig', 'glänzend', 'kurz', 'matt', 'elegant', 'gepunktet', 'breit', 'biegsam', 'kalt']",2,2.190460699996038,None,,,,,,,,,,,,,,,,,,,,,,,,,,,,,,,,,,,,,,,,,,,,,,,,,,,,,,,,,,,,,,,,,3,2023-12-14_11h11.25.218,watkins1,2023.2.3,99.7310254240786,66,2023-12-14 11h11.32.949396 +0000,
,,,,,,,28,0,28,0,,,,,,,,,,,,,,,,,241.33576650000032,,,,,,,,,,241.32680640000035,241.81947260000015,,,2,2.5938651000033133,,,,,,,,,,,,,,,,,,,,,241.81948329999432,247.82483839999622,Kiste,schmutzig,"['Kiste', 'schmutzig']",restudy,3,"['Vase', 'Bürste', 'Hut', 'Jacke', 'Tasse', 'Kamera', 'Buch', 'Tasche', 'Ring', 'Uhr', 'Rucksack', 'Kette', 'Telefon', 'Eimer', 'Geige', 'Schere', 'Hammer', 'Schlüssel', 'Fahrrad', 'Kerze', 'Blume', 'Socke', 'Würfel', 'Trommel', 'Lampe', 'Stift', 'Löffel', 'Brille', 'Kiste', 'Flasche']","['flach', 'niedlich', 'groß', 'dunkel', 'flauschig', 'blass', 'robust', 'hübsch', 'krumm', 'lang', 'nachhaltig', 'praktisch', 'lustig', 'gestreift', 'hässlich', 'winzig', 'bunt', 'dick', 'kaputt', 'klobig', 'glänzend', 'kurz', 'matt', 'elegant', 'gepunktet', 'breit', 'biegsam', 'kalt', 'schmutzig']",2,2.5938651000033133,None,,,,,,,,,,,,,,,,,,,,,,,,,,,,,,,,,,,,,,,,,,,,,,,,,,,,,,,,,,,,,,,,,3,2023-12-14_11h11.25.218,watkins1,2023.2.3,99.7310254240786,66,2023-12-14 11h11.32.949396 +0000,
,,,,,,,29,0,29,0,,,,,,,,,,,,,,,,,247.83435299999837,,,,,,,,,,247.82535839999764,248.31639509999513,,,2,1.7532378999967477,,,,,,,,,,,,,,,,,,,,,248.31640609999886,254.31979989999672,Flasche,hohl,"['Flasche', 'hohl']",restudy,3,"['Vase', 'Bürste', 'Hut', 'Jacke', 'Tasse', 'Kamera', 'Buch', 'Tasche', 'Ring', 'Uhr', 'Rucksack', 'Kette', 'Telefon', 'Eimer', 'Geige', 'Schere', 'Hammer', 'Schlüssel', 'Fahrrad', 'Kerze', 'Blume', 'Socke', 'Würfel', 'Trommel', 'Lampe', 'Stift', 'Löffel', 'Brille', 'Kiste', 'Flasche']","['flach', 'niedlich', 'groß', 'dunkel', 'flauschig', 'blass', 'robust', 'hübsch', 'krumm', 'lang', 'nachhaltig', 'praktisch', 'lustig', 'gestreift', 'hässlich', 'winzig', 'bunt', 'dick', 'kaputt', 'klobig', 'glänzend', 'kurz', 'matt', 'elegant', 'gepunktet', 'breit', 'biegsam', 'kalt', 'schmutzig', 'hohl']",2,1.7532378999967477,None,,,,,,,,,,,,,,,,,,,,,,,,,,,,,,,,,,,,,,,,,,,,,,,,,,,,,,,,,,,,,,,,,3,2023-12-14_11h11.25.218,watkins1,2023.2.3,99.7310254240786,66,2023-12-14 11h11.32.949396 +0000,
,,,,,,,,,,,0,0,0,0,,,,,,,,,,,,,254.3293044999955,,,,,,,,,,254.320673299997,254.81112539999594,,,[],[],,,,,,,,,,,,None,None,,,,,,,,,,Kette,praktisch,"['Kette', 'praktisch']",restudy,3,,,,,,254.3205980999992,254.3206452999948,"['Kette', 'Ring', 'Socke', 'Hut', 'Fahrrad', 'Tasse', 'Brille', 'Trommel', 'Würfel', 'Löffel', 'Buch', 'Telefon', 'Kamera', 'Tasche', 'Kerze', 'Rucksack', 'Uhr', 'Flasche', 'Kiste', 'Eimer', 'Schere', 'Stift', 'Geige', 'Lampe', 'Hammer', 'Bürste', 'Vase', 'Blume', 'Jacke', 'Schlüssel']",254.81113659999392,254.81382979999762,None,254.8140207999968,260.82118929999706,1,4.622660900000483,None,260.82161029999406,260.82445009999356,None,260.82461049999984,260.8257794999954,260.82579149999947,260.82702589999826,,,,,,,,,,,,,,,,,,,,,,,,,,,,,,,,,,,,,,,,,,,,,,,3,2023-12-14_11h11.25.218,watkins1,2023.2.3,99.7310254240786,66,2023-12-14 11h11.32.949396 +0000,
,,,,,,,,,,,1,0,1,0,,,,,,,,,,,,,260.8306689999954,,,,,,,,,,260.8273138999939,261.32283499999903,,,[],[],,,,,,,,,,,,None,None,,,,,,,,,,Ring,krumm,"['Ring', 'krumm']",restudy,3,,,,,,260.82724880000023,260.827286599997,"['Kette', 'Ring', 'Socke', 'Hut', 'Fahrrad', 'Tasse', 'Brille', 'Trommel', 'Würfel', 'Löffel', 'Buch', 'Telefon', 'Kamera', 'Tasche', 'Kerze', 'Rucksack', 'Uhr', 'Flasche', 'Kiste', 'Eimer', 'Schere', 'Stift', 'Geige', 'Lampe', 'Hammer', 'Bürste', 'Vase', 'Blume', 'Jacke', 'Schlüssel']",261.32284689999506,261.32556759999716,None,261.3256942999942,267.331328399996,2,3.832423799998651,None,267.3316324999978,267.3341900999949,None,267.33430450000014,267.33535799999663,267.33536989999993,267.33653069999855,,,,,,,,,,,,,,,,,,,,,,,,,,,,,,,,,,,,,,,,,,,,,,,3,2023-12-14_11h11.25.218,watkins1,2023.2.3,99.7310254240786,66,2023-12-14 11h11.32.949396 +0000,
,,,,,,,,,,,2,0,2,0,,,,,,,,,,,,,267.340764099994,,,,,,,,,,267.33682379999664,267.83280039999954,,,[],[],,,,,,,,,,,kurz,None,None,,,,,,,,,,Socke,kurz,"['Socke', 'kurz']",test_adj,3,,,,,,267.3367586999957,267.3367967999948,"['Kette', 'Ring', 'Socke', 'Hut', 'Fahrrad', 'Tasse', 'Brille', 'Trommel', 'Würfel', 'Löffel', 'Buch', 'Telefon', 'Kamera', 'Tasche', 'Kerze', 'Rucksack', 'Uhr', 'Flasche', 'Kiste', 'Eimer', 'Schere', 'Stift', 'Geige', 'Lampe', 'Hammer', 'Bürste', 'Vase', 'Blume', 'Jacke', 'Schlüssel']",267.8328116999983,267.83565709999675,None,267.83578499999567,267.83722919999855,None,,,267.8373441999938,267.8387522999983,None,267.83886229999916,273.8417591999969,273.84177369999816,273.8429430999968,0,,,,,,,,,,,,,,,,,,,,,,,,,,,,,,,,,,,,,,,,,,,,,,3,2023-12-14_11h11.25.218,watkins1,2023.2.3,99.7310254240786,66,2023-12-14 11h11.32.949396 +0000,
,,,,,,,,,,,3,0,3,0,,,,,,,,,,,,,273.8515109,,,,,,,,,,273.84323619999486,274.3336846999955,,,[],[],,,,,,,,,,,,None,None,,,,,,,,,,Hut,groß,"['Hut', 'groß']",restudy,3,,,,,,273.8431674999956,273.8432063999935,"['Kette', 'Ring', 'Socke', 'Hut', 'Fahrrad', 'Tasse', 'Brille', 'Trommel', 'Würfel', 'Löffel', 'Buch', 'Telefon', 'Kamera', 'Tasche', 'Kerze', 'Rucksack', 'Uhr', 'Flasche', 'Kiste', 'Eimer', 'Schere', 'Stift', 'Geige', 'Lampe', 'Hammer', 'Bürste', 'Vase', 'Blume', 'Jacke', 'Schlüssel']",274.3336954999977,274.3361159999986,None,274.33624069999496,280.3375681999969,3,5.0537584999983665,None,280.3378640999945,280.3402294999978,None,280.3403423999989,280.34166049999476,280.34167219999654,280.3426956999974,,,,,,,,,,,,,,,,,,,,,,,,,,,,,,,,,,,,,,,,,,,,,,,3,2023-12-14_11h11.25.218,watkins1,2023.2.3,99.7310254240786,66,2023-12-14 11h11.32.949396 +0000,
,,,,,,,,,,,4,0,4,0,,,,,,,,,,,,,280.3471542999978,,,,,,,,,,280.34298309999576,280.8390686999992,,,[],[],,,,,,,,,,,kaputt,None,None,,,,,,,,,,Fahrrad,kaputt,"['Fahrrad', 'kaputt']",test_adj,3,,,,,,280.34291819999635,280.3429565999977,"['Kette', 'Ring', 'Socke', 'Hut', 'Fahrrad', 'Tasse', 'Brille', 'Trommel', 'Würfel', 'Löffel', 'Buch', 'Telefon', 'Kamera', 'Tasche', 'Kerze', 'Rucksack', 'Uhr', 'Flasche', 'Kiste', 'Eimer', 'Schere', 'Stift', 'Geige', 'Lampe', 'Hammer', 'Bürste', 'Vase', 'Blume', 'Jacke', 'Schlüssel']",280.8390795999949,280.84168459999637,None,280.84181309999985,280.8432818000001,None,,,280.8433922999975,280.84485549999954,None,280.8449649999966,286.84709809999913,286.84711309999693,286.8484288999971,0,,,,,,,,,,,,,,,,,,,,,,,,,,,,,,,,,,,,,,,,,,,,,,3,2023-12-14_11h11.25.218,watkins1,2023.2.3,99.7310254240786,66,2023-12-14 11h11.32.949396 +0000,
,,,,,,,,,,,5,0,5,0,,,,,,,,,,,,,286.8569569999963,,,,,,,,,,286.84871839999687,287.33925619999354,,,[],[],,,,,,,,,,,,None,None,,,,,,,,,,Tasse,flauschig,"['Tasse', 'flauschig']",restudy,3,,,,,,286.84865010000067,286.84868899999856,"['Kette', 'Ring', 'Socke', 'Hut', 'Fahrrad', 'Tasse', 'Brille', 'Trommel', 'Würfel', 'Löffel', 'Buch', 'Telefon', 'Kamera', 'Tasche', 'Kerze', 'Rucksack', 'Uhr', 'Flasche', 'Kiste', 'Eimer', 'Schere', 'Stift', 'Geige', 'Lampe', 'Hammer', 'Bürste', 'Vase', 'Blume', 'Jacke', 'Schlüssel']",287.3392666,287.3419028999997,None,287.3420235999947,293.3485711999965,1,2.591797699999006,None,293.348868999994,293.35161309999967,None,293.35172579999926,293.3532119999945,293.3532236999963,293.3544671999989,,,,,,,,,,,,,,,,,,,,,,,,,,,,,,,,,,,,,,,,,,,,,,,3,2023-12-14_11h11.25.218,watkins1,2023.2.3,99.7310254240786,66,2023-12-14 11h11.32.949396 +0000,
,,,,,,,,,,,6,0,6,0,,,,,,,,,,,,,293.35809750000044,,,,,,,,,,293.3547529999996,293.8501432999983,,,[],[],,,,,,,,,,,kalt,None,None,,,,,,,,,,Brille,kalt,"['Brille', 'kalt']",test_adj,3,,,,,,293.35468489999766,293.35472379999555,"['Kette', 'Ring', 'Socke', 'Hut', 'Fahrrad', 'Tasse', 'Brille', 'Trommel', 'Würfel', 'Löffel', 'Buch', 'Telefon', 'Kamera', 'Tasche', 'Kerze', 'Rucksack', 'Uhr', 'Flasche', 'Kiste', 'Eimer', 'Schere', 'Stift', 'Geige', 'Lampe', 'Hammer', 'Bürste', 'Vase', 'Blume', 'Jacke', 'Schlüssel']",293.850154199994,293.8529244999954,None,293.85305119999975,293.854488099998,None,,,293.8545976999958,293.8562005999993,None,293.8563093999983,299.85934129999805,299.8593559000001,299.8605363999959,0,,,,,,,,,,,,,,,,,,,,,,,,,,,,,,,,,,,,,,,,,,,,,,3,2023-12-14_11h11.25.218,watkins1,2023.2.3,99.7310254240786,66,2023-12-14 11h11.32.949396 +0000,
,,,,,,,,,,,7,0,7,0,,,,,,,,,,,,,299.8691933999944,,,,,,,,,,299.8608272999991,300.35127069999726,,,[],[],,,,,,,,,,,,None,None,,,,,,,,,,Trommel,elegant,"['Trommel', 'elegant']",test_adj,3,,,,,,299.8607570999957,299.8607961999951,"['Kette', 'Ring', 'Socke', 'Hut', 'Fahrrad', 'Tasse', 'Brille', 'Trommel', 'Würfel', 'Löffel', 'Buch', 'Telefon', 'Kamera', 'Tasche', 'Kerze', 'Rucksack', 'Uhr', 'Flasche', 'Kiste', 'Eimer', 'Schere', 'Stift', 'Geige', 'Lampe', 'Hammer', 'Bürste', 'Vase', 'Blume', 'Jacke', 'Schlüssel']",300.35128099999565,300.3538783999975,None,300.3540059999941,300.3564388999948,None,,,300.3565484999999,300.3591180999938,None,300.35922500000015,306.3648524999953,306.36486689999583,306.36620910000056,0,,,,,,,,,,,,,,,,,,,,,,,,,,,,,,,,,,,,,,,,,,,,,,3,2023-12-14_11h11.25.218,watkins1,2023.2.3,99.7310254240786,66,2023-12-14 11h11.32.949396 +0000,
,,,,,,,,,,,8,0,8,0,,,,,,,,,,,,,306.3747163999942,,,,,,,,,,306.36649499999476,306.8566344999999,,,[],[],,,,,,,,,,,,None,None,,,,,,,,,,Würfel,matt,"['Würfel', 'matt']",restudy,3,,,,,,306.36642749999737,306.36646610000025,"['Kette', 'Ring', 'Socke', 'Hut', 'Fahrrad', 'Tasse', 'Brille', 'Trommel', 'Würfel', 'Löffel', 'Buch', 'Telefon', 'Kamera', 'Tasche', 'Kerze', 'Rucksack', 'Uhr', 'Flasche', 'Kiste', 'Eimer', 'Schere', 'Stift', 'Geige', 'Lampe', 'Hammer', 'Bürste', 'Vase', 'Blume', 'Jacke', 'Schlüssel']",306.8566456999979,306.85937289999856,None,306.8594985999953,312.8671638999949,3,4.754499199996644,None,312.8674497999964,312.8700506999958,None,312.87016169999697,312.8713359999965,312.871347399996,312.8723991000006,,,,,,,,,,,,,,,,,,,,,,,,,,,,,,,,,,,,,,,,,,,,,,,3,2023-12-14_11h11.25.218,watkins1,2023.2.3,99.7310254240786,66,2023-12-14 11h11.32.949396 +0000,
,,,,,,,,,,,9,0,9,0,,,,,,,,,,,,,312.8767402999947,,,,,,,,,,312.8727039000005,313.3690662999943,,,[],[],,,,,,,,,,,,None,None,,,,,,,,,,Löffel,biegsam,"['Löffel', 'biegsam']",restudy,3,,,,,,312.8726400999949,312.8726772999944,"['Kette', 'Ring', 'Socke', 'Hut', 'Fahrrad', 'Tasse', 'Brille', 'Trommel', 'Würfel', 'Löffel', 'Buch', 'Telefon', 'Kamera', 'Tasche', 'Kerze', 'Rucksack', 'Uhr', 'Flasche', 'Kiste', 'Eimer', 'Schere', 'Stift', 'Geige', 'Lampe', 'Hammer', 'Bürste', 'Vase', 'Blume', 'Jacke', 'Schlüssel']",313.36907669999346,313.37161199999537,None,313.37173419999453,319.377195999994,1,3.1941408999991836,None,319.3774851999988,319.3801766999968,None,319.3802890999941,319.38147229999595,319.3814837999962,319.38266589999694,,,,,,,,,,,,,,,,,,,,,,,,,,,,,,,,,,,,,,,,,,,,,,,3,2023-12-14_11h11.25.218,watkins1,2023.2.3,99.7310254240786,66,2023-12-14 11h11.32.949396 +0000,
,,,,,,,,,,,10,0,10,0,,,,,,,,,,,,,319.3865764000002,,,,,,,,,,319.3829442999995,319.87880729999597,,,[],[],,,,,,,,,,,,None,None,,,,,,,,,,Buch,robust,"['Buch', 'robust']",restudy,3,,,,,,319.38288029999967,319.3829175999999,"['Kette', 'Ring', 'Socke', 'Hut', 'Fahrrad', 'Tasse', 'Brille', 'Trommel', 'Würfel', 'Löffel', 'Buch', 'Telefon', 'Kamera', 'Tasche', 'Kerze', 'Rucksack', 'Uhr', 'Flasche', 'Kiste', 'Eimer', 'Schere', 'Stift', 'Geige', 'Lampe', 'Hammer', 'Bürste', 'Vase', 'Blume', 'Jacke', 'Schlüssel']",319.87881849999394,319.88140369999746,None,319.881524599994,325.88289280000026,2,2.092293299996527,None,325.88319090000005,325.8857465999972,None,325.8858588000003,325.8869016999961,325.88691319999634,325.88807950000046,,,,,,,,,,,,,,,,,,,,,,,,,,,,,,,,,,,,,,,,,,,,,,,3,2023-12-14_11h11.25.218,watkins1,2023.2.3,99.7310254240786,66,2023-12-14 11h11.32.949396 +0000,
,,,,,,,,,,,11,0,11,0,,,,,,,,,,,,,325.8923408999981,,,,,,,,,,325.8883612999998,326.38450190000003,,,[],[],,,,,,,,,,,,None,None,,,,,,,,,,Telefon,lustig,"['Telefon', 'lustig']",restudy,3,,,,,,325.8882964999939,325.88833429999795,"['Kette', 'Ring', 'Socke', 'Hut', 'Fahrrad', 'Tasse', 'Brille', 'Trommel', 'Würfel', 'Löffel', 'Buch', 'Telefon', 'Kamera', 'Tasche', 'Kerze', 'Rucksack', 'Uhr', 'Flasche', 'Kiste', 'Eimer', 'Schere', 'Stift', 'Geige', 'Lampe', 'Hammer', 'Bürste', 'Vase', 'Blume', 'Jacke', 'Schlüssel']",326.3845125999942,326.3872090999939,None,326.38733339999453,332.3892310999945,1,2.3066279999984545,None,332.389528599997,332.3924298999991,None,332.39255299999786,332.39384239999345,332.39385489999404,332.3950998999935,,,,,,,,,,,,,,,,,,,,,,,,,,,,,,,,,,,,,,,,,,,,,,,3,2023-12-14_11h11.25.218,watkins1,2023.2.3,99.7310254240786,66,2023-12-14 11h11.32.949396 +0000,
,,,,,,,,,,,12,0,12,0,,,,,,,,,,,,,332.39867189999495,,,,,,,,,,332.3953851999977,332.8908298999959,,,[],[],,,,,,,,,,,,None,None,,,,,,,,,,Kamera,blass,"['Kamera', 'blass']",test_adj,3,,,,,,332.3953188999949,332.39535729999625,"['Kette', 'Ring', 'Socke', 'Hut', 'Fahrrad', 'Tasse', 'Brille', 'Trommel', 'Würfel', 'Löffel', 'Buch', 'Telefon', 'Kamera', 'Tasche', 'Kerze', 'Rucksack', 'Uhr', 'Flasche', 'Kiste', 'Eimer', 'Schere', 'Stift', 'Geige', 'Lampe', 'Hammer', 'Bürste', 'Vase', 'Blume', 'Jacke', 'Schlüssel']",332.8908419999934,332.8935846999957,None,332.89371129999927,332.89516049999656,None,,,332.89526929999556,332.896722999998,None,332.89683369999693,338.89926410000044,338.8992775999941,338.90055539999594,0,,,,,,,,,,,,,,,,,,,,,,,,,,,,,,,,,,,,,,,,,,,,,,3,2023-12-14_11h11.25.218,watkins1,2023.2.3,99.7310254240786,66,2023-12-14 11h11.32.949396 +0000,
,,,,,,,,,,,13,0,13,0,,,,,,,,,,,,,338.9091036999962,,,,,,,,,,338.9008367999995,339.39108529999794,,,[],[],,,,,,,,,,,,None,None,,,,,,,,,,Tasche,hübsch,"['Tasche', 'hübsch']",test_adj,3,,,,,,338.9007704999967,338.90080809999927,"['Kette', 'Ring', 'Socke', 'Hut', 'Fahrrad', 'Tasse', 'Brille', 'Trommel', 'Würfel', 'Löffel', 'Buch', 'Telefon', 'Kamera', 'Tasche', 'Kerze', 'Rucksack', 'Uhr', 'Flasche', 'Kiste', 'Eimer', 'Schere', 'Stift', 'Geige', 'Lampe', 'Hammer', 'Bürste', 'Vase', 'Blume', 'Jacke', 'Schlüssel']",339.39109559999633,339.3938782999976,None,339.3940039999943,339.3965454999998,None,,,339.3966555999941,339.39924379999866,None,339.3993529999934,345.4039214999939,345.4039354999986,345.40528499999346,0,,,,,,,,,,,,,,,,,,,,,,,,,,,,,,,,,,,,,,,,,,,,,,3,2023-12-14_11h11.25.218,watkins1,2023.2.3,99.7310254240786,66,2023-12-14 11h11.32.949396 +0000,
,,,,,,,,,,,14,0,14,0,,,,,,,,,,,,,345.41377349999675,,,,,,,,,,345.40557029999763,345.89578409999376,,,[],[],,,,,,,,,,,,None,None,,,,,,,,,,Kerze,klobig,"['Kerze', 'klobig']",test_adj,3,,,,,,345.4055032999968,345.4055415999974,"['Kette', 'Ring', 'Socke', 'Hut', 'Fahrrad', 'Tasse', 'Brille', 'Trommel', 'Würfel', 'Löffel', 'Buch', 'Telefon', 'Kamera', 'Tasche', 'Kerze', 'Rucksack', 'Uhr', 'Flasche', 'Kiste', 'Eimer', 'Schere', 'Stift', 'Geige', 'Lampe', 'Hammer', 'Bürste', 'Vase', 'Blume', 'Jacke', 'Schlüssel']",345.8957949999967,345.8984876999966,None,345.89861729999393,345.90115429999423,None,,,345.90126409999357,345.90397619999567,None,345.9040838000001,351.90863729999546,351.9086515999952,351.90996359999554,0,,,,,,,,,,,,,,,,,,,,,,,,,,,,,,,,,,,,,,,,,,,,,,3,2023-12-14_11h11.25.218,watkins1,2023.2.3,99.7310254240786,66,2023-12-14 11h11.32.949396 +0000,
,,,,,,,,,,,15,0,15,0,,,,,,,,,,,,,351.9184380000006,,,,,,,,,,351.9102505999981,352.4004205999954,,,[],[],,,,,,,,,,,nachhaltig,None,None,,,,,,,,,,Rucksack,nachhaltig,"['Rucksack', 'nachhaltig']",test_adj,3,,,,,,351.9101842999953,351.9102223999944,"['Kette', 'Ring', 'Socke', 'Hut', 'Fahrrad', 'Tasse', 'Brille', 'Trommel', 'Würfel', 'Löffel', 'Buch', 'Telefon', 'Kamera', 'Tasche', 'Kerze', 'Rucksack', 'Uhr', 'Flasche', 'Kiste', 'Eimer', 'Schere', 'Stift', 'Geige', 'Lampe', 'Hammer', 'Bürste', 'Vase', 'Blume', 'Jacke', 'Schlüssel']",352.40043189999415,352.4033477999983,None,352.40347420000035,352.4060629999949,None,,,352.4061714999989,352.4087564999936,None,352.4088657999964,358.4133877999993,358.4134023999941,358.41478300000017,0,,,,,,,,,,,,,,,,,,,,,,,,,,,,,,,,,,,,,,,,,,,,,,3,2023-12-14_11h11.25.218,watkins1,2023.2.3,99.7310254240786,66,2023-12-14 11h11.32.949396 +0000,
,,,,,,,,,,,16,0,16,0,,,,,,,,,,,,,358.4231946999935,,,,,,,,,,358.4150720999969,358.9053203000003,,,[],[],,,,,,,,,,,lang,None,None,,,,,,,,,,Uhr,lang,"['Uhr', 'lang']",test_adj,3,,,,,,358.4150032999969,358.4150429999936,"['Kette', 'Ring', 'Socke', 'Hut', 'Fahrrad', 'Tasse', 'Brille', 'Trommel', 'Würfel', 'Löffel', 'Buch', 'Telefon', 'Kamera', 'Tasche', 'Kerze', 'Rucksack', 'Uhr', 'Flasche', 'Kiste', 'Eimer', 'Schere', 'Stift', 'Geige', 'Lampe', 'Hammer', 'Bürste', 'Vase', 'Blume', 'Jacke', 'Schlüssel']",358.9053309999945,358.90795909999724,None,358.9080818000002,358.9107368999976,None,,,358.9108474999957,358.91330899999593,None,358.9134167999946,364.91814929999964,364.91816379999364,364.9193363999948,0,,,,,,,,,,,,,,,,,,,,,,,,,,,,,,,,,,,,,,,,,,,,,,3,2023-12-14_11h11.25.218,watkins1,2023.2.3,99.7310254240786,66,2023-12-14 11h11.32.949396 +0000,
,,,,,,,,,,,17,0,17,0,,,,,,,,,,,,,364.92794069999945,,,,,,,,,,364.91963179999584,365.4100657999952,,,[],[],,,,,,,,,,,,None,None,,,,,,,,,,Flasche,hohl,"['Flasche', 'hohl']",restudy,3,,,,,,364.9195613999982,364.9196019999945,"['Kette', 'Ring', 'Socke', 'Hut', 'Fahrrad', 'Tasse', 'Brille', 'Trommel', 'Würfel', 'Löffel', 'Buch', 'Telefon', 'Kamera', 'Tasche', 'Kerze', 'Rucksack', 'Uhr', 'Flasche', 'Kiste', 'Eimer', 'Schere', 'Stift', 'Geige', 'Lampe', 'Hammer', 'Bürste', 'Vase', 'Blume', 'Jacke', 'Schlüssel']",365.41007709999394,365.412659499998,None,365.41278659999807,371.41838629999984,3,3.033410600000934,None,371.41868959999556,371.4214154000001,None,371.42152859999624,371.4230521999998,371.42306399999507,371.4241127999994,,,,,,,,,,,,,,,,,,,,,,,,,,,,,,,,,,,,,,,,,,,,,,,3,2023-12-14_11h11.25.218,watkins1,2023.2.3,99.7310254240786,66,2023-12-14 11h11.32.949396 +0000,
,,,,,,,,,,,18,0,18,0,,,,,,,,,,,,,371.42781139999715,,,,,,,,,,371.4243972999975,371.9200276999982,,,[],[],,,,,,,,,,,,None,None,,,,,,,,,,Kiste,schmutzig,"['Kiste', 'schmutzig']",restudy,3,,,,,,371.4243317999935,371.42437079999945,"['Kette', 'Ring', 'Socke', 'Hut', 'Fahrrad', 'Tasse', 'Brille', 'Trommel', 'Würfel', 'Löffel', 'Buch', 'Telefon', 'Kamera', 'Tasche', 'Kerze', 'Rucksack', 'Uhr', 'Flasche', 'Kiste', 'Eimer', 'Schere', 'Stift', 'Geige', 'Lampe', 'Hammer', 'Bürste', 'Vase', 'Blume', 'Jacke', 'Schlüssel']",371.9200395999942,371.9226428999973,None,371.92276839999977,377.92483009999705,2,2.7949003000030643,None,377.92513089999557,377.9279736999961,None,377.92808529999456,377.92924579999817,377.92925759999343,377.9304997999934,,,,,,,,,,,,,,,,,,,,,,,,,,,,,,,,,,,,,,,,,,,,,,,3,2023-12-14_11h11.25.218,watkins1,2023.2.3,99.7310254240786,66,2023-12-14 11h11.32.949396 +0000,
,,,,,,,,,,,19,0,19,0,,,,,,,,,,,,,377.93435759999556,,,,,,,,,,377.93078469999455,378.42645349999657,,,[],[],,,,,,,,,,,flau,None,None,,,,,,,,,,Eimer,gestreift,"['Eimer', 'gestreift']",test_adj,3,,,,,,377.9307162999976,377.93075469999894,"['Kette', 'Ring', 'Socke', 'Hut', 'Fahrrad', 'Tasse', 'Brille', 'Trommel', 'Würfel', 'Löffel', 'Buch', 'Telefon', 'Kamera', 'Tasche', 'Kerze', 'Rucksack', 'Uhr', 'Flasche', 'Kiste', 'Eimer', 'Schere', 'Stift', 'Geige', 'Lampe', 'Hammer', 'Bürste', 'Vase', 'Blume', 'Jacke', 'Schlüssel']",378.4264652999991,378.42925829999876,None,378.4293843999985,378.4308175999977,None,,,378.4309276999993,378.43239289999474,None,378.4325058999966,384.4347634000005,384.43477809999604,384.43610759999865,0,,,,,,,,,,,,,,,,,,,,,,,,,,,,,,,,,,,,,,,,,,,,,,3,2023-12-14_11h11.25.218,watkins1,2023.2.3,99.7310254240786,66,2023-12-14 11h11.32.949396 +0000,
,,,,,,,,,,,20,0,20,0,,,,,,,,,,,,,384.4445921999941,,,,,,,,,,384.43639789999725,384.9265266999937,,,[],[],,,,,,,,,,,winzig,None,None,,,,,,,,,,Schere,winzig,"['Schere', 'winzig']",test_adj,3,,,,,,384.43632909999724,384.43636819999665,"['Kette', 'Ring', 'Socke', 'Hut', 'Fahrrad', 'Tasse', 'Brille', 'Trommel', 'Würfel', 'Löffel', 'Buch', 'Telefon', 'Kamera', 'Tasche', 'Kerze', 'Rucksack', 'Uhr', 'Flasche', 'Kiste', 'Eimer', 'Schere', 'Stift', 'Geige', 'Lampe', 'Hammer', 'Bürste', 'Vase', 'Blume', 'Jacke', 'Schlüssel']",384.9265376999974,384.92929770000046,None,384.92942729999777,384.9320540999979,None,,,384.9321634999942,384.93476530000044,None,384.9348738999979,390.9398461999954,390.9398609999989,390.94114219999756,0,,,,,,,,,,,,,,,,,,,,,,,,,,,,,,,,,,,,,,,,,,,,,,3,2023-12-14_11h11.25.218,watkins1,2023.2.3,99.7310254240786,66,2023-12-14 11h11.32.949396 +0000,
,,,,,,,,,,,21,0,21,0,,,,,,,,,,,,,390.94961709999916,,,,,,,,,,390.94143469999835,391.4317210999943,,,[],[],,,,,,,,,,,,None,None,,,,,,,,,,Stift,breit,"['Stift', 'breit']",restudy,3,,,,,,390.94136389999767,390.9414042999997,"['Kette', 'Ring', 'Socke', 'Hut', 'Fahrrad', 'Tasse', 'Brille', 'Trommel', 'Würfel', 'Löffel', 'Buch', 'Telefon', 'Kamera', 'Tasche', 'Kerze', 'Rucksack', 'Uhr', 'Flasche', 'Kiste', 'Eimer', 'Schere', 'Stift', 'Geige', 'Lampe', 'Hammer', 'Bürste', 'Vase', 'Blume', 'Jacke', 'Schlüssel']",391.4317318999965,391.4343879999942,None,391.4345111999937,397.4442473999952,1,2.5393879000039306,None,397.44455589999416,397.4472308999975,None,397.4473443999959,397.4488318999938,397.4488437999971,397.4499968999953,,,,,,,,,,,,,,,,,,,,,,,,,,,,,,,,,,,,,,,,,,,,,,,3,2023-12-14_11h11.25.218,watkins1,2023.2.3,99.7310254240786,66,2023-12-14 11h11.32.949396 +0000,
,,,,,,,,,,,22,0,22,0,,,,,,,,,,,,,397.4536670999951,,,,,,,,,,397.45028230000025,397.94586599999457,,,[],[],,,,,,,,,,,hässlich,None,None,,,,,,,,,,Geige,hässlich,"['Geige', 'hässlich']",test_adj,3,,,,,,397.4502169999978,397.4502551999976,"['Kette', 'Ring', 'Socke', 'Hut', 'Fahrrad', 'Tasse', 'Brille', 'Trommel', 'Würfel', 'Löffel', 'Buch', 'Telefon', 'Kamera', 'Tasche', 'Kerze', 'Rucksack', 'Uhr', 'Flasche', 'Kiste', 'Eimer', 'Schere', 'Stift', 'Geige', 'Lampe', 'Hammer', 'Bürste', 'Vase', 'Blume', 'Jacke', 'Schlüssel']",397.94587739999406,397.9485480999938,None,397.94867499999964,397.95009559999744,None,,,397.95020490000024,397.9516236999989,None,397.951733899994,403.95400069999596,403.95401619999757,403.95535749999544,0,,,,,,,,,,,,,,,,,,,,,,,,,,,,,,,,,,,,,,,,,,,,,,3,2023-12-14_11h11.25.218,watkins1,2023.2.3,99.7310254240786,66,2023-12-14 11h11.32.949396 +0000,
,,,,,,,,,,,23,0,23,0,,,,,,,,,,,,,403.9637616999971,,,,,,,,,,403.95565329999954,404.4457056999963,,,[],[],,,,,,,,,,,,None,None,,,,,,,,,,Lampe,gepunktet,"['Lampe', 'gepunktet']",restudy,3,,,,,,403.9555831999969,403.9556223999971,"['Kette', 'Ring', 'Socke', 'Hut', 'Fahrrad', 'Tasse', 'Brille', 'Trommel', 'Würfel', 'Löffel', 'Buch', 'Telefon', 'Kamera', 'Tasche', 'Kerze', 'Rucksack', 'Uhr', 'Flasche', 'Kiste', 'Eimer', 'Schere', 'Stift', 'Geige', 'Lampe', 'Hammer', 'Bürste', 'Vase', 'Blume', 'Jacke', 'Schlüssel']",404.44571699999506,404.4485710999943,None,404.4486988999997,410.4563421999992,3,2.3090119999978924,None,410.4566449999984,410.45933669999795,None,410.45944939999754,410.4608986999956,410.4609105999989,410.4622584999961,,,,,,,,,,,,,,,,,,,,,,,,,,,,,,,,,,,,,,,,,,,,,,,3,2023-12-14_11h11.25.218,watkins1,2023.2.3,99.7310254240786,66,2023-12-14 11h11.32.949396 +0000,
,,,,,,,,,,,24,0,24,0,,,,,,,,,,,,,410.46586679999746,,,,,,,,,,410.4625382999948,410.95800349999627,,,[],[],,,,,,,,,,,,None,None,,,,,,,,,,Hammer,bunt,"['Hammer', 'bunt']",restudy,3,,,,,,410.4624732999946,410.4625113999937,"['Kette', 'Ring', 'Socke', 'Hut', 'Fahrrad', 'Tasse', 'Brille', 'Trommel', 'Würfel', 'Löffel', 'Buch', 'Telefon', 'Kamera', 'Tasche', 'Kerze', 'Rucksack', 'Uhr', 'Flasche', 'Kiste', 'Eimer', 'Schere', 'Stift', 'Geige', 'Lampe', 'Hammer', 'Bürste', 'Vase', 'Blume', 'Jacke', 'Schlüssel']",410.95801409999694,410.96073979999346,None,410.9608668000001,416.96465469999384,1,1.9572757999994792,None,416.9649513999975,416.96747519999917,None,416.9675885999968,416.96875069999805,416.96876239999983,416.96978359999775,,,,,,,,,,,,,,,,,,,,,,,,,,,,,,,,,,,,,,,,,,,,,,,3,2023-12-14_11h11.25.218,watkins1,2023.2.3,99.7310254240786,66,2023-12-14 11h11.32.949396 +0000,
,,,,,,,,,,,25,0,25,0,,,,,,,,,,,,,416.97409389999666,,,,,,,,,,416.97006829999737,417.46614489999774,,,[],[],,,,,,,,,,,hüb,None,None,,,,,,,,,,Bürste,niedlich,"['Bürste', 'niedlich']",test_adj,3,,,,,,416.9700009999942,416.97003889999905,"['Kette', 'Ring', 'Socke', 'Hut', 'Fahrrad', 'Tasse', 'Brille', 'Trommel', 'Würfel', 'Löffel', 'Buch', 'Telefon', 'Kamera', 'Tasche', 'Kerze', 'Rucksack', 'Uhr', 'Flasche', 'Kiste', 'Eimer', 'Schere', 'Stift', 'Geige', 'Lampe', 'Hammer', 'Bürste', 'Vase', 'Blume', 'Jacke', 'Schlüssel']",417.466156399998,417.4687111999956,None,417.4688354999962,417.4702612999972,None,,,417.4703700999962,417.4717997999978,None,417.471910799999,423.4736438999971,423.47365849999915,423.47499329999846,0,,,,,,,,,,,,,,,,,,,,,,,,,,,,,,,,,,,,,,,,,,,,,,3,2023-12-14_11h11.25.218,watkins1,2023.2.3,99.7310254240786,66,2023-12-14 11h11.32.949396 +0000,
,,,,,,,,,,,26,0,26,0,,,,,,,,,,,,,423.48339660000056,,,,,,,,,,423.4752812000006,423.96552489999885,,,[],[],,,,,,,,,,,flach,None,None,,,,,,,,,,Vase,flach,"['Vase', 'flach']",test_adj,3,,,,,,423.47521339999366,423.4752520999973,"['Kette', 'Ring', 'Socke', 'Hut', 'Fahrrad', 'Tasse', 'Brille', 'Trommel', 'Würfel', 'Löffel', 'Buch', 'Telefon', 'Kamera', 'Tasche', 'Kerze', 'Rucksack', 'Uhr', 'Flasche', 'Kiste', 'Eimer', 'Schere', 'Stift', 'Geige', 'Lampe', 'Hammer', 'Bürste', 'Vase', 'Blume', 'Jacke', 'Schlüssel']",423.9655361999976,423.96817069999815,None,423.96829649999563,423.97075380000024,None,,,423.97086569999374,423.97346429999743,None,423.9735742999983,429.97805259999586,429.9780666000006,429.9794511,0,,,,,,,,,,,,,,,,,,,,,,,,,,,,,,,,,,,,,,,,,,,,,,3,2023-12-14_11h11.25.218,watkins1,2023.2.3,99.7310254240786,66,2023-12-14 11h11.32.949396 +0000,
,,,,,,,,,,,27,0,27,0,,,,,,,,,,,,,429.9878518999976,,,,,,,,,,429.97973959999945,430.46993179999845,,,[],[],,,,,,,,,,,,None,None,,,,,,,,,,Blume,glänzend,"['Blume', 'glänzend']",restudy,3,,,,,,429.9796705999979,429.9797105999969,"['Kette', 'Ring', 'Socke', 'Hut', 'Fahrrad', 'Tasse', 'Brille', 'Trommel', 'Würfel', 'Löffel', 'Buch', 'Telefon', 'Kamera', 'Tasche', 'Kerze', 'Rucksack', 'Uhr', 'Flasche', 'Kiste', 'Eimer', 'Schere', 'Stift', 'Geige', 'Lampe', 'Hammer', 'Bürste', 'Vase', 'Blume', 'Jacke', 'Schlüssel']",430.46994260000065,430.4727153999993,None,430.4728402999972,436.47556809999514,1,1.972827799996594,None,436.4758662999957,436.47866429999704,None,436.4787775999939,436.4802322999967,436.4802439999985,436.48143219999474,,,,,,,,,,,,,,,,,,,,,,,,,,,,,,,,,,,,,,,,,,,,,,,3,2023-12-14_11h11.25.218,watkins1,2023.2.3,99.7310254240786,66,2023-12-14 11h11.32.949396 +0000,
,,,,,,,,,,,28,0,28,0,,,,,,,,,,,,,436.48507779999636,,,,,,,,,,436.48171269999875,436.97725619999983,,,[],[],,,,,,,,,,,,None,None,,,,,,,,,,Jacke,dunkel,"['Jacke', 'dunkel']",restudy,3,,,,,,436.48164749999705,436.4816855999961,"['Kette', 'Ring', 'Socke', 'Hut', 'Fahrrad', 'Tasse', 'Brille', 'Trommel', 'Würfel', 'Löffel', 'Buch', 'Telefon', 'Kamera', 'Tasche', 'Kerze', 'Rucksack', 'Uhr', 'Flasche', 'Kiste', 'Eimer', 'Schere', 'Stift', 'Geige', 'Lampe', 'Hammer', 'Bürste', 'Vase', 'Blume', 'Jacke', 'Schlüssel']",436.9772668000005,436.9799569999959,None,436.9800816999996,442.9893102999995,3,5.801896600001783,None,442.98960459999944,442.99258279999776,None,442.9926981999961,442.9938436999946,442.9938553999964,442.9950194999983,,,,,,,,,,,,,,,,,,,,,,,,,,,,,,,,,,,,,,,,,,,,,,,3,2023-12-14_11h11.25.218,watkins1,2023.2.3,99.7310254240786,66,2023-12-14 11h11.32.949396 +0000,
,,,,,,,,,,,29,0,29,0,,,,,,,,,,,,,442.9988295000003,,,,,,,,,,442.9953041999979,443.4909895999954,,,[],[],,,,,,,,,,,,None,None,,,,,,,,,,Schlüssel,dick,"['Schlüssel', 'dick']",test_adj,3,,,,,,442.9952396999943,442.99527749999834,"['Kette', 'Ring', 'Socke', 'Hut', 'Fahrrad', 'Tasse', 'Brille', 'Trommel', 'Würfel', 'Löffel', 'Buch', 'Telefon', 'Kamera', 'Tasche', 'Kerze', 'Rucksack', 'Uhr', 'Flasche', 'Kiste', 'Eimer', 'Schere', 'Stift', 'Geige', 'Lampe', 'Hammer', 'Bürste', 'Vase', 'Blume', 'Jacke', 'Schlüssel']",443.49100049999834,443.493764699997,None,443.4938889999976,443.4953800000003,None,,,443.4954921999961,443.49698050000006,None,443.49708760000067,449.4998071999944,449.49982140000066,449.5009951999964,0,,,,,,,,,,,,,,,,,,,,,,,,,,,,,,,,,,,,,,,,,,,,,,3,2023-12-14_11h11.25.218,watkins1,2023.2.3,99.7310254240786,66,2023-12-14 11h11.32.949396 +0000,
,,,,,,,,,,,,,,,,,,,,,,,,,,,,,,,,,,,,,,,,,,,,,,,,,,,,,,,,,,,,,,,,,,,,,3,,,,,,,,,,,,,,,,,,,,,,,,,,,,,,,,,,,,,,,,,,,,,,,,,,,,,,,,,,,,,,,,,,,,,,3,2023-12-14_11h11.25.218,watkins1,2023.2.3,99.7310254240786,66,2023-12-14 11h11.32.949396 +0000,
(25 : 5) + 5 = 9 ,Incorrect,button_incorrect,,,,,,,,,,,,,0,0,0,6,,,,,,,,,462.3928656999997,,,,,,,,461.36352789999364,462.36616559999675,,,,,['button_incorrect'],[5.715424300004088],,,,,,,,,,,,,,,,,,,,,,,,,,distractorTask,3,,,,,,,,,,,,,,,,,,,,,,,,,462.3823119999943,462.3928656999997,468.102014899996,[-0.3175925925925926],[-0.3888888888888889],[1],[0],[0],[5.715424300004088],['button_incorrect'],468.1026933999965,469.1056290999986,,,,,,,,,,,,,,,,,,,,,,,,,,,,,,,,,,3,2023-12-14_11h11.25.218,watkins1,2023.2.3,99.7310254240786,66,2023-12-14 11h11.32.949396 +0000,
(9 x 5) - 9 = 36 ,Correct,button_correct,,,,,,,,,,,,,0,1,1,4,,,,,,,,,469.1156267999977,,,,,,,,,,,,,,['button_correct'],[14.14550710000185],,,,,,,,,,,,,,,,,,,,,,,,,,distractorTask,3,,,,,,,,,,,,,,,,,,,,,,,,,469.1058228999973,469.1156267999977,483.25469929999963,[0.38333333333333336],[-0.39444444444444443],[1],[0],[0],[14.14550710000185],['button_correct'],483.25509769999917,484.25839299999643,,,,,,,,,,,,,,,,,,,,,,,,,,,,,,,,,,3,2023-12-14_11h11.25.218,watkins1,2023.2.3,99.7310254240786,66,2023-12-14 11h11.32.949396 +0000,
(80 : 10) + 9 = 17 ,Correct,button_correct,,,,,,,,,,,,,0,2,2,3,,,,,,,,,484.2683345999976,,,,,,,,,,,,,,['button_correct'],[6.493510499996773],,,,,,,,,,,,,,,,,,,,,,,,,,distractorTask,3,,,,,,,,,,,,,,,,,,,,,,,,,484.25858549999975,484.2683345999976,490.7557519999973,[0.3685185185185185],[-0.4064814814814815],[1],[0],[0],[6.493510499996773],['button_correct'],490.7561461000005,491.75979050000024,,,,,,,,,,,,,,,,,,,,,,,,,,,,,,,,,,3,2023-12-14_11h11.25.218,watkins1,2023.2.3,99.7310254240786,66,2023-12-14 11h11.32.949396 +0000,
(4 : 2) + 4 = 6 ,Correct,button_correct,,,,,,,,,,,,,0,3,3,1,,,,,,,,,491.76977619999525,,,,,,,,,,,,,,['button_correct'],[4.506784800003516],,,,,,,,,,,,,,,,,,,,,,,,,,distractorTask,3,,,,,,,,,,,,,,,,,,,,,,,,,491.7599837999951,491.76977619999525,496.2690524999998,[0.4027777777777778],[-0.41759259259259257],[1],[0],[0],[4.506784800003516],['button_correct'],496.2694373999984,497.27264959999593,,,,,,,,,,,,,,,,,,,,,,,,,,,,,,,,,,3,2023-12-14_11h11.25.218,watkins1,2023.2.3,99.7310254240786,66,2023-12-14 11h11.32.949396 +0000,
(40 : 5) + 8 = 15 ,Incorrect,button_incorrect,,,,,,,,,,,,,0,4,4,7,,,,,,,,,497.28263409999636,,,,,,,,,,,,,,['button_incorrect'],[5.38131969999813],,,,,,,,,,,,,,,,,,,,,,,,,,distractorTask,3,,,,,,,,,,,,,,,,,,,,,,,,,497.2728408999974,497.28263409999636,502.65588469999784,[-0.27685185185185185],[-0.4148148148148148],[1],[0],[0],[5.38131969999813],['button_incorrect'],502.6562694999957,503.6593107999943,,,,,,,,,,,,,,,,,,,,,,,,,,,,,,,,,,3,2023-12-14_11h11.25.218,watkins1,2023.2.3,99.7310254240786,66,2023-12-14 11h11.32.949396 +0000,
(28 : 7) - 3 = 1 ,Correct,button_correct,,,,,,,,,,,,,0,5,5,0,,,,,,,,,503.66933040000004,,,,,,,,,,,,,,['button_correct'],[5.823344599994016],,,,,,,,,,,,,,,,,,,,,,,,,,distractorTask,3,,,,,,,,,,,,,,,,,,,,,,,,,503.65950809999777,503.66933040000004,509.48457779999444,[0.38333333333333336],[-0.4166666666666667],[1],[0],[0],[5.823344599994016],['button_correct'],509.4849694999939,510.488274299998,,,,,,,,,,,,,,,,,,,,,,,,,,,,,,,,,,3,2023-12-14_11h11.25.218,watkins1,2023.2.3,99.7310254240786,66,2023-12-14 11h11.32.949396 +0000,
(54 : 6) - 10 = 0 ,Incorrect,button_incorrect,,,,,,,,,,,,,0,6,6,5,,,,,,,,,510.4982416999992,,,,,,,,,,,,,,['button_incorrect'],"[18.585316800003056, 19.378815300005954]",,,,,,,,,,,,,,,,,,,,,,,,,,distractorTask,3,,,,,,,,,,,,,,,,,,,,,,,,,510.48846709999634,510.4982416999992,529.8690118999948,"[-0.37962962962962965, -0.3712962962962963]","[-0.42685185185185187, -0.4185185185185185]","[1, 1]","[0, 0]","[0, 0]","[18.585316800003056, 19.378815300005954]",['button_incorrect'],529.8694210999965,530.8726166999986,,,,,,,,,,,,,,,,,,,,,,,,,,,,,,,,,,3,2023-12-14_11h11.25.218,watkins1,2023.2.3,99.7310254240786,66,2023-12-14 11h11.32.949396 +0000,
(6 x 3) + 10 = 27 ,Incorrect,button_incorrect,,,,,,,,,,,,,0,7,7,8,,,,,,,,,530.8826585999996,,,,,,,,,,,,,,['button_incorrect'],[4.426923999999417],,,,,,,,,,,,,,,,,,,,,,,,,,distractorTask,3,,,,,,,,,,,,,,,,,,,,,,,,,530.8728115999984,530.8826585999996,535.3016703999965,[-0.362962962962963],[-0.3972222222222222],[1],[0],[0],[4.426923999999417],['button_incorrect'],535.3020935999957,536.3051701999939,,,,,,,,,,,,,,,,,,,,,,,,,,,,,,,,,,3,2023-12-14_11h11.25.218,watkins1,2023.2.3,99.7310254240786,66,2023-12-14 11h11.32.949396 +0000,
(7 x 6) + 9 = 48 ,Incorrect,button_incorrect,,,,,,,,,,,,,0,8,8,9,,,,,,,,,536.315118999999,,,,,,,,,,,,,,['button_incorrect'],[8.976090199997998],,,,,,,,,,,,,,,,,,,,,,,,,,distractorTask,3,,,,,,,,,,,,,,,,,,,,,,,,,536.3053648999994,536.315118999999,545.2831789999982,[-0.3814814814814815],[-0.4009259259259259],[1],[0],[0],[8.976090199997998],['button_incorrect'],545.2835680999997,546.2869776999942,,,,,,,,,,,,,,,,,,,,,,,,,,,,,,,,,,3,2023-12-14_11h11.25.218,watkins1,2023.2.3,99.7310254240786,66,2023-12-14 11h11.32.949396 +0000,
(2 x 5) + 3 = 13 ,Correct,button_correct,,,,,,,,,,,,,0,9,9,2,,,,,,,,,546.2970540999959,,,,,,,,,,,,,,['button_correct'],[2.5691551999989315],,,,,,,,,,,,,,,,,,,,,,,,,,distractorTask,3,,,,,,,,,,,,,,,,,,,,,,,,,546.2871793999948,546.2970540999959,548.8582236000002,[0.3296296296296296],[-0.3962962962962963],[1],[0],[0],[2.5691551999989315],['button_correct'],548.8586088999946,549.8620278999952,,,,,,,,,,,,,,,,,,,,,,,,,,,,,,,,,,3,2023-12-14_11h11.25.218,watkins1,2023.2.3,99.7310254240786,66,2023-12-14 11h11.32.949396 +0000,
,,,,,,,,,,,,,,,,,,,,,,,,,,,,,,,,,,,,,,,,,,,,,,,,,,,,,,,,,,,,,,,,,,,,,3,,,,,,,,,,,,,,,,,,,,,,,,,,,,,,,,,,,,,,,,,,,,,,,,,,,,,,,,,,,,,,,,,,,,,,3,2023-12-14_11h11.25.218,watkins1,2023.2.3,99.7310254240786,66,2023-12-14 11h11.32.949396 +0000,
,,,,,,,,,,,,,,,,,,,0,0,0,0,,,,,556.9388563999964,,,,,,,,,,,,,,flauschig,5.607488100002229,,,,,,,,,,,,1.6061944000030053,None,,,,,,,,,,,,,freeRecallSub,3,,,,,,,,,,,,,,,,,,,,,,,,,,,,,,,,,,,,,556.9301880999992,556.9388563999964,556.9388563999964,562.5526959999988,return,5.607488100002229,None,flauschig,[],[],[],[],[],[],[],,,,,,,,,,,,,,,,,,,3,2023-12-14_11h11.25.218,watkins1,2023.2.3,99.7310254240786,66,2023-12-14 11h11.32.949396 +0000,
,,,,,,,,,,,,,,,,,,,1,0,1,0,,,,,562.5652869999976,,,,,,,,,,,,,,winzig,3.469051899999613,,,,,,,,,,,,1.720320399996126,None,,,,,,,,,,,,,freeRecallSub,3,,,,,,,,,,,,,,,,,,,,,,,,,,,,,,,,,,,,,562.5544483999984,562.5652869999976,562.5652869999976,566.0419693999938,return,3.469051899999613,None,winzig,[],[],[],[],[],[],[],,,,,,,,,,,,,,,,,,,3,2023-12-14_11h11.25.218,watkins1,2023.2.3,99.7310254240786,66,2023-12-14 11h11.32.949396 +0000,
,,,,,,,,,,,,,,,,,,,2,0,2,0,,,,,566.0531801999969,,,,,,,,,,,,,,kalt,1.6292290999990655,,,,,,,,,,,,0.42188639999949373,None,,,,,,,,,,,,,freeRecallSub,3,,,,,,,,,,,,,,,,,,,,,,,,,,,,,,,,,,,,,566.0434370000003,566.0531801999969,566.0531801999969,567.6904361999987,return,1.6292290999990655,None,kalt,[],[],[],[],[],[],[],,,,,,,,,,,,,,,,,,,3,2023-12-14_11h11.25.218,watkins1,2023.2.3,99.7310254240786,66,2023-12-14 11h11.32.949396 +0000,
,,,,,,,,,,,,,,,,,,,3,0,3,0,,,,,567.7013676999995,,,,,,,,,,,,,,hässlich,2.629053099997691,,,,,,,,,,,,0.43161069999769097,None,,,,,,,,,,,,,freeRecallSub,3,,,,,,,,,,,,,,,,,,,,,,,,,,,,,,,,,,,,,567.6916742999965,567.7013676999995,567.7013676999995,570.3326839999936,return,2.629053099997691,None,hässlich,[],[],[],[],[],[],[],,,,,,,,,,,,,,,,,,,3,2023-12-14_11h11.25.218,watkins1,2023.2.3,99.7310254240786,66,2023-12-14 11h11.32.949396 +0000,
,,,,,,,,,,,,,,,,,,,4,0,4,0,,,,,570.3437835000004,,,,,,,,,,,,,,flach,2.170573499999591,,,,,,,,,,,,0.5526100999995833,None,,,,,,,,,,,,,freeRecallSub,3,,,,,,,,,,,,,,,,,,,,,,,,,,,,,,,,,,,,,570.3339138999945,570.3437835000004,570.3437835000004,572.5231783999989,return,2.170573499999591,None,flach,[],[],[],[],[],[],[],,,,,,,,,,,,,,,,,,,3,2023-12-14_11h11.25.218,watkins1,2023.2.3,99.7310254240786,66,2023-12-14 11h11.32.949396 +0000,
,,,,,,,,,,,,,,,,,,,5,0,5,0,,,,,572.5338768000001,,,,,,,,,,,,,,gepunktet,10.828387599998678,,,,,,,,,,,,8.333505699993111,None,,,,,,,,,,,,,freeRecallSub,3,,,,,,,,,,,,,,,,,,,,,,,,,,,,,,,,,,,,,572.5244542,572.5338768000001,572.5338768000001,583.3687313999981,return,10.828387599998678,None,gepunktet,[],[],[],[],[],[],[],,,,,,,,,,,,,,,,,,,3,2023-12-14_11h11.25.218,watkins1,2023.2.3,99.7310254240786,66,2023-12-14 11h11.32.949396 +0000,
,,,,,,,,,,,,,,,,,,,6,0,6,0,,,,,583.3805634999953,,,,,,,,,,,,,,biegsam,2.589840099994035,,,,,,,,,,,,0.8453032999968855,None,,,,,,,,,,,,,freeRecallSub,3,,,,,,,,,,,,,,,,,,,,,,,,,,,,,,,,,,,,,583.3699968999936,583.3805634999953,583.3805634999953,585.9724434999953,return,2.589840099994035,None,biegsam,[],[],[],[],[],[],[],,,,,,,,,,,,,,,,,,,3,2023-12-14_11h11.25.218,watkins1,2023.2.3,99.7310254240786,66,2023-12-14 11h11.32.949396 +0000,
,,,,,,,,,,,,,,,,,,,7,0,7,0,,,,,585.9844480999964,,,,,,,,,,,,,,Brille,13.937874199997168,,,,,,,,,,,,12.33322279999993,None,,,,,,,,,,,,,freeRecallSub,3,,,,,,,,,,,,,,,,,,,,,,,,,,,,,,,,,,,,,585.9737158999997,585.9844480999964,585.9844480999964,599.9235723999955,return,13.937874199997168,None,Brille,"[-0.5787037037037037, -0.5796296296296296, -0.5962962962962963]","[-0.05462962962962963, -0.04351851851851852, 0.004629629629629629]","[1, 1, 1]","[0, 0, 0]","[0, 0, 0]","[8.653766799994628, 9.42699509999511, 9.898950599999807]",[],,,,,,,,,,,,,,,,,,,3,2023-12-14_11h11.25.218,watkins1,2023.2.3,99.7310254240786,66,2023-12-14 11h11.32.949396 +0000,
,,,,,,,,,,,,,,,,,,,8,0,8,0,,,,,599.9356759999937,,,,,,,,,,,,,,Löffel,2.882737599997199,,,,,,,,,,,,0.8256792999964091,None,,,,,,,,,,,,,freeRecallSub,3,,,,,,,,,,,,,,,,,,,,,,,,,,,,,,,,,,,,,599.9248926999935,599.9356759999937,599.9356759999937,602.8194638999994,return,2.882737599997199,None,Löffel,[],[],[],[],[],[],[],,,,,,,,,,,,,,,,,,,3,2023-12-14_11h11.25.218,watkins1,2023.2.3,99.7310254240786,66,2023-12-14 11h11.32.949396 +0000,
,,,,,,,,,,,,,,,,,,,9,0,9,0,,,,,602.8317572999949,,,,,,,,,,,,,,Lampe,4.186516600006144,,,,,,,,,,,,0.49496999999973923,None,,,,,,,,,,,,,freeRecallSub,3,,,,,,,,,,,,,,,,,,,,,,,,,,,,,,,,,,,,,602.8207349999939,602.8317572999949,602.8317572999949,607.0210527999952,return,4.186516600006144,None,Lampe,[],[],[],[],[],[],[],,,,,,,,,,,,,,,,,,,3,2023-12-14_11h11.25.218,watkins1,2023.2.3,99.7310254240786,66,2023-12-14 11h11.32.949396 +0000,
,,,,,,,,,,,,,,,,,,,10,0,10,0,,,,,607.0330022999988,,,,,,,,,,,,,,Tasche,13.729334200004814,,,,,,,,,,,,11.770963900002243,None,,,,,,,,,,,,,freeRecallSub,3,,,,,,,,,,,,,,,,,,,,,,,,,,,,,,,,,,,,,607.0223052999936,607.0330022999988,607.0330022999988,620.771559599998,return,13.729334200004814,None,Tasche,[],[],[],[],[],[],[],,,,,,,,,,,,,,,,,,,3,2023-12-14_11h11.25.218,watkins1,2023.2.3,99.7310254240786,66,2023-12-14 11h11.32.949396 +0000,
,,,,,,,,,,,,,,,,,,,11,0,11,0,,,,,620.7840047999998,,,,,,,,,,,,,,Bürste,4.034228499993333,,,,,,,,,,,,0.41490799999883166,None,,,,,,,,,,,,,freeRecallSub,3,,,,,,,,,,,,,,,,,,,,,,,,,,,,,,,,,,,,,620.7728097999934,620.7840047999998,620.7840047999998,624.8227939999997,return,4.034228499993333,None,Bürste,[],[],[],[],[],[],[],,,,,,,,,,,,,,,,,,,3,2023-12-14_11h11.25.218,watkins1,2023.2.3,99.7310254240786,66,2023-12-14 11h11.32.949396 +0000,
,,,,,,,,,,,,,,,,,,,12,0,12,0,,,,,624.835599099999,,,,,,,,,,,,,,Schere,15.142851700002211,,,,,,,,,,,,13.499886499994318,None,,,,,,,,,,,,,freeRecallSub,3,,,,,,,,,,,,,,,,,,,,,,,,,,,,,,,,,,,,,624.8240612999944,624.835599099999,624.835599099999,639.9818014999983,return,15.142851700002211,None,Schere,[],[],[],[],[],[],[],,,,,,,,,,,,,,,,,,,3,2023-12-14_11h11.25.218,watkins1,2023.2.3,99.7310254240786,66,2023-12-14 11h11.32.949396 +0000,
,,,,,,,,,,,,,,,,,,,13,0,13,0,,,,,639.9946733999968,,,,,,,,,,,,,,Geige,1.9517581999971299,,,,,,,,,,,,0.3755327999970177,None,,,,,,,,,,,,,freeRecallSub,3,,,,,,,,,,,,,,,,,,,,,,,,,,,,,,,,,,,,,639.9830449999936,639.9946733999968,639.9946733999968,641.9551533999984,return,1.9517581999971299,None,Geige,[],[],[],[],[],[],[],,,,,,,,,,,,,,,,,,,3,2023-12-14_11h11.25.218,watkins1,2023.2.3,99.7310254240786,66,2023-12-14 11h11.32.949396 +0000,
,,,,,,,,,,,,,,,,,,,14,0,14,0,,,,,641.9682441999976,,,,,,,,,,,,,,Vase,9.346094300002733,,,,,,,,,,,,8.238656000001356,None,,,,,,,,,,,,,freeRecallSub,3,,,,,,,,,,,,,,,,,,,,,,,,,,,,,,,,,,,,,641.9564011999973,641.9682441999976,641.9682441999976,651.3197631999938,return,9.346094300002733,None,Vase,[],[],[],[],[],[],[],,,,,,,,,,,,,,,,,,,3,2023-12-14_11h11.25.218,watkins1,2023.2.3,99.7310254240786,66,2023-12-14 11h11.32.949396 +0000,
,,,,,,,,,,,,,,,,,,,15,0,15,0,,,,,651.333083599995,,,,,,,,,,,,,,Hund,5.837231100005738,,,,,,,,,,,,2.3043080999996164,None,,,,,,,,,,,,,freeRecallSub,3,,,,,,,,,,,,,,,,,,,,,,,,,,,,,,,,,,,,,651.321010599997,651.333083599995,651.333083599995,657.1797877999998,return,5.837231100005738,None,Hund,[],[],[],[],[],[],[],,,,,,,,,,,,,,,,,,,3,2023-12-14_11h11.25.218,watkins1,2023.2.3,99.7310254240786,66,2023-12-14 11h11.32.949396 +0000,
,,,,,,,,,,,,,,,,,,,16,0,16,0,,,,,657.1936205999955,,,,,,,,,,,,,,Kiste,35.64863229999901,,,,,,,,,,,,33.575270200002706,None,,,,,,,,,,,,,freeRecallSub,3,,,,,,,,,,,,,,,,,,,,,,,,,,,,,,,,,,,,,657.1810198999956,657.1936205999955,657.1936205999955,692.8452044000005,return,35.64863229999901,None,Kiste,[],[],[],[],[],[],[],,,,,,,,,,,,,,,,,,,3,2023-12-14_11h11.25.218,watkins1,2023.2.3,99.7310254240786,66,2023-12-14 11h11.32.949396 +0000,
,,,,,,,,,,,,,,,,,,,17,0,17,0,,,,,692.8592356999943,,,,,,,,,,,,,,Tasse,21.72713659999863,,,,,,,,,,,,20.492029699998966,None,,,,,,,,,,,,,freeRecallSub,3,,,,,,,,,,,,,,,,,,,,,,,,,,,,,,,,,,,,,692.846478899999,692.8592356999943,692.8592356999943,714.5936495999995,return,21.72713659999863,None,Tasse,[],[],[],[],[],[],[],,,,,,,,,,,,,,,,,,,3,2023-12-14_11h11.25.218,watkins1,2023.2.3,99.7310254240786,66,2023-12-14 11h11.32.949396 +0000,
,,,,,,,,,,,,,,,,,,,18,0,18,0,,,,,714.607586399994,,,,,,,,,,,,,,Trommel,2.2347275000065565,,,,,,,,,,,,0.49799760000314564,None,,,,,,,,,,,,,freeRecallSub,3,,,,,,,,,,,,,,,,,,,,,,,,,,,,,,,,,,,,,714.5949006999945,714.607586399994,714.607586399994,716.8503114999985,return,2.2347275000065565,None,Trommel,[],[],[],[],[],[],[],,,,,,,,,,,,,,,,,,,3,2023-12-14_11h11.25.218,watkins1,2023.2.3,99.7310254240786,66,2023-12-14 11h11.32.949396 +0000,
,,,,,,,,,,,,,,,,,,,19,0,19,0,,,,,716.865721299997,,,,,,,,,,,,,,Telefon,9.512532500004454,,,,,,,,,,,,7.16849359999469,None,,,,,,,,,,,,,freeRecallSub,3,,,,,,,,,,,,,,,,,,,,,,,,,,,,,,,,,,,,,716.8515703999947,716.865721299997,716.865721299997,726.3801935999945,return,9.512532500004454,None,Telefon,[],[],[],[],[],[],[],,,,,,,,,,,,,,,,,,,3,2023-12-14_11h11.25.218,watkins1,2023.2.3,99.7310254240786,66,2023-12-14 11h11.32.949396 +0000,
,,,,,,,,,,,,,,,,,,,20,0,20,0,,,,,726.3943173999942,,,,,,,,,,,,,,Uhr,20.168015000002924,,,,,,,,,,,,19.206008900000597,None,,,,,,,,,,,,,freeRecallSub,3,,,,,,,,,,,,,,,,,,,,,,,,,,,,,,,,,,,,,726.3814707999991,726.3943173999942,726.3943173999942,746.5714464999983,return,20.168015000002924,None,Uhr,[],[],[],[],[],[],[],,,,,,,,,,,,,,,,,,,3,2023-12-14_11h11.25.218,watkins1,2023.2.3,99.7310254240786,66,2023-12-14 11h11.32.949396 +0000,
,,,,,,,,,,,,,,,,,,,21,0,21,0,,,,,746.5863801999949,,,,,,,,,,,,,,,44.73590819999663,,,,,,,,,,,,44.75337310000032,None,,,,,,,,,,,,,freeRecallSub,3,,,,,,,,,,,,,,,,,,,,,,,,,,,,,,,,,,,,,746.5727291999938,746.5863801999949,746.5863801999949,791.3262534999958,return,44.73590819999663,None,,[],[],[],[],[],[],[],,,,,,,,,,,,,,,,,,,3,2023-12-14_11h11.25.218,watkins1,2023.2.3,99.7310254240786,66,2023-12-14 11h11.32.949396 +0000,
,,,,,,,,,,,,,,,,,,,22,0,22,0,,,,,791.3402033999955,,,,,,,,,,,,,,,0.9662145999973291,,,,,,,,,,,,0.980905200005509,None,,,,,,,,,,,,,freeRecallSub,3,,,,,,,,,,,,,,,,,,,,,,,,,,,,,,,,,,,,,791.3275400999992,791.3402033999955,791.3402033999955,792.3085714999979,return,0.9662145999973291,None,,[],[],[],[],[],[],[],,,,,,,,,,,,,,,,,,,3,2023-12-14_11h11.25.218,watkins1,2023.2.3,99.7310254240786,66,2023-12-14 11h11.32.949396 +0000,
,,,,,,,,,,,,,,,,,,,23,0,23,0,,,,,792.3227549999938,,,,,,,,,,,,,,,[],,,,,,,,,,,,4.747217500000261,5.229210800003784,,,,,,,,,,,,,freeRecallSub,3,,,,,,,,,,,,,,,,,,,,,,,,,,,,,,,,,,,,,792.3098320999998,792.3227549999938,792.3227549999938,799.5176766000004,None,,,,"[-0.5981481481481481, 0.20833333333333334]","[0.18888888888888888, -0.4074074074074074]","[1, 1]","[0, 0]","[0, 0]","[3.4454922000004444, 7.201166799997736]","['button_continue', 'continue_text']",,,,,,,,,,,,,,,,,,,3,2023-12-14_11h11.25.218,watkins1,2023.2.3,99.7310254240786,66,2023-12-14 11h11.32.949396 +0000,
,,,,,,,,,,,,,,,,,,,,,,,,,,,,,,,,,,,,,,,,,,,,,,,,,,,,,,,,,,,,,,,,,,,,,3,,,,,,,,,,,,,,,,,,,,,,,,,,,,,,,,,,,,,,,,,,,,,,,,,,,,,,,,,,,,,,,,,,,,,,3,2023-12-14_11h11.25.218,watkins1,2023.2.3,99.7310254240786,66,2023-12-14 11h11.32.949396 +0000,
,,,,,,,,,,,,,,,,,,,,,,,0,0,0,0,804.2367525999944,,,,,,,,,,812.0227319999976,812.5212026999943,,,,7.781505500002822,,,,,,,,,,,,None,None,,,,,,,,,,Bürste,,,cuedRecallAdj,3,,,,,,,,,,,,,,,,,,,,,,,,0,,,,,,,,,,,,,,,,,,,,,,,,,,,,804.2275687999936,804.2367525999944,804.2367525999944,812.0194654999941,flauschig,return,7.781505500002822,None,812.0198597999988,812.029023199997,812.029023199997,812.0225825999951,,None,,,,,3,2023-12-14_11h11.25.218,watkins1,2023.2.3,99.7310254240786,66,2023-12-14 11h11.32.949396 +0000,
,,,,,,,,,,,,,,,,,,,,,,,1,0,1,0,812.5311507000006,,,,,,,,,,815.2760168999957,815.7746671999994,,,,2.7352707000027294,,,,,,,,,,,,None,None,,,,,,,,,,Hammer,,,cuedRecallAdj,3,,,,,,,,,,,,,,,,,,,,,,,,0,,,,,,,,,,,,,,,,,,,,,,,,,,,,812.5214597999948,812.5311507000006,812.5311507000006,815.2731188999969,bunt,return,2.7352707000027294,None,815.2733853999962,815.2826400999984,815.2826400999984,815.2759147999968,,None,,,,,3,2023-12-14_11h11.25.218,watkins1,2023.2.3,99.7310254240786,66,2023-12-14 11h11.32.949396 +0000,
,,,,,,,,,,,,,,,,,,,,,,,2,0,2,0,815.7846900000004,,,,,,,,,,818.3588455999998,818.8578269999998,,,,2.569538499999908,,,,,,,,,,,,None,None,,,,,,,,,,Brille,,,cuedRecallAdj,3,,,,,,,,,,,,,,,,,,,,,,,,0,,,,,,,,,,,,,,,,,,,,,,,,,,,,815.7749145999987,815.7846900000004,815.7846900000004,818.3559585999974,kalt,return,2.569538499999908,None,818.3562266999943,818.3654862999974,818.3654862999974,818.3587440999981,,None,,,,,3,2023-12-14_11h11.25.218,watkins1,2023.2.3,99.7310254240786,66,2023-12-14 11h11.32.949396 +0000,
,,,,,,,,,,,,,,,,,,,,,,,3,0,3,0,818.8676835000006,,,,,,,,,,822.5470419999983,823.0452734999999,,,,3.6706120999951963,,,,,,,,,,,,None,None,,,,,,,,,,Tasche,,,cuedRecallAdj,3,,,,,,,,,,,,,,,,,,,,,,,,0,,,,,,,,,,,,,,,,,,,,,,,,,,,,818.8581096999987,818.8676835000006,818.8676835000006,822.543937399998,fest,return,3.6706120999951963,None,822.5442092999947,822.5533571999986,822.5533571999986,822.5469396999979,,None,,,,,3,2023-12-14_11h11.25.218,watkins1,2023.2.3,99.7310254240786,66,2023-12-14 11h11.32.949396 +0000,
,,,,,,,,,,,,,,,,,,,,,,,4,0,4,0,823.0551505999974,,,,,,,,,,827.8790729999964,828.3781617999994,,,,4.811043200003041,,,,,,,,,,,,None,None,,,,,,,,,,Kette,,,cuedRecallAdj,3,,,,,,,,,,,,,,,,,,,,,,,,0,,,,,,,,,,,,,,,,,,,,,,,,,,,,823.0455273999978,823.0551505999974,823.0551505999974,827.8759404999946,praktisch,return,4.811043200003041,None,827.8762262999953,827.8857056999987,827.8857056999987,827.8789703000002,,None,,,,,3,2023-12-14_11h11.25.218,watkins1,2023.2.3,99.7310254240786,66,2023-12-14 11h11.32.949396 +0000,
,,,,,,,,,,,,,,,,,,,,,,,5,0,5,0,828.3881158999939,,,,,,,,,,835.3404160999999,835.8388899999991,,,,6.942182599996158,,,,,,,,,,,,None,None,,,,,,,,,,Eimer,,,cuedRecallAdj,3,,,,,,,,,,,,,,,,,,,,,,,,0,,,,,,,,,,,,,,,,,,,,,,,,,,,,828.3784096999952,828.3881158999939,828.3881158999939,835.3372212999966,weich,return,6.942182599996158,None,835.3374908999976,835.3467753999939,835.3467753999939,835.3403131999949,,None,,,,,3,2023-12-14_11h11.25.218,watkins1,2023.2.3,99.7310254240786,66,2023-12-14 11h11.32.949396 +0000,
,,,,,,,,,,,,,,,,,,,,,,,6,0,6,0,835.848831299998,,,,,,,,,,843.2626696999941,843.7614775999973,,,,7.401487100003578,,,,,,,,,,,,None,None,,,,,,,,,,Kerze,,,cuedRecallAdj,3,,,,,,,,,,,,,,,,,,,,,,,,0,,,,,,,,,,,,,,,,,,,,,,,,,,,,835.8391413999998,835.848831299998,835.848831299998,843.2597446,globig,return,7.401487100003578,None,843.2600067999956,843.2694413999998,843.2694413999998,843.2625692000001,,None,,,,,3,2023-12-14_11h11.25.218,watkins1,2023.2.3,99.7310254240786,66,2023-12-14 11h11.32.949396 +0000,
,,,,,,,,,,,,,,,,,,,,,,,7,0,7,0,843.7714191999985,,,,,,,,,,847.6108879999956,848.109195099998,,,,3.8309745000005933,,,,,,,,,,,,None,None,,,,,,,,,,Kiste,,,cuedRecallAdj,3,,,,,,,,,,,,,,,,,,,,,,,,0,,,,,,,,,,,,,,,,,,,,,,,,,,,,843.7617318999983,843.7714191999985,843.7714191999985,847.6076298999978,schmutzig,return,3.8309745000005933,None,847.6078973999975,847.6172172999941,847.6172172999941,847.6107842999991,,None,,,,,3,2023-12-14_11h11.25.218,watkins1,2023.2.3,99.7310254240786,66,2023-12-14 11h11.32.949396 +0000,
,,,,,,,,,,,,,,,,,,,,,,,8,0,8,0,848.1191106999977,,,,,,,,,,851.1455059999935,851.6440702999971,,,,3.0192210000022897,,,,,,,,,,,,None,None,,,,,,,,,,Geige,,,cuedRecallAdj,3,,,,,,,,,,,,,,,,,,,,,,,,0,,,,,,,,,,,,,,,,,,,,,,,,,,,,848.1094413999963,848.1191106999977,848.1191106999977,851.1424609999958,hässlich,return,3.0192210000022897,None,851.1427312999949,851.1520767999973,851.1520767999973,851.1454031999965,,None,,,,,3,2023-12-14_11h11.25.218,watkins1,2023.2.3,99.7310254240786,66,2023-12-14 11h11.32.949396 +0000,
,,,,,,,,,,,,,,,,,,,,,,,9,0,9,0,851.6541225999972,,,,,,,,,,857.2405146999954,857.7393649000005,,,,5.580185700004222,,,,,,,,,,,,None,None,,,,,,,,,,Socke,,,cuedRecallAdj,3,,,,,,,,,,,,,,,,,,,,,,,,0,,,,,,,,,,,,,,,,,,,,,,,,,,,,851.6443193999949,851.6541225999972,851.6541225999972,857.2376683999973,kurz,return,5.580185700004222,None,857.2379377999969,857.2472648999974,857.2472648999974,857.2404124999957,,None,,,,,3,2023-12-14_11h11.25.218,watkins1,2023.2.3,99.7310254240786,66,2023-12-14 11h11.32.949396 +0000,
,,,,,,,,,,,,,,,,,,,,,,,10,0,10,0,857.7493199999954,,,,,,,,,,860.5740824999957,861.0730093999955,,,,2.8130640000017593,,,,,,,,,,,,None,None,,,,,,,,,,Flasche,,,cuedRecallAdj,3,,,,,,,,,,,,,,,,,,,,,,,,0,,,,,,,,,,,,,,,,,,,,,,,,,,,,857.7396101999984,857.7493199999954,857.7493199999954,860.5712256999977,hohl,return,2.8130640000017593,None,860.5714936999939,860.5809220999945,860.5809220999945,860.5739799999938,,None,,,,,3,2023-12-14_11h11.25.218,watkins1,2023.2.3,99.7310254240786,66,2023-12-14 11h11.32.949396 +0000,
,,,,,,,,,,,,,,,,,,,,,,,11,0,11,0,861.0829813999953,,,,,,,,,,872.1225485999967,872.6214852999983,,,,11.031382499997562,,,,,,,,,,,,None,None,,,,,,,,,,Ring,,,cuedRecallAdj,3,,,,,,,,,,,,,,,,,,,,,,,,0,,,,,,,,,,,,,,,,,,,,,,,,,,,,861.0732623999938,861.0829813999953,861.0829813999953,872.1196416999956,gebogen,return,11.031382499997562,None,872.1199118999939,872.1291175999941,872.1291175999941,872.1224449000001,,None,,,,,3,2023-12-14_11h11.25.218,watkins1,2023.2.3,99.7310254240786,66,2023-12-14 11h11.32.949396 +0000,
,,,,,,,,,,,,,,,,,,,,,,,12,0,12,0,872.6314234999954,,,,,,,,,,878.1668419999987,878.6562120999952,,,,5.53084939999826,,,,,,,,,,,,None,None,,,,,,,,,,Trommel,,,cuedRecallAdj,3,,,,,,,,,,,,,,,,,,,,,,,,0,,,,,,,,,,,,,,,,,,,,,,,,,,,,872.6217326999977,872.6314234999954,872.6314234999954,878.1646395999996,,return,5.53084939999826,None,878.164898199997,878.1741735999967,878.1741735999967,878.1667421999955,,None,,,,,3,2023-12-14_11h11.25.218,watkins1,2023.2.3,99.7310254240786,66,2023-12-14 11h11.32.949396 +0000,
,,,,,,,,,,,,,,,,,,,,,,,13,0,13,0,878.6661686000007,,,,,,,,,,882.0238227999944,882.5225744999989,,,,3.3521145999984583,,,,,,,,,,,,None,None,,,,,,,,,,Telefon,,,cuedRecallAdj,3,,,,,,,,,,,,,,,,,,,,,,,,0,,,,,,,,,,,,,,,,,,,,,,,,,,,,878.6564569999973,878.6661686000007,878.6661686000007,882.0208655999959,lustig,return,3.3521145999984583,None,882.0211330999955,882.0305181999938,882.0305181999938,882.0237219999981,,None,,,,,3,2023-12-14_11h11.25.218,watkins1,2023.2.3,99.7310254240786,66,2023-12-14 11h11.32.949396 +0000,
,,,,,,,,,,,,,,,,,,,,,,,14,0,14,0,882.5324963999956,,,,,,,,,,886.5826881999965,887.0812290999966,,,,4.037846999999601,,,,,,,,,,,,None,None,,,,,,,,,,Lampe,,,cuedRecallAdj,3,,,,,,,,,,,,,,,,,,,,,,,,0,,,,,,,,,,,,,,,,,,,,,,,,,,,,882.5228458999991,882.5324963999956,882.5324963999956,886.5793812999982,gepunktet,return,4.037846999999601,None,886.5796432999996,886.5890645999971,886.5890645999971,886.5825841999977,,None,,,,,3,2023-12-14_11h11.25.218,watkins1,2023.2.3,99.7310254240786,66,2023-12-14 11h11.32.949396 +0000,
,,,,,,,,,,,,,,,,,,,,,,,15,0,15,0,887.0911194,,,,,,,,,,890.358296499995,890.8568608999994,,,,3.2631574000042747,,,,,,,,,,,,None,None,,,,,,,,,,Fahrrad,,,cuedRecallAdj,3,,,,,,,,,,,,,,,,,,,,,,,,0,,,,,,,,,,,,,,,,,,,,,,,,,,,,887.0814773999955,887.0911194,887.0911194,890.3552490999937,kaputt,return,3.2631574000042747,None,890.3555179999967,890.3647404000003,890.3647404000003,890.3581942999954,,None,,,,,3,2023-12-14_11h11.25.218,watkins1,2023.2.3,99.7310254240786,66,2023-12-14 11h11.32.949396 +0000,
,,,,,,,,,,,,,,,,,,,,,,,16,0,16,0,890.8668058999974,,,,,,,,,,895.3286759999974,895.8271965999957,,,,4.455551899998682,,,,,,,,,,,,None,None,,,,,,,,,,Tasse,,,cuedRecallAdj,3,,,,,,,,,,,,,,,,,,,,,,,,0,,,,,,,,,,,,,,,,,,,,,,,,,,,,890.8571082999988,890.8668058999974,890.8668058999974,895.3255486999988,flauschig,return,4.455551899998682,None,895.3258337999941,895.3350952999972,895.3350952999972,895.3285734999954,,None,,,,,3,2023-12-14_11h11.25.218,watkins1,2023.2.3,99.7310254240786,66,2023-12-14 11h11.32.949396 +0000,
,,,,,,,,,,,,,,,,,,,,,,,17,0,17,0,895.8371468999976,,,,,,,,,,900.0473891999936,900.5466013999976,,,,4.20524419999856,,,,,,,,,,,,None,None,,,,,,,,,,Schlüssel,,,cuedRecallAdj,3,,,,,,,,,,,,,,,,,,,,,,,,0,,,,,,,,,,,,,,,,,,,,,,,,,,,,895.8274411999955,895.8371468999976,895.8371468999976,900.0450296999988,,return,4.20524419999856,None,900.0452986999953,900.0545998999951,900.0545998999951,900.0472870999947,,None,,,,,3,2023-12-14_11h11.25.218,watkins1,2023.2.3,99.7310254240786,66,2023-12-14 11h11.32.949396 +0000,
,,,,,,,,,,,,,,,,,,,,,,,18,0,18,0,900.5565483999962,,,,,,,,,,904.4062288999994,904.9043992999941,,,,3.845949599999585,,,,,,,,,,,,None,None,,,,,,,,,,Rucksack,,,cuedRecallAdj,3,,,,,,,,,,,,,,,,,,,,,,,,0,,,,,,,,,,,,,,,,,,,,,,,,,,,,900.5468448999964,900.5565483999962,900.5565483999962,904.4031184999985,nachhaltig,return,3.845949599999585,None,904.4033845999948,904.4123560999942,904.4123560999942,904.4061268000005,,None,,,,,3,2023-12-14_11h11.25.218,watkins1,2023.2.3,99.7310254240786,66,2023-12-14 11h11.32.949396 +0000,
,,,,,,,,,,,,,,,,,,,,,,,19,0,19,0,904.9142919000005,,,,,,,,,,907.0465963999959,907.5452478000007,,,,2.128118500004348,,,,,,,,,,,,None,None,,,,,,,,,,Würfel,,,cuedRecallAdj,3,,,,,,,,,,,,,,,,,,,,,,,,0,,,,,,,,,,,,,,,,,,,,,,,,,,,,904.9046417999998,904.9142919000005,904.9142919000005,907.0435440999936,matt,return,2.128118500004348,None,907.0438122999985,907.053079499994,907.053079499994,907.0464935999989,,None,,,,,3,2023-12-14_11h11.25.218,watkins1,2023.2.3,99.7310254240786,66,2023-12-14 11h11.32.949396 +0000,
,,,,,,,,,,,,,,,,,,,,,,,20,0,20,0,907.5551930999936,,,,,,,,,,912.0670298999976,912.5657865999965,,,,4.503126700001303,,,,,,,,,,,,None,None,,,,,,,,,,Stift,,,cuedRecallAdj,3,,,,,,,,,,,,,,,,,,,,,,,,0,,,,,,,,,,,,,,,,,,,,,,,,,,,,907.545494799997,907.5551930999936,907.5551930999936,912.0640656999967,breit,return,4.503126700001303,None,912.064332599999,912.0736497999969,912.0736497999969,912.0669259999995,,None,,,,,3,2023-12-14_11h11.25.218,watkins1,2023.2.3,99.7310254240786,66,2023-12-14 11h11.32.949396 +0000,
,,,,,,,,,,,,,,,,,,,,,,,21,0,21,0,912.5757295999938,,,,,,,,,,915.942314699998,916.4317368999982,,,,3.3626636999979382,,,,,,,,,,,,None,None,,,,,,,,,,Jacke,,,cuedRecallAdj,3,,,,,,,,,,,,,,,,,,,,,,,,0,,,,,,,,,,,,,,,,,,,,,,,,,,,,912.5660292999964,912.5757295999938,912.5757295999938,915.9400903999995,,return,3.3626636999979382,None,915.9403538999977,915.9496151999992,915.9496151999992,915.942212599999,,None,,,,,3,2023-12-14_11h11.25.218,watkins1,2023.2.3,99.7310254240786,66,2023-12-14 11h11.32.949396 +0000,
,,,,,,,,,,,,,,,,,,,,,,,22,0,22,0,916.4416820999977,,,,,,,,,,920.4514529999942,920.9500679999983,,,,4.000714500005415,,,,,,,,,,,,None,None,,,,,,,,,,Löffel,,,cuedRecallAdj,3,,,,,,,,,,,,,,,,,,,,,,,,0,,,,,,,,,,,,,,,,,,,,,,,,,,,,916.4319785999978,916.4416820999977,916.4416820999977,920.4484329999977,biegsam,return,4.000714500005415,None,920.4487011999954,920.4580190999986,920.4580190999986,920.4513499999957,,None,,,,,3,2023-12-14_11h11.25.218,watkins1,2023.2.3,99.7310254240786,66,2023-12-14 11h11.32.949396 +0000,
,,,,,,,,,,,,,,,,,,,,,,,23,0,23,0,920.9599692999982,,,,,,,,,,923.9956404999975,924.4945006999988,,,,3.0263474000021233,,,,,,,,,,,,None,None,,,,,,,,,,Uhr,,,cuedRecallAdj,3,,,,,,,,,,,,,,,,,,,,,,,,0,,,,,,,,,,,,,,,,,,,,,,,,,,,,920.9503160999957,920.9599692999982,920.9599692999982,923.9929415000006,lang,return,3.0263474000021233,None,923.9932069999995,924.0025083,924.0025083,923.9955382999979,,None,,,,,3,2023-12-14_11h11.25.218,watkins1,2023.2.3,99.7310254240786,66,2023-12-14 11h11.32.949396 +0000,
,,,,,,,,,,,,,,,,,,,,,,,24,0,24,0,924.5045530999996,,,,,,,,,,927.982147799994,928.4809874999992,,,,3.4737307999967015,,,,,,,,,,,,None,None,,,,,,,,,,Hut,,,cuedRecallAdj,3,,,,,,,,,,,,,,,,,,,,,,,,0,,,,,,,,,,,,,,,,,,,,,,,,,,,,924.4947436000002,924.5045530999996,924.5045530999996,927.9794293999948,groß,return,3.4737307999967015,None,927.9796969999952,927.988946999998,927.988946999998,927.9820435999936,,None,,,,,3,2023-12-14_11h11.25.218,watkins1,2023.2.3,99.7310254240786,66,2023-12-14 11h11.32.949396 +0000,
,,,,,,,,,,,,,,,,,,,,,,,25,0,25,0,928.4909183999989,,,,,,,,,,930.8932849999983,931.3829772999961,,,,2.3914686999996775,,,,,,,,,,,,None,None,,,,,,,,,,Kamera,,,cuedRecallAdj,3,,,,,,,,,,,,,,,,,,,,,,,,0,,,,,,,,,,,,,,,,,,,,,,,,,,,,928.4812328999978,928.4909183999989,928.4909183999989,930.8910484999942,,return,2.3914686999996775,None,930.8913124999963,930.9008246999947,930.9008246999947,930.8931832999951,,None,,,,,3,2023-12-14_11h11.25.218,watkins1,2023.2.3,99.7310254240786,66,2023-12-14 11h11.32.949396 +0000,
,,,,,,,,,,,,,,,,,,,,,,,26,0,26,0,931.3929353999993,,,,,,,,,,952.1102036999946,952.6001283000005,,,,20.70532639999874,,,,,,,,,,,,None,None,,,,,,,,,,Vase,,,cuedRecallAdj,3,,,,,,,,,,,,,,,,,,,,,,,,0,,,,,,,,,,,,,,,,,,,,,,,,,,,,931.3832170999958,931.3929353999993,931.3929353999993,952.108332799995,,return,20.70532639999874,None,952.1085994999958,952.1180928999966,952.1180928999966,952.1101016999964,,None,,,,,3,2023-12-14_11h11.25.218,watkins1,2023.2.3,99.7310254240786,66,2023-12-14 11h11.32.949396 +0000,
,,,,,,,,,,,,,,,,,,,,,,,27,0,27,0,952.6101655999955,,,,,,,,,,962.1141341999974,962.612592599995,,,,9.496260100000654,,,,,,,,,,,,None,None,,,,,,,,,,Blume,,,cuedRecallAdj,3,,,,,,,,,,,,,,,,,,,,,,,,0,,,,,,,,,,,,,,,,,,,,,,,,,,,,952.6003761999964,952.6101655999955,952.6101655999955,962.1109656999979,glänzend,return,9.496260100000654,None,962.1112393999938,962.1204504999987,962.1204504999987,962.114026999996,,None,,,,,3,2023-12-14_11h11.25.218,watkins1,2023.2.3,99.7310254240786,66,2023-12-14 11h11.32.949396 +0000,
,,,,,,,,,,,,,,,,,,,,,,,28,0,28,0,962.6225426999954,,,,,,,,,,967.9382139999943,968.4369112999993,,,,5.307839000000968,,,,,,,,,,,,None,None,,,,,,,,,,Buch,,,cuedRecallAdj,3,,,,,,,,,,,,,,,,,,,,,,,,0,,,,,,,,,,,,,,,,,,,,,,,,,,,,962.6128379000002,962.6225426999954,962.6225426999954,967.9353787999935,robust,return,5.307839000000968,None,967.9356428999963,967.9449002999972,967.9449002999972,967.9381136999946,,None,,,,,3,2023-12-14_11h11.25.218,watkins1,2023.2.3,99.7310254240786,66,2023-12-14 11h11.32.949396 +0000,
,,,,,,,,,,,,,,,,,,,,,,,29,0,29,0,968.4469623999976,,,,,,,,,,971.9045974999972,972.4031174999982,,,,3.4513858999998774,,,,,,,,,,,,None,None,,,,,,,,,,Schere,,,cuedRecallAdj,3,,,,,,,,,,,,,,,,,,,,,,,,0,,,,,,,,,,,,,,,,,,,,,,,,,,,,968.437161599999,968.4469623999976,968.4469623999976,971.9015964999999,winzig,return,3.4513858999998774,None,971.9018662999952,971.9111505999972,971.9111505999972,971.904495099996,,None,,,,,3,2023-12-14_11h11.25.218,watkins1,2023.2.3,99.7310254240786,66,2023-12-14 11h11.32.949396 +0000,
,,,,,,,,,,,,,,,,,,,,,,,,,,,,,,,,,,,,,,,,,,,,,,,,,,,,,,,,,,,,,,,,,,,,,3,,,,,,,,,,,,,,,,,,,,,,,,,,,,,,,,,,,,,,,,,,,,,,,,,,,,,,,,,,,,,,,,,,972.4199028999938,q,2712.2547004000007,None,3,2023-12-14_11h11.25.218,watkins1,2023.2.3,99.7310254240786,66,2023-12-14 11h11.32.949396 +0000,
