Equation,CorrectResponse,Correctbutton,trials_7.thisRepN,trials_7.thisTrialN,trials_7.thisN,trials_7.thisIndex,trials.thisRepN,trials.thisTrialN,trials.thisN,trials.thisIndex,trials_3.thisRepN,trials_3.thisTrialN,trials_3.thisN,trials_3.thisIndex,trials_2.thisRepN,trials_2.thisTrialN,trials_2.thisN,trials_2.thisIndex,trials_4.thisRepN,trials_4.thisTrialN,trials_4.thisN,trials_4.thisIndex,trials_5.thisRepN,trials_5.thisTrialN,trials_5.thisN,trials_5.thisIndex,thisRow.t,notes,code_marius.started,code_marius.stopped,welcome.started,welcome.stopped,instruction_study.started,instruction_study.stopped,fixationcross.started,fixationcross.stopped,blanc.started,blanc.stopped,study_control_probe.started,study_control_probe.stopped,responseKey,responseTime,scale_answer_2.keys,study_control_probe_2.started,study_control_probe_2.stopped,scale_answer_3.keys,scale_answer_3.rt,scale_answer_3.duration,blanc_2.started,blanc_2.stopped,test_attr_probe.started,test_attr_probe.stopped,recalled_attr,firstKeyTime,secondWordTime,blanc_3.started,blanc_3.stopped,test_sub_probe.started,test_sub_probe.stopped,recalled_sub,instruction_probe_end.started,instruction_probe_end.stopped,study.started,study.stopped,substantive,adjective,wordpair,task,condition,liste_sub_phase1,liste_adj_phase1,scale_answer.keys,scale_answer.rt,scale_answer.duration,code_defineWordsInit.started,code_defineWordsInit.stopped,liste_sub_phase2,study_control.started,study_control.stopped,scale_answer_4.keys,restudy_same.started,restudy_same.stopped,scale_answer_5.keys,restudy_different.started,restudy_different.stopped,scale_answer_6.keys,test_attr.started,correct,test_attr.stopped,test_sub.started,test_sub.stopped,scale_answer_5.rt,scale_answer_5.duration,distractortask.started,equation_text.started,distractortask.stopped,mouse_answer.x,mouse_answer.y,mouse_answer.leftButton,mouse_answer.midButton,mouse_answer.rightButton,mouse_answer.time,mouse_answer.clicked_name,feedback_distractortask.started,feedback_distractortask.stopped,free_recall.started,text_enter.started,key_resp.started,free_recall.stopped,key_resp.keys,key_resp.rt,key_resp.duration,free_recalled_sub,mouse_continue.x,mouse_continue.y,mouse_continue.leftButton,mouse_continue.midButton,mouse_continue.rightButton,mouse_continue.time,mouse_continue.clicked_name,cued_recall.started,text_enter_2.started,key_continue.started,cued_recall.stopped,recalled_attr1,key_continue.keys,key_continue.rt,key_continue.duration,cued_recall_2.started,text_enter_3.started,key_continue_2.started,cued_recall_2.stopped,recalled_attr2,key_continue_2.keys,key_resp_8.started,key_resp_8.keys,key_resp_8.rt,key_resp_8.duration,condition,date,expName,psychopyVersion,frameRate,participant,expStart,
,,,,,,,,,,,,,,,,,,,,,,,,,,,,,0.10586429992690682,0.10593020007945597,0.10593839990906417,5.6111719000618905,,,,,,,,,,,,,,,,,,,,,,,,,,,,,,,,,,,,,3,,,,,,,,,,,,,,,,,,,,,,,,,,,,,,,,,,,,,,,,,,,,,,,,,,,,,,,,,,,,,,,,,,,,,,3,2023-11-29_11h34.39.758,watkins1,2023.2.3,99.71342366701576,29,2023-11-29 11h34.46.633780 +0000,
,,,,,,,,,,,,,,,,,,,,,,,,,,,,,,,,,5.611219400074333,31.660762600135058,,,,,,,,,,,,,,,,,,,,,,,,,,,,,,,,,,,3,,,,,,,,,,,,,,,,,,,,,,,,,,,,,,,,,,,,,,,,,,,,,,,,,,,,,,,,,,,,,,,,,,,,,,3,2023-11-29_11h34.39.758,watkins1,2023.2.3,99.71342366701576,29,2023-11-29 11h34.46.633780 +0000,
,,,0,0,0,0,,,,,,,,,,,,,,,,,,,,,32.674496999941766,,,,,,,,31.660778099903837,32.66451540007256,39.15811190009117,39.64942259993404,33.156492199981585,39.15794680011459,2,3.059778300113976,None,39.64943310013041,45.65903569990769,2,3.059778300113976,None,45.65933810011484,46.15069260005839,46.1507037000265,52.155380200129,vergnügt,None,None,52.15560290007852,52.1556257000193,52.15563279995695,52.1557146999985,,,,,,,,,,3,,,,,,,,,,,,,,,,,,,,,,,,,,,,,,,,,,,,,,,,,,,,,,,,,,,,,,,,,,,,,,,,,,,,,,3,2023-11-29_11h34.39.758,watkins1,2023.2.3,99.71342366701576,29,2023-11-29 11h34.46.633780 +0000,
,,,,,,,,,,,,,,,,,,,,,,,,,,,,,,,,,,,,,,,,,,,,,,,,,,,,,,,,,,,,,52.15583280008286,56.31304090004414,,,,,,,3,,,,,,,,,,,,,,,,,,,,,,,,,,,,,,,,,,,,,,,,,,,,,,,,,,,,,,,,,,,,,,,,,,,,,,3,2023-11-29_11h34.39.758,watkins1,2023.2.3,99.71342366701576,29,2023-11-29 11h34.46.633780 +0000,
,,,,,,,0,0,0,0,,,,,,,,,,,,,,,,,57.32690059999004,,,,,,,,56.313056600047275,57.316918099997565,57.31738750007935,57.809032399905846,,,1,3.407581000123173,,,,,,,,,,,,,,,,,,,,,57.80905629997142,63.817671600030735,Buch,groß,"['Buch', 'groß']",restudy,3,"['Buch', 'Lampe', 'Würfel', 'Schlüssel', 'Eimer', 'Geige', 'Socke', 'Löffel', 'Blume', 'Kerze', 'Ring', 'Hut', 'Trommel', 'Telefon', 'Fahrrad', 'Schere', 'Tasse', 'Kamera', 'Uhr', 'Flasche', 'Kette', 'Bürste', 'Jacke', 'Vase', 'Tasche', 'Kiste', 'Stift', 'Hammer', 'Brille', 'Rucksack']",['groß'],1,3.407581000123173,None,,,,,,,,,,,,,,,,,,,,,,,,,,,,,,,,,,,,,,,,,,,,,,,,,,,,,,,,,,,,,,,,,3,2023-11-29_11h34.39.758,watkins1,2023.2.3,99.71342366701576,29,2023-11-29 11h34.46.633780 +0000,
,,,,,,,1,0,1,0,,,,,,,,,,,,,,,,,63.827105399919674,,,,,,,,,,63.81833490007557,64.30915340012871,,,1,1.652562600094825,,,,,,,,,,,,,,,,,,,,,64.3091631999705,70.31054440001026,Lampe,hübsch,"['Lampe', 'hübsch']",restudy,3,"['Buch', 'Lampe', 'Würfel', 'Schlüssel', 'Eimer', 'Geige', 'Socke', 'Löffel', 'Blume', 'Kerze', 'Ring', 'Hut', 'Trommel', 'Telefon', 'Fahrrad', 'Schere', 'Tasse', 'Kamera', 'Uhr', 'Flasche', 'Kette', 'Bürste', 'Jacke', 'Vase', 'Tasche', 'Kiste', 'Stift', 'Hammer', 'Brille', 'Rucksack']","['groß', 'hübsch']",1,1.652562600094825,None,,,,,,,,,,,,,,,,,,,,,,,,,,,,,,,,,,,,,,,,,,,,,,,,,,,,,,,,,,,,,,,,,3,2023-11-29_11h34.39.758,watkins1,2023.2.3,99.71342366701576,29,2023-11-29 11h34.46.633780 +0000,
,,,,,,,2,0,2,0,,,,,,,,,,,,,,,,,70.31985899992287,,,,,,,,,,70.31109339999966,70.80279610003345,,,1,1.50268719997257,,,,,,,,,,,,,,,,,,,,,70.80280690011568,76.8094252999872,Würfel,nachhaltig,"['Würfel', 'nachhaltig']",test_adj,3,"['Buch', 'Lampe', 'Würfel', 'Schlüssel', 'Eimer', 'Geige', 'Socke', 'Löffel', 'Blume', 'Kerze', 'Ring', 'Hut', 'Trommel', 'Telefon', 'Fahrrad', 'Schere', 'Tasse', 'Kamera', 'Uhr', 'Flasche', 'Kette', 'Bürste', 'Jacke', 'Vase', 'Tasche', 'Kiste', 'Stift', 'Hammer', 'Brille', 'Rucksack']","['groß', 'hübsch', 'nachhaltig']",1,1.50268719997257,None,,,,,,,,,,,,,,,,,,,,,,,,,,,,,,,,,,,,,,,,,,,,,,,,,,,,,,,,,,,,,,,,,3,2023-11-29_11h34.39.758,watkins1,2023.2.3,99.71342366701576,29,2023-11-29 11h34.46.633780 +0000,
,,,,,,,3,0,3,0,,,,,,,,,,,,,,,,,76.81884289998561,,,,,,,,,,76.80995470006019,77.30097949993797,,,1,1.7418847000226378,,,,,,,,,,,,,,,,,,,,,77.30098910001107,83.30535980011337,Schlüssel,breit,"['Schlüssel', 'breit']",restudy,3,"['Buch', 'Lampe', 'Würfel', 'Schlüssel', 'Eimer', 'Geige', 'Socke', 'Löffel', 'Blume', 'Kerze', 'Ring', 'Hut', 'Trommel', 'Telefon', 'Fahrrad', 'Schere', 'Tasse', 'Kamera', 'Uhr', 'Flasche', 'Kette', 'Bürste', 'Jacke', 'Vase', 'Tasche', 'Kiste', 'Stift', 'Hammer', 'Brille', 'Rucksack']","['groß', 'hübsch', 'nachhaltig', 'breit']",1,1.7418847000226378,None,,,,,,,,,,,,,,,,,,,,,,,,,,,,,,,,,,,,,,,,,,,,,,,,,,,,,,,,,,,,,,,,,3,2023-11-29_11h34.39.758,watkins1,2023.2.3,99.71342366701576,29,2023-11-29 11h34.46.633780 +0000,
,,,,,,,4,0,4,0,,,,,,,,,,,,,,,,,83.31476219999604,,,,,,,,,,83.3059827000834,83.79695310001262,,,2,2.2847268998157233,,,,,,,,,,,,,,,,,,,,,83.79696410009637,89.80122369993478,Eimer,rustikal,"['Eimer', 'rustikal']",restudy,3,"['Buch', 'Lampe', 'Würfel', 'Schlüssel', 'Eimer', 'Geige', 'Socke', 'Löffel', 'Blume', 'Kerze', 'Ring', 'Hut', 'Trommel', 'Telefon', 'Fahrrad', 'Schere', 'Tasse', 'Kamera', 'Uhr', 'Flasche', 'Kette', 'Bürste', 'Jacke', 'Vase', 'Tasche', 'Kiste', 'Stift', 'Hammer', 'Brille', 'Rucksack']","['groß', 'hübsch', 'nachhaltig', 'breit', 'rustikal']",2,2.2847268998157233,None,,,,,,,,,,,,,,,,,,,,,,,,,,,,,,,,,,,,,,,,,,,,,,,,,,,,,,,,,,,,,,,,,3,2023-11-29_11h34.39.758,watkins1,2023.2.3,99.71342366701576,29,2023-11-29 11h34.46.633780 +0000,
,,,,,,,5,0,5,0,,,,,,,,,,,,,,,,,89.81065030000173,,,,,,,,,,89.8017621000763,90.29261459992267,,,1,1.31678680004552,,,,,,,,,,,,,,,,,,,,,90.29262450011447,96.29818710009567,Geige,hässlich,"['Geige', 'hässlich']",restudy,3,"['Buch', 'Lampe', 'Würfel', 'Schlüssel', 'Eimer', 'Geige', 'Socke', 'Löffel', 'Blume', 'Kerze', 'Ring', 'Hut', 'Trommel', 'Telefon', 'Fahrrad', 'Schere', 'Tasse', 'Kamera', 'Uhr', 'Flasche', 'Kette', 'Bürste', 'Jacke', 'Vase', 'Tasche', 'Kiste', 'Stift', 'Hammer', 'Brille', 'Rucksack']","['groß', 'hübsch', 'nachhaltig', 'breit', 'rustikal', 'hässlich']",1,1.31678680004552,None,,,,,,,,,,,,,,,,,,,,,,,,,,,,,,,,,,,,,,,,,,,,,,,,,,,,,,,,,,,,,,,,,3,2023-11-29_11h34.39.758,watkins1,2023.2.3,99.71342366701576,29,2023-11-29 11h34.46.633780 +0000,
,,,,,,,6,0,6,0,,,,,,,,,,,,,,,,,96.30756140011363,,,,,,,,,,96.29872810002416,96.78963030013256,,,1,3.357758699916303,,,,,,,,,,,,,,,,,,,,,96.78964040009305,102.79660460003652,Socke,sauber,"['Socke', 'sauber']",restudy,3,"['Buch', 'Lampe', 'Würfel', 'Schlüssel', 'Eimer', 'Geige', 'Socke', 'Löffel', 'Blume', 'Kerze', 'Ring', 'Hut', 'Trommel', 'Telefon', 'Fahrrad', 'Schere', 'Tasse', 'Kamera', 'Uhr', 'Flasche', 'Kette', 'Bürste', 'Jacke', 'Vase', 'Tasche', 'Kiste', 'Stift', 'Hammer', 'Brille', 'Rucksack']","['groß', 'hübsch', 'nachhaltig', 'breit', 'rustikal', 'hässlich', 'sauber']",1,3.357758699916303,None,,,,,,,,,,,,,,,,,,,,,,,,,,,,,,,,,,,,,,,,,,,,,,,,,,,,,,,,,,,,,,,,,3,2023-11-29_11h34.39.758,watkins1,2023.2.3,99.71342366701576,29,2023-11-29 11h34.46.633780 +0000,
,,,,,,,7,0,7,0,,,,,,,,,,,,,,,,,102.80598539998755,,,,,,,,,,102.79713799990714,103.28852820000611,,,1,2.6656740999314934,,,,,,,,,,,,,,,,,,,,,103.28853840008378,109.29544860008173,Löffel,dunkel,"['Löffel', 'dunkel']",test_adj,3,"['Buch', 'Lampe', 'Würfel', 'Schlüssel', 'Eimer', 'Geige', 'Socke', 'Löffel', 'Blume', 'Kerze', 'Ring', 'Hut', 'Trommel', 'Telefon', 'Fahrrad', 'Schere', 'Tasse', 'Kamera', 'Uhr', 'Flasche', 'Kette', 'Bürste', 'Jacke', 'Vase', 'Tasche', 'Kiste', 'Stift', 'Hammer', 'Brille', 'Rucksack']","['groß', 'hübsch', 'nachhaltig', 'breit', 'rustikal', 'hässlich', 'sauber', 'dunkel']",1,2.6656740999314934,None,,,,,,,,,,,,,,,,,,,,,,,,,,,,,,,,,,,,,,,,,,,,,,,,,,,,,,,,,,,,,,,,,3,2023-11-29_11h34.39.758,watkins1,2023.2.3,99.71342366701576,29,2023-11-29 11h34.46.633780 +0000,
,,,,,,,8,0,8,0,,,,,,,,,,,,,,,,,109.30489020003006,,,,,,,,,,109.29596700007096,109.78692109999247,,,1,1.1685090002138168,,,,,,,,,,,,,,,,,,,,,109.78693179995753,115.79018680006266,Blume,kaputt,"['Blume', 'kaputt']",test_adj,3,"['Buch', 'Lampe', 'Würfel', 'Schlüssel', 'Eimer', 'Geige', 'Socke', 'Löffel', 'Blume', 'Kerze', 'Ring', 'Hut', 'Trommel', 'Telefon', 'Fahrrad', 'Schere', 'Tasse', 'Kamera', 'Uhr', 'Flasche', 'Kette', 'Bürste', 'Jacke', 'Vase', 'Tasche', 'Kiste', 'Stift', 'Hammer', 'Brille', 'Rucksack']","['groß', 'hübsch', 'nachhaltig', 'breit', 'rustikal', 'hässlich', 'sauber', 'dunkel', 'kaputt']",1,1.1685090002138168,None,,,,,,,,,,,,,,,,,,,,,,,,,,,,,,,,,,,,,,,,,,,,,,,,,,,,,,,,,,,,,,,,,3,2023-11-29_11h34.39.758,watkins1,2023.2.3,99.71342366701576,29,2023-11-29 11h34.46.633780 +0000,
,,,,,,,9,0,9,0,,,,,,,,,,,,,,,,,115.79951600008644,,,,,,,,,,115.79071510001086,116.28153129993007,,,2,1.728952000150457,,,,,,,,,,,,,,,,,,,,,116.28154190001078,122.28814429999329,Kerze,elegant,"['Kerze', 'elegant']",test_adj,3,"['Buch', 'Lampe', 'Würfel', 'Schlüssel', 'Eimer', 'Geige', 'Socke', 'Löffel', 'Blume', 'Kerze', 'Ring', 'Hut', 'Trommel', 'Telefon', 'Fahrrad', 'Schere', 'Tasse', 'Kamera', 'Uhr', 'Flasche', 'Kette', 'Bürste', 'Jacke', 'Vase', 'Tasche', 'Kiste', 'Stift', 'Hammer', 'Brille', 'Rucksack']","['groß', 'hübsch', 'nachhaltig', 'breit', 'rustikal', 'hässlich', 'sauber', 'dunkel', 'kaputt', 'elegant']",2,1.728952000150457,None,,,,,,,,,,,,,,,,,,,,,,,,,,,,,,,,,,,,,,,,,,,,,,,,,,,,,,,,,,,,,,,,,3,2023-11-29_11h34.39.758,watkins1,2023.2.3,99.71342366701576,29,2023-11-29 11h34.46.633780 +0000,
,,,,,,,10,0,10,0,,,,,,,,,,,,,,,,,122.29755640006624,,,,,,,,,,122.28866660012864,122.77961420011707,,,2,2.614909299882129,,,,,,,,,,,,,,,,,,,,,122.7796243999619,128.78178080008365,Ring,flach,"['Ring', 'flach']",test_adj,3,"['Buch', 'Lampe', 'Würfel', 'Schlüssel', 'Eimer', 'Geige', 'Socke', 'Löffel', 'Blume', 'Kerze', 'Ring', 'Hut', 'Trommel', 'Telefon', 'Fahrrad', 'Schere', 'Tasse', 'Kamera', 'Uhr', 'Flasche', 'Kette', 'Bürste', 'Jacke', 'Vase', 'Tasche', 'Kiste', 'Stift', 'Hammer', 'Brille', 'Rucksack']","['groß', 'hübsch', 'nachhaltig', 'breit', 'rustikal', 'hässlich', 'sauber', 'dunkel', 'kaputt', 'elegant', 'flach']",2,2.614909299882129,None,,,,,,,,,,,,,,,,,,,,,,,,,,,,,,,,,,,,,,,,,,,,,,,,,,,,,,,,,,,,,,,,,3,2023-11-29_11h34.39.758,watkins1,2023.2.3,99.71342366701576,29,2023-11-29 11h34.46.633780 +0000,
,,,,,,,11,0,11,0,,,,,,,,,,,,,,,,,128.79119069990702,,,,,,,,,,128.78230700013228,129.2730630999431,,,1,2.2653975000139326,,,,,,,,,,,,,,,,,,,,,129.27307290001772,135.27669400000013,Hut,strahlend,"['Hut', 'strahlend']",restudy,3,"['Buch', 'Lampe', 'Würfel', 'Schlüssel', 'Eimer', 'Geige', 'Socke', 'Löffel', 'Blume', 'Kerze', 'Ring', 'Hut', 'Trommel', 'Telefon', 'Fahrrad', 'Schere', 'Tasse', 'Kamera', 'Uhr', 'Flasche', 'Kette', 'Bürste', 'Jacke', 'Vase', 'Tasche', 'Kiste', 'Stift', 'Hammer', 'Brille', 'Rucksack']","['groß', 'hübsch', 'nachhaltig', 'breit', 'rustikal', 'hässlich', 'sauber', 'dunkel', 'kaputt', 'elegant', 'flach', 'strahlend']",1,2.2653975000139326,None,,,,,,,,,,,,,,,,,,,,,,,,,,,,,,,,,,,,,,,,,,,,,,,,,,,,,,,,,,,,,,,,,3,2023-11-29_11h34.39.758,watkins1,2023.2.3,99.71342366701576,29,2023-11-29 11h34.46.633780 +0000,
,,,,,,,12,0,12,0,,,,,,,,,,,,,,,,,135.28613579995,,,,,,,,,,135.2772198000457,135.76813090010546,,,2,1.6744979999493808,,,,,,,,,,,,,,,,,,,,,135.76814080006443,141.7716777001042,Trommel,bunt,"['Trommel', 'bunt']",restudy,3,"['Buch', 'Lampe', 'Würfel', 'Schlüssel', 'Eimer', 'Geige', 'Socke', 'Löffel', 'Blume', 'Kerze', 'Ring', 'Hut', 'Trommel', 'Telefon', 'Fahrrad', 'Schere', 'Tasse', 'Kamera', 'Uhr', 'Flasche', 'Kette', 'Bürste', 'Jacke', 'Vase', 'Tasche', 'Kiste', 'Stift', 'Hammer', 'Brille', 'Rucksack']","['groß', 'hübsch', 'nachhaltig', 'breit', 'rustikal', 'hässlich', 'sauber', 'dunkel', 'kaputt', 'elegant', 'flach', 'strahlend', 'bunt']",2,1.6744979999493808,None,,,,,,,,,,,,,,,,,,,,,,,,,,,,,,,,,,,,,,,,,,,,,,,,,,,,,,,,,,,,,,,,,3,2023-11-29_11h34.39.758,watkins1,2023.2.3,99.71342366701576,29,2023-11-29 11h34.46.633780 +0000,
,,,,,,,13,0,13,0,,,,,,,,,,,,,,,,,141.78099590004422,,,,,,,,,,141.7721881000325,142.26307619991712,,,1,2.2115573999471962,,,,,,,,,,,,,,,,,,,,,142.26308699999936,148.2693300000392,Telefon,winzig,"['Telefon', 'winzig']",test_adj,3,"['Buch', 'Lampe', 'Würfel', 'Schlüssel', 'Eimer', 'Geige', 'Socke', 'Löffel', 'Blume', 'Kerze', 'Ring', 'Hut', 'Trommel', 'Telefon', 'Fahrrad', 'Schere', 'Tasse', 'Kamera', 'Uhr', 'Flasche', 'Kette', 'Bürste', 'Jacke', 'Vase', 'Tasche', 'Kiste', 'Stift', 'Hammer', 'Brille', 'Rucksack']","['groß', 'hübsch', 'nachhaltig', 'breit', 'rustikal', 'hässlich', 'sauber', 'dunkel', 'kaputt', 'elegant', 'flach', 'strahlend', 'bunt', 'winzig']",1,2.2115573999471962,None,,,,,,,,,,,,,,,,,,,,,,,,,,,,,,,,,,,,,,,,,,,,,,,,,,,,,,,,,,,,,,,,,3,2023-11-29_11h34.39.758,watkins1,2023.2.3,99.71342366701576,29,2023-11-29 11h34.46.633780 +0000,
,,,,,,,14,0,14,0,,,,,,,,,,,,,,,,,148.27870710007846,,,,,,,,,,148.26985109993257,148.76091710012406,,,1,2.6578756000380963,,,,,,,,,,,,,,,,,,,,,148.76092769997194,154.76237250003032,Fahrrad,zart,"['Fahrrad', 'zart']",test_adj,3,"['Buch', 'Lampe', 'Würfel', 'Schlüssel', 'Eimer', 'Geige', 'Socke', 'Löffel', 'Blume', 'Kerze', 'Ring', 'Hut', 'Trommel', 'Telefon', 'Fahrrad', 'Schere', 'Tasse', 'Kamera', 'Uhr', 'Flasche', 'Kette', 'Bürste', 'Jacke', 'Vase', 'Tasche', 'Kiste', 'Stift', 'Hammer', 'Brille', 'Rucksack']","['groß', 'hübsch', 'nachhaltig', 'breit', 'rustikal', 'hässlich', 'sauber', 'dunkel', 'kaputt', 'elegant', 'flach', 'strahlend', 'bunt', 'winzig', 'zart']",1,2.6578756000380963,None,,,,,,,,,,,,,,,,,,,,,,,,,,,,,,,,,,,,,,,,,,,,,,,,,,,,,,,,,,,,,,,,,3,2023-11-29_11h34.39.758,watkins1,2023.2.3,99.71342366701576,29,2023-11-29 11h34.46.633780 +0000,
,,,,,,,15,0,15,0,,,,,,,,,,,,,,,,,154.7718019001186,,,,,,,,,,154.76289819995873,155.25380860012956,,,1,1.341410799883306,,,,,,,,,,,,,,,,,,,,,155.25381890009157,161.25920019997284,Schere,biegsam,"['Schere', 'biegsam']",test_adj,3,"['Buch', 'Lampe', 'Würfel', 'Schlüssel', 'Eimer', 'Geige', 'Socke', 'Löffel', 'Blume', 'Kerze', 'Ring', 'Hut', 'Trommel', 'Telefon', 'Fahrrad', 'Schere', 'Tasse', 'Kamera', 'Uhr', 'Flasche', 'Kette', 'Bürste', 'Jacke', 'Vase', 'Tasche', 'Kiste', 'Stift', 'Hammer', 'Brille', 'Rucksack']","['groß', 'hübsch', 'nachhaltig', 'breit', 'rustikal', 'hässlich', 'sauber', 'dunkel', 'kaputt', 'elegant', 'flach', 'strahlend', 'bunt', 'winzig', 'zart', 'biegsam']",1,1.341410799883306,None,,,,,,,,,,,,,,,,,,,,,,,,,,,,,,,,,,,,,,,,,,,,,,,,,,,,,,,,,,,,,,,,,3,2023-11-29_11h34.39.758,watkins1,2023.2.3,99.71342366701576,29,2023-11-29 11h34.46.633780 +0000,
,,,,,,,16,0,16,0,,,,,,,,,,,,,,,,,161.2685700999573,,,,,,,,,,161.2597324999515,161.75070980004966,,,2,2.468352399999276,,,,,,,,,,,,,,,,,,,,,161.7507198001258,167.75418870011345,Tasse,glänzend,"['Tasse', 'glänzend']",restudy,3,"['Buch', 'Lampe', 'Würfel', 'Schlüssel', 'Eimer', 'Geige', 'Socke', 'Löffel', 'Blume', 'Kerze', 'Ring', 'Hut', 'Trommel', 'Telefon', 'Fahrrad', 'Schere', 'Tasse', 'Kamera', 'Uhr', 'Flasche', 'Kette', 'Bürste', 'Jacke', 'Vase', 'Tasche', 'Kiste', 'Stift', 'Hammer', 'Brille', 'Rucksack']","['groß', 'hübsch', 'nachhaltig', 'breit', 'rustikal', 'hässlich', 'sauber', 'dunkel', 'kaputt', 'elegant', 'flach', 'strahlend', 'bunt', 'winzig', 'zart', 'biegsam', 'glänzend']",2,2.468352399999276,None,,,,,,,,,,,,,,,,,,,,,,,,,,,,,,,,,,,,,,,,,,,,,,,,,,,,,,,,,,,,,,,,,3,2023-11-29_11h34.39.758,watkins1,2023.2.3,99.71342366701576,29,2023-11-29 11h34.46.633780 +0000,
,,,,,,,17,0,17,0,,,,,,,,,,,,,,,,,167.76358420006,,,,,,,,,,167.754717099946,168.24578360002488,,,2,1.4374585999175906,,,,,,,,,,,,,,,,,,,,,168.24579289997928,174.2465482999105,Kamera,schwer,"['Kamera', 'schwer']",test_adj,3,"['Buch', 'Lampe', 'Würfel', 'Schlüssel', 'Eimer', 'Geige', 'Socke', 'Löffel', 'Blume', 'Kerze', 'Ring', 'Hut', 'Trommel', 'Telefon', 'Fahrrad', 'Schere', 'Tasse', 'Kamera', 'Uhr', 'Flasche', 'Kette', 'Bürste', 'Jacke', 'Vase', 'Tasche', 'Kiste', 'Stift', 'Hammer', 'Brille', 'Rucksack']","['groß', 'hübsch', 'nachhaltig', 'breit', 'rustikal', 'hässlich', 'sauber', 'dunkel', 'kaputt', 'elegant', 'flach', 'strahlend', 'bunt', 'winzig', 'zart', 'biegsam', 'glänzend', 'schwer']",2,1.4374585999175906,None,,,,,,,,,,,,,,,,,,,,,,,,,,,,,,,,,,,,,,,,,,,,,,,,,,,,,,,,,,,,,,,,,3,2023-11-29_11h34.39.758,watkins1,2023.2.3,99.71342366701576,29,2023-11-29 11h34.46.633780 +0000,
,,,,,,,18,0,18,0,,,,,,,,,,,,,,,,,174.2559847999364,,,,,,,,,,174.24707529996522,174.7378976000473,,,3,0.9281143001280725,,,,,,,,,,,,,,,,,,,,,174.7379079000093,180.74475979991257,Uhr,praktisch,"['Uhr', 'praktisch']",restudy,3,"['Buch', 'Lampe', 'Würfel', 'Schlüssel', 'Eimer', 'Geige', 'Socke', 'Löffel', 'Blume', 'Kerze', 'Ring', 'Hut', 'Trommel', 'Telefon', 'Fahrrad', 'Schere', 'Tasse', 'Kamera', 'Uhr', 'Flasche', 'Kette', 'Bürste', 'Jacke', 'Vase', 'Tasche', 'Kiste', 'Stift', 'Hammer', 'Brille', 'Rucksack']","['groß', 'hübsch', 'nachhaltig', 'breit', 'rustikal', 'hässlich', 'sauber', 'dunkel', 'kaputt', 'elegant', 'flach', 'strahlend', 'bunt', 'winzig', 'zart', 'biegsam', 'glänzend', 'schwer', 'praktisch']",3,0.9281143001280725,None,,,,,,,,,,,,,,,,,,,,,,,,,,,,,,,,,,,,,,,,,,,,,,,,,,,,,,,,,,,,,,,,,3,2023-11-29_11h34.39.758,watkins1,2023.2.3,99.71342366701576,29,2023-11-29 11h34.46.633780 +0000,
,,,,,,,19,0,19,0,,,,,,,,,,,,,,,,,180.75419070012867,,,,,,,,,,180.74528330005705,181.23624340002425,,,2,3.8149379999376833,,,,,,,,,,,,,,,,,,,,,181.2362534001004,187.2454784999136,Flasche,blass,"['Flasche', 'blass']",test_adj,3,"['Buch', 'Lampe', 'Würfel', 'Schlüssel', 'Eimer', 'Geige', 'Socke', 'Löffel', 'Blume', 'Kerze', 'Ring', 'Hut', 'Trommel', 'Telefon', 'Fahrrad', 'Schere', 'Tasse', 'Kamera', 'Uhr', 'Flasche', 'Kette', 'Bürste', 'Jacke', 'Vase', 'Tasche', 'Kiste', 'Stift', 'Hammer', 'Brille', 'Rucksack']","['groß', 'hübsch', 'nachhaltig', 'breit', 'rustikal', 'hässlich', 'sauber', 'dunkel', 'kaputt', 'elegant', 'flach', 'strahlend', 'bunt', 'winzig', 'zart', 'biegsam', 'glänzend', 'schwer', 'praktisch', 'blass']",2,3.8149379999376833,None,,,,,,,,,,,,,,,,,,,,,,,,,,,,,,,,,,,,,,,,,,,,,,,,,,,,,,,,,,,,,,,,,3,2023-11-29_11h34.39.758,watkins1,2023.2.3,99.71342366701576,29,2023-11-29 11h34.46.633780 +0000,
,,,,,,,20,0,20,0,,,,,,,,,,,,,,,,,187.25476950011216,,,,,,,,,,187.24600900011137,187.7369202999398,,,2,2.2663312999065965,,,,,,,,,,,,,,,,,,,,,187.73693030001596,193.74200600013137,Kette,neu,"['Kette', 'neu']",test_adj,3,"['Buch', 'Lampe', 'Würfel', 'Schlüssel', 'Eimer', 'Geige', 'Socke', 'Löffel', 'Blume', 'Kerze', 'Ring', 'Hut', 'Trommel', 'Telefon', 'Fahrrad', 'Schere', 'Tasse', 'Kamera', 'Uhr', 'Flasche', 'Kette', 'Bürste', 'Jacke', 'Vase', 'Tasche', 'Kiste', 'Stift', 'Hammer', 'Brille', 'Rucksack']","['groß', 'hübsch', 'nachhaltig', 'breit', 'rustikal', 'hässlich', 'sauber', 'dunkel', 'kaputt', 'elegant', 'flach', 'strahlend', 'bunt', 'winzig', 'zart', 'biegsam', 'glänzend', 'schwer', 'praktisch', 'blass', 'neu']",2,2.2663312999065965,None,,,,,,,,,,,,,,,,,,,,,,,,,,,,,,,,,,,,,,,,,,,,,,,,,,,,,,,,,,,,,,,,,3,2023-11-29_11h34.39.758,watkins1,2023.2.3,99.71342366701576,29,2023-11-29 11h34.46.633780 +0000,
,,,,,,,21,0,21,0,,,,,,,,,,,,,,,,,193.75143059995025,,,,,,,,,,193.74255160009488,194.23345739999786,,,1,3.505547600099817,,,,,,,,,,,,,,,,,,,,,194.23346689995378,200.24044020008296,Bürste,sportlich,"['Bürste', 'sportlich']",test_adj,3,"['Buch', 'Lampe', 'Würfel', 'Schlüssel', 'Eimer', 'Geige', 'Socke', 'Löffel', 'Blume', 'Kerze', 'Ring', 'Hut', 'Trommel', 'Telefon', 'Fahrrad', 'Schere', 'Tasse', 'Kamera', 'Uhr', 'Flasche', 'Kette', 'Bürste', 'Jacke', 'Vase', 'Tasche', 'Kiste', 'Stift', 'Hammer', 'Brille', 'Rucksack']","['groß', 'hübsch', 'nachhaltig', 'breit', 'rustikal', 'hässlich', 'sauber', 'dunkel', 'kaputt', 'elegant', 'flach', 'strahlend', 'bunt', 'winzig', 'zart', 'biegsam', 'glänzend', 'schwer', 'praktisch', 'blass', 'neu', 'sportlich']",1,3.505547600099817,None,,,,,,,,,,,,,,,,,,,,,,,,,,,,,,,,,,,,,,,,,,,,,,,,,,,,,,,,,,,,,,,,,3,2023-11-29_11h34.39.758,watkins1,2023.2.3,99.71342366701576,29,2023-11-29 11h34.46.633780 +0000,
,,,,,,,22,0,22,0,,,,,,,,,,,,,,,,,200.24986069998704,,,,,,,,,,200.24097730009817,200.73190660006367,,,2,1.342184100067243,,,,,,,,,,,,,,,,,,,,,200.73191659990698,206.742409999948,Jacke,gepunktet,"['Jacke', 'gepunktet']",restudy,3,"['Buch', 'Lampe', 'Würfel', 'Schlüssel', 'Eimer', 'Geige', 'Socke', 'Löffel', 'Blume', 'Kerze', 'Ring', 'Hut', 'Trommel', 'Telefon', 'Fahrrad', 'Schere', 'Tasse', 'Kamera', 'Uhr', 'Flasche', 'Kette', 'Bürste', 'Jacke', 'Vase', 'Tasche', 'Kiste', 'Stift', 'Hammer', 'Brille', 'Rucksack']","['groß', 'hübsch', 'nachhaltig', 'breit', 'rustikal', 'hässlich', 'sauber', 'dunkel', 'kaputt', 'elegant', 'flach', 'strahlend', 'bunt', 'winzig', 'zart', 'biegsam', 'glänzend', 'schwer', 'praktisch', 'blass', 'neu', 'sportlich', 'gepunktet']",2,1.342184100067243,None,,,,,,,,,,,,,,,,,,,,,,,,,,,,,,,,,,,,,,,,,,,,,,,,,,,,,,,,,,,,,,,,,3,2023-11-29_11h34.39.758,watkins1,2023.2.3,99.71342366701576,29,2023-11-29 11h34.46.633780 +0000,
,,,,,,,23,0,23,0,,,,,,,,,,,,,,,,,206.75189270009287,,,,,,,,,,206.74294829997234,207.2339415999595,,,1,1.0803308000322431,,,,,,,,,,,,,,,,,,,,,207.23395169992,213.24147549993359,Vase,flauschig,"['Vase', 'flauschig']",test_adj,3,"['Buch', 'Lampe', 'Würfel', 'Schlüssel', 'Eimer', 'Geige', 'Socke', 'Löffel', 'Blume', 'Kerze', 'Ring', 'Hut', 'Trommel', 'Telefon', 'Fahrrad', 'Schere', 'Tasse', 'Kamera', 'Uhr', 'Flasche', 'Kette', 'Bürste', 'Jacke', 'Vase', 'Tasche', 'Kiste', 'Stift', 'Hammer', 'Brille', 'Rucksack']","['groß', 'hübsch', 'nachhaltig', 'breit', 'rustikal', 'hässlich', 'sauber', 'dunkel', 'kaputt', 'elegant', 'flach', 'strahlend', 'bunt', 'winzig', 'zart', 'biegsam', 'glänzend', 'schwer', 'praktisch', 'blass', 'neu', 'sportlich', 'gepunktet', 'flauschig']",1,1.0803308000322431,None,,,,,,,,,,,,,,,,,,,,,,,,,,,,,,,,,,,,,,,,,,,,,,,,,,,,,,,,,,,,,,,,,3,2023-11-29_11h34.39.758,watkins1,2023.2.3,99.71342366701576,29,2023-11-29 11h34.46.633780 +0000,
,,,,,,,24,0,24,0,,,,,,,,,,,,,,,,,213.25089240004309,,,,,,,,,,213.24199780006893,213.7329577000346,,,1,1.261998400092125,,,,,,,,,,,,,,,,,,,,,213.7329686000012,219.7422649001237,Tasche,durchsichtig,"['Tasche', 'durchsichtig']",restudy,3,"['Buch', 'Lampe', 'Würfel', 'Schlüssel', 'Eimer', 'Geige', 'Socke', 'Löffel', 'Blume', 'Kerze', 'Ring', 'Hut', 'Trommel', 'Telefon', 'Fahrrad', 'Schere', 'Tasse', 'Kamera', 'Uhr', 'Flasche', 'Kette', 'Bürste', 'Jacke', 'Vase', 'Tasche', 'Kiste', 'Stift', 'Hammer', 'Brille', 'Rucksack']","['groß', 'hübsch', 'nachhaltig', 'breit', 'rustikal', 'hässlich', 'sauber', 'dunkel', 'kaputt', 'elegant', 'flach', 'strahlend', 'bunt', 'winzig', 'zart', 'biegsam', 'glänzend', 'schwer', 'praktisch', 'blass', 'neu', 'sportlich', 'gepunktet', 'flauschig', 'durchsichtig']",1,1.261998400092125,None,,,,,,,,,,,,,,,,,,,,,,,,,,,,,,,,,,,,,,,,,,,,,,,,,,,,,,,,,,,,,,,,,3,2023-11-29_11h34.39.758,watkins1,2023.2.3,99.71342366701576,29,2023-11-29 11h34.46.633780 +0000,
,,,,,,,25,0,25,0,,,,,,,,,,,,,,,,,219.75168669992127,,,,,,,,,,219.74279689998366,220.23380649997853,,,2,2.0895410999655724,,,,,,,,,,,,,,,,,,,,,220.23381610005163,226.2441438001115,Kiste,dick,"['Kiste', 'dick']",restudy,3,"['Buch', 'Lampe', 'Würfel', 'Schlüssel', 'Eimer', 'Geige', 'Socke', 'Löffel', 'Blume', 'Kerze', 'Ring', 'Hut', 'Trommel', 'Telefon', 'Fahrrad', 'Schere', 'Tasse', 'Kamera', 'Uhr', 'Flasche', 'Kette', 'Bürste', 'Jacke', 'Vase', 'Tasche', 'Kiste', 'Stift', 'Hammer', 'Brille', 'Rucksack']","['groß', 'hübsch', 'nachhaltig', 'breit', 'rustikal', 'hässlich', 'sauber', 'dunkel', 'kaputt', 'elegant', 'flach', 'strahlend', 'bunt', 'winzig', 'zart', 'biegsam', 'glänzend', 'schwer', 'praktisch', 'blass', 'neu', 'sportlich', 'gepunktet', 'flauschig', 'durchsichtig', 'dick']",2,2.0895410999655724,None,,,,,,,,,,,,,,,,,,,,,,,,,,,,,,,,,,,,,,,,,,,,,,,,,,,,,,,,,,,,,,,,,3,2023-11-29_11h34.39.758,watkins1,2023.2.3,99.71342366701576,29,2023-11-29 11h34.46.633780 +0000,
,,,,,,,26,0,26,0,,,,,,,,,,,,,,,,,226.2535345000215,,,,,,,,,,226.24468540004455,226.73566789994948,,,3,4.915397199802101,,,,,,,,,,,,,,,,,,,,,226.73567830002867,232.73938639997505,Stift,schlicht,"['Stift', 'schlicht']",restudy,3,"['Buch', 'Lampe', 'Würfel', 'Schlüssel', 'Eimer', 'Geige', 'Socke', 'Löffel', 'Blume', 'Kerze', 'Ring', 'Hut', 'Trommel', 'Telefon', 'Fahrrad', 'Schere', 'Tasse', 'Kamera', 'Uhr', 'Flasche', 'Kette', 'Bürste', 'Jacke', 'Vase', 'Tasche', 'Kiste', 'Stift', 'Hammer', 'Brille', 'Rucksack']","['groß', 'hübsch', 'nachhaltig', 'breit', 'rustikal', 'hässlich', 'sauber', 'dunkel', 'kaputt', 'elegant', 'flach', 'strahlend', 'bunt', 'winzig', 'zart', 'biegsam', 'glänzend', 'schwer', 'praktisch', 'blass', 'neu', 'sportlich', 'gepunktet', 'flauschig', 'durchsichtig', 'dick', 'schlicht']",3,4.915397199802101,None,,,,,,,,,,,,,,,,,,,,,,,,,,,,,,,,,,,,,,,,,,,,,,,,,,,,,,,,,,,,,,,,,3,2023-11-29_11h34.39.758,watkins1,2023.2.3,99.71342366701576,29,2023-11-29 11h34.46.633780 +0000,
,,,,,,,27,0,27,0,,,,,,,,,,,,,,,,,232.74880880001,,,,,,,,,,232.7399142999202,233.2308958999347,,,1,2.404439500067383,,,,,,,,,,,,,,,,,,,,,233.2309058001265,239.23494070000015,Hammer,hohl,"['Hammer', 'hohl']",test_adj,3,"['Buch', 'Lampe', 'Würfel', 'Schlüssel', 'Eimer', 'Geige', 'Socke', 'Löffel', 'Blume', 'Kerze', 'Ring', 'Hut', 'Trommel', 'Telefon', 'Fahrrad', 'Schere', 'Tasse', 'Kamera', 'Uhr', 'Flasche', 'Kette', 'Bürste', 'Jacke', 'Vase', 'Tasche', 'Kiste', 'Stift', 'Hammer', 'Brille', 'Rucksack']","['groß', 'hübsch', 'nachhaltig', 'breit', 'rustikal', 'hässlich', 'sauber', 'dunkel', 'kaputt', 'elegant', 'flach', 'strahlend', 'bunt', 'winzig', 'zart', 'biegsam', 'glänzend', 'schwer', 'praktisch', 'blass', 'neu', 'sportlich', 'gepunktet', 'flauschig', 'durchsichtig', 'dick', 'schlicht', 'hohl']",1,2.404439500067383,None,,,,,,,,,,,,,,,,,,,,,,,,,,,,,,,,,,,,,,,,,,,,,,,,,,,,,,,,,,,,,,,,,3,2023-11-29_11h34.39.758,watkins1,2023.2.3,99.71342366701576,29,2023-11-29 11h34.46.633780 +0000,
,,,,,,,28,0,28,0,,,,,,,,,,,,,,,,,239.24431070010178,,,,,,,,,,239.23546750005335,239.72637029993348,,,2,2.3804811001755297,,,,,,,,,,,,,,,,,,,,,239.72638000012375,245.7276216999162,Brille,lustig,"['Brille', 'lustig']",test_adj,3,"['Buch', 'Lampe', 'Würfel', 'Schlüssel', 'Eimer', 'Geige', 'Socke', 'Löffel', 'Blume', 'Kerze', 'Ring', 'Hut', 'Trommel', 'Telefon', 'Fahrrad', 'Schere', 'Tasse', 'Kamera', 'Uhr', 'Flasche', 'Kette', 'Bürste', 'Jacke', 'Vase', 'Tasche', 'Kiste', 'Stift', 'Hammer', 'Brille', 'Rucksack']","['groß', 'hübsch', 'nachhaltig', 'breit', 'rustikal', 'hässlich', 'sauber', 'dunkel', 'kaputt', 'elegant', 'flach', 'strahlend', 'bunt', 'winzig', 'zart', 'biegsam', 'glänzend', 'schwer', 'praktisch', 'blass', 'neu', 'sportlich', 'gepunktet', 'flauschig', 'durchsichtig', 'dick', 'schlicht', 'hohl', 'lustig']",2,2.3804811001755297,None,,,,,,,,,,,,,,,,,,,,,,,,,,,,,,,,,,,,,,,,,,,,,,,,,,,,,,,,,,,,,,,,,3,2023-11-29_11h34.39.758,watkins1,2023.2.3,99.71342366701576,29,2023-11-29 11h34.46.633780 +0000,
,,,,,,,29,0,29,0,,,,,,,,,,,,,,,,,245.73716400004923,,,,,,,,,,245.7281432999298,246.21915980009362,,,2,2.935891300207004,,,,,,,,,,,,,,,,,,,,,246.21917010005563,252.22407860006206,Rucksack,schmutzig,"['Rucksack', 'schmutzig']",restudy,3,"['Buch', 'Lampe', 'Würfel', 'Schlüssel', 'Eimer', 'Geige', 'Socke', 'Löffel', 'Blume', 'Kerze', 'Ring', 'Hut', 'Trommel', 'Telefon', 'Fahrrad', 'Schere', 'Tasse', 'Kamera', 'Uhr', 'Flasche', 'Kette', 'Bürste', 'Jacke', 'Vase', 'Tasche', 'Kiste', 'Stift', 'Hammer', 'Brille', 'Rucksack']","['groß', 'hübsch', 'nachhaltig', 'breit', 'rustikal', 'hässlich', 'sauber', 'dunkel', 'kaputt', 'elegant', 'flach', 'strahlend', 'bunt', 'winzig', 'zart', 'biegsam', 'glänzend', 'schwer', 'praktisch', 'blass', 'neu', 'sportlich', 'gepunktet', 'flauschig', 'durchsichtig', 'dick', 'schlicht', 'hohl', 'lustig', 'schmutzig']",2,2.935891300207004,None,,,,,,,,,,,,,,,,,,,,,,,,,,,,,,,,,,,,,,,,,,,,,,,,,,,,,,,,,,,,,,,,,3,2023-11-29_11h34.39.758,watkins1,2023.2.3,99.71342366701576,29,2023-11-29 11h34.46.633780 +0000,
,,,,,,,,,,,0,0,0,0,,,,,,,,,,,,,252.23350069997832,,,,,,,,,,252.22492619999684,252.7156360000372,,,[],[],,,,,,,,,,,nachhaltig,None,None,,,,,,,,,,Würfel,nachhaltig,"['Würfel', 'nachhaltig']",test_adj,3,,,,,,252.2248498001136,252.224898400018,"['Würfel', 'Vase', 'Jacke', 'Kerze', 'Lampe', 'Kiste', 'Uhr', 'Kette', 'Stift', 'Tasche', 'Eimer', 'Schere', 'Tasse', 'Schlüssel', 'Ring', 'Hut', 'Flasche', 'Rucksack', 'Blume', 'Telefon', 'Hammer', 'Löffel', 'Bürste', 'Buch', 'Trommel', 'Brille', 'Socke', 'Geige', 'Fahrrad', 'Kamera']",252.7156466001179,252.71852040011436,None,252.71870249998756,252.72132840007544,None,252.7215356999077,252.72418550006114,None,252.72434359998442,0,258.7300245000515,258.7300386999268,258.73144709994085,,,,,,,,,,,,,,,,,,,,,,,,,,,,,,,,,,,,,,,,,,,,,,,,3,2023-11-29_11h34.39.758,watkins1,2023.2.3,99.71342366701576,29,2023-11-29 11h34.46.633780 +0000,
,,,,,,,,,,,1,0,1,0,,,,,,,,,,,,,258.7398322999943,,,,,,,,,,258.7317353999242,259.22202310012653,,,[],[],,,,,,,,,,,flauschig,None,None,,,,,,,,,,Vase,flauschig,"['Vase', 'flauschig']",test_adj,3,,,,,,258.7316676999908,258.73170639993623,"['Würfel', 'Vase', 'Jacke', 'Kerze', 'Lampe', 'Kiste', 'Uhr', 'Kette', 'Stift', 'Tasche', 'Eimer', 'Schere', 'Tasse', 'Schlüssel', 'Ring', 'Hut', 'Flasche', 'Rucksack', 'Blume', 'Telefon', 'Hammer', 'Löffel', 'Bürste', 'Buch', 'Trommel', 'Brille', 'Socke', 'Geige', 'Fahrrad', 'Kamera']",259.222033200087,259.2246878000442,None,259.22481289994903,259.22726790001616,None,259.22737789992243,259.2298360001296,None,259.2299460999202,0,265.2345130001195,265.23452699999325,265.23589179990813,,,,,,,,,,,,,,,,,,,,,,,,,,,,,,,,,,,,,,,,,,,,,,,,3,2023-11-29_11h34.39.758,watkins1,2023.2.3,99.71342366701576,29,2023-11-29 11h34.46.633780 +0000,
,,,,,,,,,,,2,0,2,0,,,,,,,,,,,,,265.2442767000757,,,,,,,,,,265.236184499925,265.72646900010295,,,[],[],,,,,,,,,,,,None,None,,,,,,,,,,Jacke,gepunktet,"['Jacke', 'gepunktet']",restudy,3,,,,,,265.23611579998396,265.23615569993854,"['Würfel', 'Vase', 'Jacke', 'Kerze', 'Lampe', 'Kiste', 'Uhr', 'Kette', 'Stift', 'Tasche', 'Eimer', 'Schere', 'Tasse', 'Schlüssel', 'Ring', 'Hut', 'Flasche', 'Rucksack', 'Blume', 'Telefon', 'Hammer', 'Löffel', 'Bürste', 'Buch', 'Trommel', 'Brille', 'Socke', 'Geige', 'Fahrrad', 'Kamera']",265.7264793999493,265.7292158000637,None,265.7293388999533,271.7357825001236,2,271.7361506000161,271.738985999953,None,271.7390974999871,,271.7405539001338,271.74056600010954,271.7417959999293,3.033223700011149,None,,,,,,,,,,,,,,,,,,,,,,,,,,,,,,,,,,,,,,,,,,,,,,3,2023-11-29_11h34.39.758,watkins1,2023.2.3,99.71342366701576,29,2023-11-29 11h34.46.633780 +0000,
,,,,,,,,,,,3,0,3,0,,,,,,,,,,,,,271.74531070003286,,,,,,,,,,271.7420771000907,272.23751950007863,,,[],[],,,,,,,,,,,elegant,None,None,,,,,,,,,,Kerze,elegant,"['Kerze', 'elegant']",test_adj,3,,,,,,271.7420127999503,271.7420501001179,"['Würfel', 'Vase', 'Jacke', 'Kerze', 'Lampe', 'Kiste', 'Uhr', 'Kette', 'Stift', 'Tasche', 'Eimer', 'Schere', 'Tasse', 'Schlüssel', 'Ring', 'Hut', 'Flasche', 'Rucksack', 'Blume', 'Telefon', 'Hammer', 'Löffel', 'Bürste', 'Buch', 'Trommel', 'Brille', 'Socke', 'Geige', 'Fahrrad', 'Kamera']",272.23753049992956,272.24028680007905,None,272.2404120999854,272.2418257999234,None,272.2419350000564,272.243349700002,None,272.2434579001274,0,278.2455025999807,278.24551669997163,278.2468286000658,,,,,,,,,,,,,,,,,,,,,,,,,,,,,,,,,,,,,,,,,,,,,,,,3,2023-11-29_11h34.39.758,watkins1,2023.2.3,99.71342366701576,29,2023-11-29 11h34.46.633780 +0000,
,,,,,,,,,,,4,0,4,0,,,,,,,,,,,,,278.255410999991,,,,,,,,,,278.2471161999274,278.73723530001007,,,[],[],,,,,,,,,,,,None,None,,,,,,,,,,Lampe,hübsch,"['Lampe', 'hübsch']",restudy,3,,,,,,278.247048499994,278.24708739994094,"['Würfel', 'Vase', 'Jacke', 'Kerze', 'Lampe', 'Kiste', 'Uhr', 'Kette', 'Stift', 'Tasche', 'Eimer', 'Schere', 'Tasse', 'Schlüssel', 'Ring', 'Hut', 'Flasche', 'Rucksack', 'Blume', 'Telefon', 'Hammer', 'Löffel', 'Bürste', 'Buch', 'Trommel', 'Brille', 'Socke', 'Geige', 'Fahrrad', 'Kamera']",278.7372467000969,278.73995999991894,None,278.74008450005203,284.74535370012745,1,284.745654999977,284.74836029997095,None,284.74847270012833,,284.7499516000971,284.7499637999572,284.7511330000125,2.839032599935308,None,,,,,,,,,,,,,,,,,,,,,,,,,,,,,,,,,,,,,,,,,,,,,,3,2023-11-29_11h34.39.758,watkins1,2023.2.3,99.71342366701576,29,2023-11-29 11h34.46.633780 +0000,
,,,,,,,,,,,5,0,5,0,,,,,,,,,,,,,284.7548650999088,,,,,,,,,,284.7514164999593,285.24696599994786,,,[],[],,,,,,,,,,,,None,None,,,,,,,,,,Kiste,dick,"['Kiste', 'dick']",restudy,3,,,,,,284.7513516000472,284.751389299985,"['Würfel', 'Vase', 'Jacke', 'Kerze', 'Lampe', 'Kiste', 'Uhr', 'Kette', 'Stift', 'Tasche', 'Eimer', 'Schere', 'Tasse', 'Schlüssel', 'Ring', 'Hut', 'Flasche', 'Rucksack', 'Blume', 'Telefon', 'Hammer', 'Löffel', 'Bürste', 'Buch', 'Trommel', 'Brille', 'Socke', 'Geige', 'Fahrrad', 'Kamera']",285.246976000024,285.24963889992796,None,285.24975980003364,291.255091200117,2,291.25539120007306,291.2579258000478,None,291.25803770008497,,291.25919790007174,291.25920980004594,291.2602550999727,1.5056724001187831,None,,,,,,,,,,,,,,,,,,,,,,,,,,,,,,,,,,,,,,,,,,,,,,3,2023-11-29_11h34.39.758,watkins1,2023.2.3,99.71342366701576,29,2023-11-29 11h34.46.633780 +0000,
,,,,,,,,,,,6,0,6,0,,,,,,,,,,,,,291.2645300999284,,,,,,,,,,291.26053879992105,291.7566335001029,,,[],[],,,,,,,,,,,,None,None,,,,,,,,,,Uhr,praktisch,"['Uhr', 'praktisch']",restudy,3,,,,,,291.260474300012,291.26051170006394,"['Würfel', 'Vase', 'Jacke', 'Kerze', 'Lampe', 'Kiste', 'Uhr', 'Kette', 'Stift', 'Tasche', 'Eimer', 'Schere', 'Tasse', 'Schlüssel', 'Ring', 'Hut', 'Flasche', 'Rucksack', 'Blume', 'Telefon', 'Hammer', 'Löffel', 'Bürste', 'Buch', 'Trommel', 'Brille', 'Socke', 'Geige', 'Fahrrad', 'Kamera']",291.756644600071,291.7590449999552,None,291.75917039997876,297.7686425000429,3,297.76895419997163,297.7715551999863,None,297.77167030004784,,297.77269380004145,297.7727058001328,297.7739548000973,1.9640512000769377,None,,,,,,,,,,,,,,,,,,,,,,,,,,,,,,,,,,,,,,,,,,,,,,3,2023-11-29_11h34.39.758,watkins1,2023.2.3,99.71342366701576,29,2023-11-29 11h34.46.633780 +0000,
,,,,,,,,,,,7,0,7,0,,,,,,,,,,,,,297.77807549992576,,,,,,,,,,297.77424099994823,298.2701648999937,,,[],[],,,,,,,,,,,neu,None,None,,,,,,,,,,Kette,neu,"['Kette', 'neu']",test_adj,3,,,,,,297.77417470002547,297.7742135000881,"['Würfel', 'Vase', 'Jacke', 'Kerze', 'Lampe', 'Kiste', 'Uhr', 'Kette', 'Stift', 'Tasche', 'Eimer', 'Schere', 'Tasse', 'Schlüssel', 'Ring', 'Hut', 'Flasche', 'Rucksack', 'Blume', 'Telefon', 'Hammer', 'Löffel', 'Bürste', 'Buch', 'Trommel', 'Brille', 'Socke', 'Geige', 'Fahrrad', 'Kamera']",298.27017490006983,298.2729032000061,None,298.27302680001594,298.2744484001305,None,298.2745576000307,298.2761306001339,None,298.2762396999169,0,304.2793988001067,304.27941290009767,304.280560299987,,,,,,,,,,,,,,,,,,,,,,,,,,,,,,,,,,,,,,,,,,,,,,,,3,2023-11-29_11h34.39.758,watkins1,2023.2.3,99.71342366701576,29,2023-11-29 11h34.46.633780 +0000,
,,,,,,,,,,,8,0,8,0,,,,,,,,,,,,,304.28920600004494,,,,,,,,,,304.2808463999536,304.7712562000379,,,[],[],,,,,,,,,,,,None,None,,,,,,,,,,Stift,schlicht,"['Stift', 'schlicht']",restudy,3,,,,,,304.2807795999106,304.2808175999671,"['Würfel', 'Vase', 'Jacke', 'Kerze', 'Lampe', 'Kiste', 'Uhr', 'Kette', 'Stift', 'Tasche', 'Eimer', 'Schere', 'Tasse', 'Schlüssel', 'Ring', 'Hut', 'Flasche', 'Rucksack', 'Blume', 'Telefon', 'Hammer', 'Löffel', 'Bürste', 'Buch', 'Trommel', 'Brille', 'Socke', 'Geige', 'Fahrrad', 'Kamera']",304.7712664999999,304.77377289999276,None,304.77389529999346,310.7813297000248,3,310.7816254000645,310.78440070012584,None,310.7845121000428,,310.785980100045,310.7859920999035,310.7871936999727,1.2534529999829829,None,,,,,,,,,,,,,,,,,,,,,,,,,,,,,,,,,,,,,,,,,,,,,,3,2023-11-29_11h34.39.758,watkins1,2023.2.3,99.71342366701576,29,2023-11-29 11h34.46.633780 +0000,
,,,,,,,,,,,9,0,9,0,,,,,,,,,,,,,310.7908558999188,,,,,,,,,,310.7874781000428,311.28286719997413,,,[],[],,,,,,,,,,,,None,None,,,,,,,,,,Tasche,durchsichtig,"['Tasche', 'durchsichtig']",restudy,3,,,,,,310.78741330001503,310.7874511999544,"['Würfel', 'Vase', 'Jacke', 'Kerze', 'Lampe', 'Kiste', 'Uhr', 'Kette', 'Stift', 'Tasche', 'Eimer', 'Schere', 'Tasse', 'Schlüssel', 'Ring', 'Hut', 'Flasche', 'Rucksack', 'Blume', 'Telefon', 'Hammer', 'Löffel', 'Bürste', 'Buch', 'Trommel', 'Brille', 'Socke', 'Geige', 'Fahrrad', 'Kamera']",311.2828776000533,311.285632400075,None,311.2857566999737,317.29444490000606,1,317.2947408000473,317.297625400126,None,317.2977477000095,,317.2989340000786,317.2989461000543,317.30024480004795,1.5334710001479834,None,,,,,,,,,,,,,,,,,,,,,,,,,,,,,,,,,,,,,,,,,,,,,,3,2023-11-29_11h34.39.758,watkins1,2023.2.3,99.71342366701576,29,2023-11-29 11h34.46.633780 +0000,
,,,,,,,,,,,10,0,10,0,,,,,,,,,,,,,317.30382789997384,,,,,,,,,,317.30052889999934,317.79603269998915,,,[],[],,,,,,,,,,,,None,None,,,,,,,,,,Eimer,rustikal,"['Eimer', 'rustikal']",restudy,3,,,,,,317.3004630000796,317.30050150002353,"['Würfel', 'Vase', 'Jacke', 'Kerze', 'Lampe', 'Kiste', 'Uhr', 'Kette', 'Stift', 'Tasche', 'Eimer', 'Schere', 'Tasse', 'Schlüssel', 'Ring', 'Hut', 'Flasche', 'Rucksack', 'Blume', 'Telefon', 'Hammer', 'Löffel', 'Bürste', 'Buch', 'Trommel', 'Brille', 'Socke', 'Geige', 'Fahrrad', 'Kamera']",317.79604359995574,317.7988450000994,None,317.7989678999875,323.8083999999799,2,323.80870330007747,323.8115352001041,None,323.8116522000637,,323.8128333000932,323.81284580007195,323.8140706999693,1.3883153998758644,None,,,,,,,,,,,,,,,,,,,,,,,,,,,,,,,,,,,,,,,,,,,,,,3,2023-11-29_11h34.39.758,watkins1,2023.2.3,99.71342366701576,29,2023-11-29 11h34.46.633780 +0000,
,,,,,,,,,,,11,0,11,0,,,,,,,,,,,,,323.81778179993853,,,,,,,,,,323.8143591999542,324.31001299992204,,,[],[],,,,,,,,,,,biegsam,None,None,,,,,,,,,,Schere,biegsam,"['Schere', 'biegsam']",test_adj,3,,,,,,323.8142910001334,323.8143311999738,"['Würfel', 'Vase', 'Jacke', 'Kerze', 'Lampe', 'Kiste', 'Uhr', 'Kette', 'Stift', 'Tasche', 'Eimer', 'Schere', 'Tasse', 'Schlüssel', 'Ring', 'Hut', 'Flasche', 'Rucksack', 'Blume', 'Telefon', 'Hammer', 'Löffel', 'Bürste', 'Buch', 'Trommel', 'Brille', 'Socke', 'Geige', 'Fahrrad', 'Kamera']",324.3100238000043,324.3127739999909,None,324.3128977001179,324.3143539999146,None,324.3144642000552,324.3158958000131,None,324.316005300032,0,330.3185819000937,330.3185962000862,330.3199370999355,,,,,,,,,,,,,,,,,,,,,,,,,,,,,,,,,,,,,,,,,,,,,,,,3,2023-11-29_11h34.39.758,watkins1,2023.2.3,99.71342366701576,29,2023-11-29 11h34.46.633780 +0000,
,,,,,,,,,,,12,0,12,0,,,,,,,,,,,,,330.32834380003624,,,,,,,,,,330.32022979995236,330.8107855000999,,,[],[],,,,,,,,,,,,None,None,,,,,,,,,,Tasse,glänzend,"['Tasse', 'glänzend']",restudy,3,,,,,,330.32016210001893,330.3202009999659,"['Würfel', 'Vase', 'Jacke', 'Kerze', 'Lampe', 'Kiste', 'Uhr', 'Kette', 'Stift', 'Tasche', 'Eimer', 'Schere', 'Tasse', 'Schlüssel', 'Ring', 'Hut', 'Flasche', 'Rucksack', 'Blume', 'Telefon', 'Hammer', 'Löffel', 'Bürste', 'Buch', 'Trommel', 'Brille', 'Socke', 'Geige', 'Fahrrad', 'Kamera']",330.81079669995233,330.8135146999266,None,330.81364240008406,336.8207338000648,2,336.82103110011667,336.82373009994626,None,336.82384190009907,,336.8252948001027,336.82530679996125,336.8265088000335,1.485536599997431,None,,,,,,,,,,,,,,,,,,,,,,,,,,,,,,,,,,,,,,,,,,,,,,3,2023-11-29_11h34.39.758,watkins1,2023.2.3,99.71342366701576,29,2023-11-29 11h34.46.633780 +0000,
,,,,,,,,,,,13,0,13,0,,,,,,,,,,,,,336.8301568001043,,,,,,,,,,336.8267944001127,337.3222600999288,,,[],[],,,,,,,,,,,,None,None,,,,,,,,,,Schlüssel,breit,"['Schlüssel', 'breit']",restudy,3,,,,,,336.8267290000804,336.8267671999056,"['Würfel', 'Vase', 'Jacke', 'Kerze', 'Lampe', 'Kiste', 'Uhr', 'Kette', 'Stift', 'Tasche', 'Eimer', 'Schere', 'Tasse', 'Schlüssel', 'Ring', 'Hut', 'Flasche', 'Rucksack', 'Blume', 'Telefon', 'Hammer', 'Löffel', 'Bürste', 'Buch', 'Trommel', 'Brille', 'Socke', 'Geige', 'Fahrrad', 'Kamera']",337.322270500008,337.3250343000982,None,337.3251549999695,343.3290027999319,1,343.32930470001884,343.3320579000283,None,343.33217369997874,,343.33342429995537,343.33343599992804,343.33459149999544,1.6461118999868631,None,,,,,,,,,,,,,,,,,,,,,,,,,,,,,,,,,,,,,,,,,,,,,,3,2023-11-29_11h34.39.758,watkins1,2023.2.3,99.71342366701576,29,2023-11-29 11h34.46.633780 +0000,
,,,,,,,,,,,14,0,14,0,,,,,,,,,,,,,343.33839350007474,,,,,,,,,,343.33487610006705,343.8305623999331,,,[],[],,,,,,,,,,,flach,None,None,,,,,,,,,,Ring,flach,"['Ring', 'flach']",test_adj,3,,,,,,343.3348105000332,343.33484890009277,"['Würfel', 'Vase', 'Jacke', 'Kerze', 'Lampe', 'Kiste', 'Uhr', 'Kette', 'Stift', 'Tasche', 'Eimer', 'Schere', 'Tasse', 'Schlüssel', 'Ring', 'Hut', 'Flasche', 'Rucksack', 'Blume', 'Telefon', 'Hammer', 'Löffel', 'Bürste', 'Buch', 'Trommel', 'Brille', 'Socke', 'Geige', 'Fahrrad', 'Kamera']",343.8305736000184,343.83314880006947,None,343.83327589998953,343.83459169999696,None,343.8347006000113,343.8360137999989,None,343.8361220001243,0,349.83839599997737,349.8384102000855,349.8396868999116,,,,,,,,,,,,,,,,,,,,,,,,,,,,,,,,,,,,,,,,,,,,,,,,3,2023-11-29_11h34.39.758,watkins1,2023.2.3,99.71342366701576,29,2023-11-29 11h34.46.633780 +0000,
,,,,,,,,,,,15,0,15,0,,,,,,,,,,,,,349.8481976999901,,,,,,,,,,349.83997890003957,350.3302762999665,,,[],[],,,,,,,,,,,,None,None,,,,,,,,,,Hut,strahlend,"['Hut', 'strahlend']",restudy,3,,,,,,349.8399104999844,349.83994950004853,"['Würfel', 'Vase', 'Jacke', 'Kerze', 'Lampe', 'Kiste', 'Uhr', 'Kette', 'Stift', 'Tasche', 'Eimer', 'Schere', 'Tasse', 'Schlüssel', 'Ring', 'Hut', 'Flasche', 'Rucksack', 'Blume', 'Telefon', 'Hammer', 'Löffel', 'Bürste', 'Buch', 'Trommel', 'Brille', 'Socke', 'Geige', 'Fahrrad', 'Kamera']",350.330286399927,350.33279210003093,None,350.33291490003467,356.34093980002217,1,356.3412347000558,356.3438687999733,None,356.3439808001276,,356.34531249990687,356.3453246001154,356.3465601000935,1.238389200065285,None,,,,,,,,,,,,,,,,,,,,,,,,,,,,,,,,,,,,,,,,,,,,,,3,2023-11-29_11h34.39.758,watkins1,2023.2.3,99.71342366701576,29,2023-11-29 11h34.46.633780 +0000,
,,,,,,,,,,,16,0,16,0,,,,,,,,,,,,,356.3503414001316,,,,,,,,,,356.3468416999094,356.84247769997455,,,[],[],,,,,,,,,,,blass,None,None,,,,,,,,,,Flasche,blass,"['Flasche', 'blass']",test_adj,3,,,,,,356.34677699999884,356.3468148999382,"['Würfel', 'Vase', 'Jacke', 'Kerze', 'Lampe', 'Kiste', 'Uhr', 'Kette', 'Stift', 'Tasche', 'Eimer', 'Schere', 'Tasse', 'Schlüssel', 'Ring', 'Hut', 'Flasche', 'Rucksack', 'Blume', 'Telefon', 'Hammer', 'Löffel', 'Bürste', 'Buch', 'Trommel', 'Brille', 'Socke', 'Geige', 'Fahrrad', 'Kamera']",356.8424879000522,356.84531589993276,None,356.8454394999426,356.84691100008786,None,356.8470221001189,356.8484897001181,None,356.8485991000198,0,362.85256629996,362.8525811000727,362.85386859998107,,,,,,,,,,,,,,,,,,,,,,,,,,,,,,,,,,,,,,,,,,,,,,,,3,2023-11-29_11h34.39.758,watkins1,2023.2.3,99.71342366701576,29,2023-11-29 11h34.46.633780 +0000,
,,,,,,,,,,,17,0,17,0,,,,,,,,,,,,,362.8623564001173,,,,,,,,,,362.85415740008466,363.3444135999307,,,[],[],,,,,,,,,,,,None,None,,,,,,,,,,Rucksack,schmutzig,"['Rucksack', 'schmutzig']",restudy,3,,,,,,362.8540902000386,362.85412820009515,"['Würfel', 'Vase', 'Jacke', 'Kerze', 'Lampe', 'Kiste', 'Uhr', 'Kette', 'Stift', 'Tasche', 'Eimer', 'Schere', 'Tasse', 'Schlüssel', 'Ring', 'Hut', 'Flasche', 'Rucksack', 'Blume', 'Telefon', 'Hammer', 'Löffel', 'Bürste', 'Buch', 'Trommel', 'Brille', 'Socke', 'Geige', 'Fahrrad', 'Kamera']",363.34442440001294,363.34716970007867,None,363.34729630011134,369.3515214000363,2,369.3518173999619,369.3546035999898,None,369.35471650003456,,369.35623029991984,369.3562424001284,369.3574743999634,1.335561400046572,None,,,,,,,,,,,,,,,,,,,,,,,,,,,,,,,,,,,,,,,,,,,,,,3,2023-11-29_11h34.39.758,watkins1,2023.2.3,99.71342366701576,29,2023-11-29 11h34.46.633780 +0000,
,,,,,,,,,,,18,0,18,0,,,,,,,,,,,,,369.3609559999313,,,,,,,,,,369.3577549001202,369.853143400047,,,[],[],,,,,,,,,,,,None,None,,,,,,,,,,Blume,kaputt,"['Blume', 'kaputt']",test_adj,3,,,,,,369.35769010009244,369.35772749991156,"['Würfel', 'Vase', 'Jacke', 'Kerze', 'Lampe', 'Kiste', 'Uhr', 'Kette', 'Stift', 'Tasche', 'Eimer', 'Schere', 'Tasse', 'Schlüssel', 'Ring', 'Hut', 'Flasche', 'Rucksack', 'Blume', 'Telefon', 'Hammer', 'Löffel', 'Bürste', 'Buch', 'Trommel', 'Brille', 'Socke', 'Geige', 'Fahrrad', 'Kamera']",369.8531539000105,369.85590690001845,None,369.8560333000496,369.85743750003166,None,369.85754669993185,369.8589415999595,None,369.8590490000788,0,375.8611884000711,375.8612025999464,375.8626063000411,,,,,,,,,,,,,,,,,,,,,,,,,,,,,,,,,,,,,,,,,,,,,,,,3,2023-11-29_11h34.39.758,watkins1,2023.2.3,99.71342366701576,29,2023-11-29 11h34.46.633780 +0000,
,,,,,,,,,,,19,0,19,0,,,,,,,,,,,,,375.8710970999673,,,,,,,,,,375.8628929001279,376.35312690003775,,,[],[],,,,,,,,,,,win,None,None,,,,,,,,,,Telefon,winzig,"['Telefon', 'winzig']",test_adj,3,,,,,,375.86282710009255,375.86286429991014,"['Würfel', 'Vase', 'Jacke', 'Kerze', 'Lampe', 'Kiste', 'Uhr', 'Kette', 'Stift', 'Tasche', 'Eimer', 'Schere', 'Tasse', 'Schlüssel', 'Ring', 'Hut', 'Flasche', 'Rucksack', 'Blume', 'Telefon', 'Hammer', 'Löffel', 'Bürste', 'Buch', 'Trommel', 'Brille', 'Socke', 'Geige', 'Fahrrad', 'Kamera']",376.3531371001154,376.35583129990846,None,376.35596080007963,376.35852209990844,None,376.3586341000628,376.3611427000724,None,376.3612506000791,0,382.3660877000075,382.3661029001232,382.3673745999113,,,,,,,,,,,,,,,,,,,,,,,,,,,,,,,,,,,,,,,,,,,,,,,,3,2023-11-29_11h34.39.758,watkins1,2023.2.3,99.71342366701576,29,2023-11-29 11h34.46.633780 +0000,
,,,,,,,,,,,20,0,20,0,,,,,,,,,,,,,382.3758887001313,,,,,,,,,,382.367664600024,382.8580142001156,,,[],[],,,,,,,,,,,Loch,None,None,,,,,,,,,,Hammer,hohl,"['Hammer', 'hohl']",test_adj,3,,,,,,382.36759770009667,382.36763549991883,"['Würfel', 'Vase', 'Jacke', 'Kerze', 'Lampe', 'Kiste', 'Uhr', 'Kette', 'Stift', 'Tasche', 'Eimer', 'Schere', 'Tasse', 'Schlüssel', 'Ring', 'Hut', 'Flasche', 'Rucksack', 'Blume', 'Telefon', 'Hammer', 'Löffel', 'Bürste', 'Buch', 'Trommel', 'Brille', 'Socke', 'Geige', 'Fahrrad', 'Kamera']",382.8580245000776,382.86071870010346,None,382.86084450013004,382.8633630000986,None,382.863472700119,382.865968799917,None,382.866079099942,0,388.8708695000969,388.8708834000863,388.8720215000212,,,,,,,,,,,,,,,,,,,,,,,,,,,,,,,,,,,,,,,,,,,,,,,,3,2023-11-29_11h34.39.758,watkins1,2023.2.3,99.71342366701576,29,2023-11-29 11h34.46.633780 +0000,
,,,,,,,,,,,21,0,21,0,,,,,,,,,,,,,388.8807803001255,,,,,,,,,,388.87230550008826,389.36285530007444,,,[],[],,,,,,,,,,,,None,None,,,,,,,,,,Löffel,dunkel,"['Löffel', 'dunkel']",test_adj,3,,,,,,388.8722383999266,388.8722765999846,"['Würfel', 'Vase', 'Jacke', 'Kerze', 'Lampe', 'Kiste', 'Uhr', 'Kette', 'Stift', 'Tasche', 'Eimer', 'Schere', 'Tasse', 'Schlüssel', 'Ring', 'Hut', 'Flasche', 'Rucksack', 'Blume', 'Telefon', 'Hammer', 'Löffel', 'Bürste', 'Buch', 'Trommel', 'Brille', 'Socke', 'Geige', 'Fahrrad', 'Kamera']",389.3628662999254,389.3654177999124,None,389.3655431000516,389.36791700008325,None,389.3680273001082,389.3704083999619,None,389.37051640008576,0,395.37569170002826,395.37570669990964,395.3770397999324,,,,,,,,,,,,,,,,,,,,,,,,,,,,,,,,,,,,,,,,,,,,,,,,3,2023-11-29_11h34.39.758,watkins1,2023.2.3,99.71342366701576,29,2023-11-29 11h34.46.633780 +0000,
,,,,,,,,,,,22,0,22,0,,,,,,,,,,,,,395.3855815001298,,,,,,,,,,395.37733260006644,395.8675603000447,,,[],[],,,,,,,,,,,sportlich,None,None,,,,,,,,,,Bürste,sportlich,"['Bürste', 'sportlich']",test_adj,3,,,,,,395.37726170010865,395.3773028999567,"['Würfel', 'Vase', 'Jacke', 'Kerze', 'Lampe', 'Kiste', 'Uhr', 'Kette', 'Stift', 'Tasche', 'Eimer', 'Schere', 'Tasse', 'Schlüssel', 'Ring', 'Hut', 'Flasche', 'Rucksack', 'Blume', 'Telefon', 'Hammer', 'Löffel', 'Bürste', 'Buch', 'Trommel', 'Brille', 'Socke', 'Geige', 'Fahrrad', 'Kamera']",395.8675710000098,395.8702640000265,None,395.87038940005004,395.8730681000743,None,395.87317820009775,395.87569919996895,None,395.8758078000974,0,401.8808323999401,401.8808478000574,401.8822121999692,,,,,,,,,,,,,,,,,,,,,,,,,,,,,,,,,,,,,,,,,,,,,,,,3,2023-11-29_11h34.39.758,watkins1,2023.2.3,99.71342366701576,29,2023-11-29 11h34.46.633780 +0000,
,,,,,,,,,,,23,0,23,0,,,,,,,,,,,,,401.89073590002954,,,,,,,,,,401.88249849993736,402.3727055999916,,,[],[],,,,,,,,,,,,None,None,,,,,,,,,,Buch,groß,"['Buch', 'groß']",restudy,3,,,,,,401.88242950011045,401.8824698999524,"['Würfel', 'Vase', 'Jacke', 'Kerze', 'Lampe', 'Kiste', 'Uhr', 'Kette', 'Stift', 'Tasche', 'Eimer', 'Schere', 'Tasse', 'Schlüssel', 'Ring', 'Hut', 'Flasche', 'Rucksack', 'Blume', 'Telefon', 'Hammer', 'Löffel', 'Bürste', 'Buch', 'Trommel', 'Brille', 'Socke', 'Geige', 'Fahrrad', 'Kamera']",402.3727156999521,402.3754674999509,None,402.3755922000855,408.37747490010224,1,408.37777179991826,408.38026440003887,None,408.38037570007145,,408.38171979994513,408.3817320999224,408.3827685001306,1.5319550998974591,None,,,,,,,,,,,,,,,,,,,,,,,,,,,,,,,,,,,,,,,,,,,,,,3,2023-11-29_11h34.39.758,watkins1,2023.2.3,99.71342366701576,29,2023-11-29 11h34.46.633780 +0000,
,,,,,,,,,,,24,0,24,0,,,,,,,,,,,,,408.3868807000108,,,,,,,,,,408.38305249996483,408.8789743001107,,,[],[],,,,,,,,,,,,None,None,,,,,,,,,,Trommel,bunt,"['Trommel', 'bunt']",restudy,3,,,,,,408.3829870999325,408.3830254999921,"['Würfel', 'Vase', 'Jacke', 'Kerze', 'Lampe', 'Kiste', 'Uhr', 'Kette', 'Stift', 'Tasche', 'Eimer', 'Schere', 'Tasse', 'Schlüssel', 'Ring', 'Hut', 'Flasche', 'Rucksack', 'Blume', 'Telefon', 'Hammer', 'Löffel', 'Bürste', 'Buch', 'Trommel', 'Brille', 'Socke', 'Geige', 'Fahrrad', 'Kamera']",408.8789850000758,408.88155760010704,None,408.88168020010926,414.88361030002125,1,414.8839042999316,414.886535000056,None,414.88664879999124,,414.88784070010297,414.8878526999615,414.88888290012255,1.04982479987666,None,,,,,,,,,,,,,,,,,,,,,,,,,,,,,,,,,,,,,,,,,,,,,,3,2023-11-29_11h34.39.758,watkins1,2023.2.3,99.71342366701576,29,2023-11-29 11h34.46.633780 +0000,
,,,,,,,,,,,25,0,25,0,,,,,,,,,,,,,414.8930242001079,,,,,,,,,,414.88916980009526,415.3850531000644,,,[],[],,,,,,,,,,,,None,None,,,,,,,,,,Brille,lustig,"['Brille', 'lustig']",test_adj,3,,,,,,414.8891018999275,414.8891428001225,"['Würfel', 'Vase', 'Jacke', 'Kerze', 'Lampe', 'Kiste', 'Uhr', 'Kette', 'Stift', 'Tasche', 'Eimer', 'Schere', 'Tasse', 'Schlüssel', 'Ring', 'Hut', 'Flasche', 'Rucksack', 'Blume', 'Telefon', 'Hammer', 'Löffel', 'Bürste', 'Buch', 'Trommel', 'Brille', 'Socke', 'Geige', 'Fahrrad', 'Kamera']",415.38506300002337,415.38758249999955,None,415.38770540012047,415.38913929997943,None,415.38924899999984,415.3906767000444,None,415.3907884999644,0,421.3930440999102,421.3930587999057,421.3943513999693,,,,,,,,,,,,,,,,,,,,,,,,,,,,,,,,,,,,,,,,,,,,,,,,3,2023-11-29_11h34.39.758,watkins1,2023.2.3,99.71342366701576,29,2023-11-29 11h34.46.633780 +0000,
,,,,,,,,,,,26,0,26,0,,,,,,,,,,,,,421.402850799961,,,,,,,,,,421.39463789993897,421.88496759999543,,,[],[],,,,,,,,,,,,None,None,,,,,,,,,,Socke,sauber,"['Socke', 'sauber']",restudy,3,,,,,,421.3945722999051,421.394609299954,"['Würfel', 'Vase', 'Jacke', 'Kerze', 'Lampe', 'Kiste', 'Uhr', 'Kette', 'Stift', 'Tasche', 'Eimer', 'Schere', 'Tasse', 'Schlüssel', 'Ring', 'Hut', 'Flasche', 'Rucksack', 'Blume', 'Telefon', 'Hammer', 'Löffel', 'Bürste', 'Buch', 'Trommel', 'Brille', 'Socke', 'Geige', 'Fahrrad', 'Kamera']",421.8849778000731,421.887672400102,None,421.88779830001295,427.89134600013494,1,427.8916426000651,427.8942730000708,None,427.8943841001019,,427.89552229992114,427.89553400012664,427.89669069997035,1.3233623998239636,None,,,,,,,,,,,,,,,,,,,,,,,,,,,,,,,,,,,,,,,,,,,,,,3,2023-11-29_11h34.39.758,watkins1,2023.2.3,99.71342366701576,29,2023-11-29 11h34.46.633780 +0000,
,,,,,,,,,,,27,0,27,0,,,,,,,,,,,,,427.90089090005495,,,,,,,,,,427.89697239990346,428.3929775999859,,,[],[],,,,,,,,,,,,None,None,,,,,,,,,,Geige,hässlich,"['Geige', 'hässlich']",restudy,3,,,,,,427.89690700010397,427.8969453999307,"['Würfel', 'Vase', 'Jacke', 'Kerze', 'Lampe', 'Kiste', 'Uhr', 'Kette', 'Stift', 'Tasche', 'Eimer', 'Schere', 'Tasse', 'Schlüssel', 'Ring', 'Hut', 'Flasche', 'Rucksack', 'Blume', 'Telefon', 'Hammer', 'Löffel', 'Bürste', 'Buch', 'Trommel', 'Brille', 'Socke', 'Geige', 'Fahrrad', 'Kamera']",428.3929880000651,428.39574009994976,None,428.39586180006154,434.40114860003814,1,434.40145880007185,434.40414120000787,None,434.4042537000496,,434.4054082001094,434.4054199999664,434.4066172000021,0.9754283998627216,None,,,,,,,,,,,,,,,,,,,,,,,,,,,,,,,,,,,,,,,,,,,,,,3,2023-11-29_11h34.39.758,watkins1,2023.2.3,99.71342366701576,29,2023-11-29 11h34.46.633780 +0000,
,,,,,,,,,,,28,0,28,0,,,,,,,,,,,,,434.4105493000243,,,,,,,,,,434.4069010000676,434.90276119997725,,,[],[],,,,,,,,,,,zart,None,None,,,,,,,,,,Fahrrad,zart,"['Fahrrad', 'zart']",test_adj,3,,,,,,434.40683529991657,434.40687340009026,"['Würfel', 'Vase', 'Jacke', 'Kerze', 'Lampe', 'Kiste', 'Uhr', 'Kette', 'Stift', 'Tasche', 'Eimer', 'Schere', 'Tasse', 'Schlüssel', 'Ring', 'Hut', 'Flasche', 'Rucksack', 'Blume', 'Telefon', 'Hammer', 'Löffel', 'Bürste', 'Buch', 'Trommel', 'Brille', 'Socke', 'Geige', 'Fahrrad', 'Kamera']",434.9027724999469,434.9055272999685,None,434.9056532001123,434.90710499999113,None,434.90722339996137,434.90868220012635,None,434.90879000001587,0,440.91144570009783,440.91146009997465,440.91263970010914,,,,,,,,,,,,,,,,,,,,,,,,,,,,,,,,,,,,,,,,,,,,,,,,3,2023-11-29_11h34.39.758,watkins1,2023.2.3,99.71342366701576,29,2023-11-29 11h34.46.633780 +0000,
,,,,,,,,,,,29,0,29,0,,,,,,,,,,,,,440.9213183999527,,,,,,,,,,440.9129331000149,441.40365380002186,,,[],[],,,,,,,,,,,schwer,None,None,,,,,,,,,,Kamera,schwer,"['Kamera', 'schwer']",test_adj,3,,,,,,440.9128626999445,440.9129029000178,"['Würfel', 'Vase', 'Jacke', 'Kerze', 'Lampe', 'Kiste', 'Uhr', 'Kette', 'Stift', 'Tasche', 'Eimer', 'Schere', 'Tasse', 'Schlüssel', 'Ring', 'Hut', 'Flasche', 'Rucksack', 'Blume', 'Telefon', 'Hammer', 'Löffel', 'Bürste', 'Buch', 'Trommel', 'Brille', 'Socke', 'Geige', 'Fahrrad', 'Kamera']",441.40366469998844,441.4062284999527,None,441.40635329997167,441.40875410009176,None,441.4088669999037,441.41140040010214,None,441.4115077999886,0,447.416811699979,447.4168257000856,447.41813730006106,,,,,,,,,,,,,,,,,,,,,,,,,,,,,,,,,,,,,,,,,,,,,,,,3,2023-11-29_11h34.39.758,watkins1,2023.2.3,99.71342366701576,29,2023-11-29 11h34.46.633780 +0000,
,,,,,,,,,,,,,,,,,,,,,,,,,,,,,,,,,,,,,,,,,,,,,,,,,,,,,,,,,,,,,,,,,,,,,3,,,,,,,,,,,,,,,,,,,,,,,,,,,,,,,,,,,,,,,,,,,,,,,,,,,,,,,,,,,,,,,,,,,,,,3,2023-11-29_11h34.39.758,watkins1,2023.2.3,99.71342366701576,29,2023-11-29 11h34.46.633780 +0000,
(4 : 2) + 4 = 6 ,Correct,button_correct,,,,,,,,,,,,,0,0,0,1,,,,,,,,,457.4498735999223,,,,,,,,456.4169797000941,457.4207786000334,,,,,['button_correct'],[3.5289741000160575],,,,,,,,,,,,,,,,,,,,,,,,,,distractorTask,3,,,,,,,,,,,,,,,,,,,,,,,,,457.43939330009744,457.4498735999223,460.9724028999917,[0.34629629629629627],[-0.38333333333333336],[1],[0],[0],[3.5289741000160575],['button_correct'],460.97307289997116,461.97620499995537,,,,,,,,,,,,,,,,,,,,,,,,,,,,,,,,,,3,2023-11-29_11h34.39.758,watkins1,2023.2.3,99.71342366701576,29,2023-11-29 11h34.46.633780 +0000,
(40 : 5) + 8 = 15 ,Incorrect,button_incorrect,,,,,,,,,,,,,0,1,1,7,,,,,,,,,461.9861846000422,,,,,,,,,,,,,,['button_incorrect'],[2.48734480002895],,,,,,,,,,,,,,,,,,,,,,,,,,distractorTask,3,,,,,,,,,,,,,,,,,,,,,,,,,461.97639829991385,461.9861846000422,464.4671132999938,[-0.36018518518518516],[-0.40370370370370373],[1],[0],[0],[2.48734480002895],['button_incorrect'],464.4674937000964,465.47070350009017,,,,,,,,,,,,,,,,,,,,,,,,,,,,,,,,,,3,2023-11-29_11h34.39.758,watkins1,2023.2.3,99.71342366701576,29,2023-11-29 11h34.46.633780 +0000,
(54 : 6) - 10 = 0 ,Incorrect,button_incorrect,,,,,,,,,,,,,0,2,2,5,,,,,,,,,465.48079639999196,,,,,,,,,,,,,,['button_incorrect'],[3.813855299958959],,,,,,,,,,,,,,,,,,,,,,,,,,distractorTask,3,,,,,,,,,,,,,,,,,,,,,,,,,465.4708962999284,465.48079639999196,469.28711650008336,[-0.29444444444444445],[-0.38333333333333336],[1],[0],[0],[3.813855299958959],['button_incorrect'],469.2874904999044,470.2908387000207,,,,,,,,,,,,,,,,,,,,,,,,,,,,,,,,,,3,2023-11-29_11h34.39.758,watkins1,2023.2.3,99.71342366701576,29,2023-11-29 11h34.46.633780 +0000,
(7 x 6) + 9 = 48 ,Incorrect,button_incorrect,,,,,,,,,,,,,0,3,3,9,,,,,,,,,470.3008179999888,,,,,,,,,,,,,,['button_incorrect'],[5.199608500115573],,,,,,,,,,,,,,,,,,,,,,,,,,distractorTask,3,,,,,,,,,,,,,,,,,,,,,,,,,470.2910452000797,470.3008179999888,475.4941360000521,[-0.3527777777777778],[-0.37777777777777777],[1],[0],[0],[5.199608500115573],['button_incorrect'],475.4945117000025,476.4972930001095,,,,,,,,,,,,,,,,,,,,,,,,,,,,,,,,,,3,2023-11-29_11h34.39.758,watkins1,2023.2.3,99.71342366701576,29,2023-11-29 11h34.46.633780 +0000,
(9 x 5) - 9 = 36 ,Correct,button_correct,,,,,,,,,,,,,0,4,4,4,,,,,,,,,476.50727810012177,,,,,,,,,,,,,,['button_correct'],[3.823789100162685],,,,,,,,,,,,,,,,,,,,,,,,,,distractorTask,3,,,,,,,,,,,,,,,,,,,,,,,,,476.4974819999188,476.50727810012177,480.32368410006166,[0.3925925925925926],[-0.3851851851851852],[1],[0],[0],[3.823789100162685],['button_correct'],480.3240680000745,481.32733010011725,,,,,,,,,,,,,,,,,,,,,,,,,,,,,,,,,,3,2023-11-29_11h34.39.758,watkins1,2023.2.3,99.71342366701576,29,2023-11-29 11h34.46.633780 +0000,
(28 : 7) - 3 = 1 ,Correct,button_correct,,,,,,,,,,,,,0,5,5,0,,,,,,,,,481.33731790003367,,,,,,,,,,,,,,['button_correct'],"[2.5597433000802994, 2.8913352000527084]",,,,,,,,,,,,,,,,,,,,,,,,,,distractorTask,3,,,,,,,,,,,,,,,,,,,,,,,,,481.3275236999616,481.33731790003367,484.2205576999113,"[0.4361111111111111, 0.412962962962963]","[-0.3888888888888889, -0.3888888888888889]","[1, 1]","[0, 0]","[0, 0]","[2.5597433000802994, 2.8913352000527084]",['button_correct'],484.22095449990593,485.22423769999295,,,,,,,,,,,,,,,,,,,,,,,,,,,,,,,,,,3,2023-11-29_11h34.39.758,watkins1,2023.2.3,99.71342366701576,29,2023-11-29 11h34.46.633780 +0000,
(2 x 5) + 3 = 13 ,Correct,button_correct,,,,,,,,,,,,,0,6,6,2,,,,,,,,,485.23421450005844,,,,,,,,,,,,,,['button_correct'],[1.7558892997913063],,,,,,,,,,,,,,,,,,,,,,,,,,distractorTask,3,,,,,,,,,,,,,,,,,,,,,,,,,485.2244297999423,485.23421450005844,486.9820187999867,[0.30925925925925923],[-0.375],[1],[0],[0],[1.7558892997913063],['button_correct'],486.9823950000573,487.98574459995143,,,,,,,,,,,,,,,,,,,,,,,,,,,,,,,,,,3,2023-11-29_11h34.39.758,watkins1,2023.2.3,99.71342366701576,29,2023-11-29 11h34.46.633780 +0000,
(6 x 3) + 10 = 27 ,Incorrect,button_incorrect,,,,,,,,,,,,,0,7,7,8,,,,,,,,,487.9957755000796,,,,,,,,,,,,,,['button_incorrect'],[2.2278380000498146],,,,,,,,,,,,,,,,,,,,,,,,,,distractorTask,3,,,,,,,,,,,,,,,,,,,,,,,,,487.9859346000012,487.9957755000796,490.2154956001323,[-0.3425925925925926],[-0.38425925925925924],[1],[0],[0],[2.2278380000498146],['button_incorrect'],490.2158703999594,491.21933180000633,,,,,,,,,,,,,,,,,,,,,,,,,,,,,,,,,,3,2023-11-29_11h34.39.758,watkins1,2023.2.3,99.71342366701576,29,2023-11-29 11h34.46.633780 +0000,
(25 : 5) + 5 = 9 ,Incorrect,button_incorrect,,,,,,,,,,,,,0,8,8,6,,,,,,,,,491.229329300113,,,,,,,,,,,,,,['button_incorrect'],[2.037099399836734],,,,,,,,,,,,,,,,,,,,,,,,,,distractorTask,3,,,,,,,,,,,,,,,,,,,,,,,,,491.2195214999374,491.229329300113,493.258304100018,[-0.34074074074074073],[-0.38333333333333336],[1],[0],[0],[2.037099399836734],['button_incorrect'],493.25868610013276,494.26193800009787,,,,,,,,,,,,,,,,,,,,,,,,,,,,,,,,,,3,2023-11-29_11h34.39.758,watkins1,2023.2.3,99.71342366701576,29,2023-11-29 11h34.46.633780 +0000,
(80 : 10) + 9 = 17 ,Correct,button_correct,,,,,,,,,,,,,0,9,9,3,,,,,,,,,494.27192050009035,,,,,,,,,,,,,,['button_correct'],[3.393098199972883],,,,,,,,,,,,,,,,,,,,,,,,,,distractorTask,3,,,,,,,,,,,,,,,,,,,,,,,,,494.262129599927,494.27192050009035,497.6570423000958,[0.38796296296296295],[-0.3990740740740741],[1],[0],[0],[3.393098199972883],['button_correct'],497.6574230999686,498.6600341000594,,,,,,,,,,,,,,,,,,,,,,,,,,,,,,,,,,3,2023-11-29_11h34.39.758,watkins1,2023.2.3,99.71342366701576,29,2023-11-29 11h34.46.633780 +0000,
,,,,,,,,,,,,,,,,,,,,,,,,,,,,,,,,,,,,,,,,,,,,,,,,,,,,,,,,,,,,,,,,,,,,,3,,,,,,,,,,,,,,,,,,,,,,,,,,,,,,,,,,,,,,,,,,,,,,,,,,,,,,,,,,,,,,,,,,,,,,3,2023-11-29_11h34.39.758,watkins1,2023.2.3,99.71342366701576,29,2023-11-29 11h34.46.633780 +0000,
,,,,,,,,,,,,,,,,,,,0,0,0,0,,,,,509.6339763000142,,,,,,,,,,,,,,Fahrrad,6.213914299849421,,,,,,,,,,,,2.3297602001111954,None,,,,,,,,,,,,,freeRecallSub,3,,,,,,,,,,,,,,,,,,,,,,,,,,,,,,,,,,,,,509.62530230008997,509.6339763000142,509.6339763000142,515.8505287999287,return,6.213914299849421,None,Fahrrad,[-0.007407407407407408],[0.062037037037037036],[1],[0],[0],[1.2741942000575364],[],,,,,,,,,,,,,,,,,,,3,2023-11-29_11h34.39.758,watkins1,2023.2.3,99.71342366701576,29,2023-11-29 11h34.46.633780 +0000,
,,,,,,,,,,,,,,,,,,,1,0,1,0,,,,,515.862972300034,,,,,,,,,,,,,,Flasche,2.3288696999661624,,,,,,,,,,,,0.474659499945119,None,,,,,,,,,,,,,freeRecallSub,3,,,,,,,,,,,,,,,,,,,,,,,,,,,,,,,,,,,,,515.8523208000697,515.862972300034,515.862972300034,518.1949281000998,return,2.3288696999661624,None,Flasche,[],[],[],[],[],[],[],,,,,,,,,,,,,,,,,,,3,2023-11-29_11h34.39.758,watkins1,2023.2.3,99.71342366701576,29,2023-11-29 11h34.46.633780 +0000,
,,,,,,,,,,,,,,,,,,,2,0,2,0,,,,,518.2057817999739,,,,,,,,,,,,,,Hammer,2.866246599936858,,,,,,,,,,,,0.28128320001997054,None,,,,,,,,,,,,,freeRecallSub,3,,,,,,,,,,,,,,,,,,,,,,,,,,,,,,,,,,,,,518.1961747999303,518.2057817999739,518.2057817999739,521.0780054000206,return,2.866246599936858,None,Hammer,[],[],[],[],[],[],[],,,,,,,,,,,,,,,,,,,3,2023-11-29_11h34.39.758,watkins1,2023.2.3,99.71342366701576,29,2023-11-29 11h34.46.633780 +0000,
,,,,,,,,,,,,,,,,,,,3,0,3,0,,,,,521.0888231999706,,,,,,,,,,,,,,Buch,8.351089000003412,,,,,,,,,,,,6.546995999990031,None,,,,,,,,,,,,,freeRecallSub,3,,,,,,,,,,,,,,,,,,,,,,,,,,,,,,,,,,,,,521.0792602000292,521.0888231999706,521.0888231999706,529.4437583000399,return,8.351089000003412,None,Buch,[],[],[],[],[],[],[],,,,,,,,,,,,,,,,,,,3,2023-11-29_11h34.39.758,watkins1,2023.2.3,99.71342366701576,29,2023-11-29 11h34.46.633780 +0000,
,,,,,,,,,,,,,,,,,,,4,0,4,0,,,,,529.4555079001002,,,,,,,,,,,,,,Schlüssel,4.5363380999770015,,,,,,,,,,,,0.2429778000805527,None,,,,,,,,,,,,,freeRecallSub,3,,,,,,,,,,,,,,,,,,,,,,,,,,,,,,,,,,,,,529.4449942999054,529.4555079001002,529.4555079001002,533.995959199965,return,4.5363380999770015,None,Schlüssel,[],[],[],[],[],[],[],,,,,,,,,,,,,,,,,,,3,2023-11-29_11h34.39.758,watkins1,2023.2.3,99.71342366701576,29,2023-11-29 11h34.46.633780 +0000,
,,,,,,,,,,,,,,,,,,,5,0,5,0,,,,,534.0077337999828,,,,,,,,,,,,,,Kamera,1.768099999986589,,,,,,,,,,,,0.30306360009126365,None,,,,,,,,,,,,,freeRecallSub,3,,,,,,,,,,,,,,,,,,,,,,,,,,,,,,,,,,,,,533.997231000103,534.0077337999828,534.0077337999828,535.7769363999832,return,1.768099999986589,None,Kamera,[],[],[],[],[],[],[],,,,,,,,,,,,,,,,,,,3,2023-11-29_11h34.39.758,watkins1,2023.2.3,99.71342366701576,29,2023-11-29 11h34.46.633780 +0000,
,,,,,,,,,,,,,,,,,,,6,0,6,0,,,,,535.7885759999044,,,,,,,,,,,,,,Vase,16.835274700075388,,,,,,,,,,,,15.648643300170079,None,,,,,,,,,,,,,freeRecallSub,3,,,,,,,,,,,,,,,,,,,,,,,,,,,,,,,,,,,,,535.7782004000619,535.7885759999044,535.7885759999044,552.6319019999355,return,16.835274700075388,None,Vase,[],[],[],[],[],[],[],,,,,,,,,,,,,,,,,,,3,2023-11-29_11h34.39.758,watkins1,2023.2.3,99.71342366701576,29,2023-11-29 11h34.46.633780 +0000,
,,,,,,,,,,,,,,,,,,,7,0,7,0,,,,,552.6437798000406,,,,,,,,,,,,,,Ring,52.8360264999792,,,,,,,,,,,,4.6410016000736505,10.173938499996439,,,,,,,,,,,,,freeRecallSub,3,,,,,,,,,,,,,,,,,,,,,,,,,,,,,,,,,,,,,552.633159799967,552.6437798000406,552.6437798000406,605.4828226000536,return,52.8360264999792,None,Ring,[],[],[],[],[],[],[],,,,,,,,,,,,,,,,,,,3,2023-11-29_11h34.39.758,watkins1,2023.2.3,99.71342366701576,29,2023-11-29 11h34.46.633780 +0000,
,,,,,,,,,,,,,,,,,,,8,0,8,0,,,,,605.4952457000036,,,,,,,,,,,,,,Kette,1.8564930998254567,,,,,,,,,,,,0.666097299894318,None,,,,,,,,,,,,,freeRecallSub,3,,,,,,,,,,,,,,,,,,,,,,,,,,,,,,,,,,,,,605.4841048999224,605.4952457000036,605.4952457000036,607.3553049000911,return,1.8564930998254567,None,Kette,[],[],[],[],[],[],[],,,,,,,,,,,,,,,,,,,3,2023-11-29_11h34.39.758,watkins1,2023.2.3,99.71342366701576,29,2023-11-29 11h34.46.633780 +0000,
,,,,,,,,,,,,,,,,,,,9,0,9,0,,,,,607.3675418999046,,,,,,,,,,,,,,Loch,13.768166799796745,,,,,,,,,,,,12.484718899941072,None,,,,,,,,,,,,,freeRecallSub,3,,,,,,,,,,,,,,,,,,,,,,,,,,,,,,,,,,,,,607.3565688000526,607.3675418999046,607.3675418999046,621.1367452000268,return,13.768166799796745,None,Loch,[],[],[],[],[],[],[],,,,,,,,,,,,,,,,,,,3,2023-11-29_11h34.39.758,watkins1,2023.2.3,99.71342366701576,29,2023-11-29 11h34.46.633780 +0000,
,,,,,,,,,,,,,,,,,,,10,0,10,0,,,,,621.1493478999473,,,,,,,,,,,,,,Trommel,6.698424400063232,,,,,,,,,,,,4.290959700010717,None,,,,,,,,,,,,,freeRecallSub,3,,,,,,,,,,,,,,,,,,,,,,,,,,,,,,,,,,,,,621.1381967999041,621.1493478999473,621.1493478999473,627.8495022000279,return,6.698424400063232,None,Trommel,[],[],[],[],[],[],[],,,,,,,,,,,,,,,,,,,3,2023-11-29_11h34.39.758,watkins1,2023.2.3,99.71342366701576,29,2023-11-29 11h34.46.633780 +0000,
,,,,,,,,,,,,,,,,,,,11,0,11,0,,,,,627.8620613999665,,,,,,,,,,,,,,Jacke,10.873728699982166,,,,,,,,,,,,9.734002099838108,None,,,,,,,,,,,,,freeRecallSub,3,,,,,,,,,,,,,,,,,,,,,,,,,,,,,,,,,,,,,627.8507538000122,627.8620613999665,627.8620613999665,638.7396726999432,return,10.873728699982166,None,Jacke,[],[],[],[],[],[],[],,,,,,,,,,,,,,,,,,,3,2023-11-29_11h34.39.758,watkins1,2023.2.3,99.71342366701576,29,2023-11-29 11h34.46.633780 +0000,
,,,,,,,,,,,,,,,,,,,12,0,12,0,,,,,638.7526593001094,,,,,,,,,,,,,,,[],,,,,,,,,,,,None,None,,,,,,,,,,,,,freeRecallSub,3,,,,,,,,,,,,,,,,,,,,,,,,,,,,,,,,,,,,,638.7409312000964,638.7526593001094,638.7526593001094,707.321055999957,None,,,,[0.25],[-0.38425925925925924],[1],[0],[0],[68.5748115000315],['button_continue'],,,,,,,,,,,,,,,,,,,3,2023-11-29_11h34.39.758,watkins1,2023.2.3,99.71342366701576,29,2023-11-29 11h34.46.633780 +0000,
,,,,,,,,,,,,,,,,,,,,,,,,,,,,,,,,,,,,,,,,,,,,,,,,,,,,,,,,,,,,,,,,,,,,,3,,,,,,,,,,,,,,,,,,,,,,,,,,,,,,,,,,,,,,,,,,,,,,,,,,,,,,,,,,,,,,,,,,,,,,3,2023-11-29_11h34.39.758,watkins1,2023.2.3,99.71342366701576,29,2023-11-29 11h34.46.633780 +0000,
,,,,,,,,,,,,,,,,,,,,,,,0,0,0,0,713.6573517001234,,,,,,,,,,716.5531766000204,717.051452799933,,,,2.8863635999150574,,,,,,,,,,,,None,None,,,,,,,,,,Hammer,,,cuedRecallAdj,3,,,,,,,,,,,,,,,,,,,0,,,,,,,,,,,,,,,,,,,,,,,,,,,,,,,,,713.6483104000799,713.6573517001234,713.6573517001234,716.5498238999862,Loch,return,2.8863635999150574,None,716.5502132000402,716.5593860000372,716.5593860000372,716.553023800021,,None,,,,,3,2023-11-29_11h34.39.758,watkins1,2023.2.3,99.71342366701576,29,2023-11-29 11h34.46.633780 +0000,
,,,,,,,,,,,,,,,,,,,,,,,1,0,1,0,717.0613995001186,,,,,,,,,,720.6796079999767,721.1783901001327,,,,3.610195599962026,,,,,,,,,,,,None,None,,,,,,,,,,Ring,,,cuedRecallAdj,3,,,,,,,,,,,,,,,,,,,0,,,,,,,,,,,,,,,,,,,,,,,,,,,,,,,,,717.0516957000364,717.0613995001186,717.0613995001186,720.676744800061,flach,return,3.610195599962026,None,720.6770137001295,720.6863987999968,720.6863987999968,720.6795061000157,,None,,,,,3,2023-11-29_11h34.39.758,watkins1,2023.2.3,99.71342366701576,29,2023-11-29 11h34.46.633780 +0000,
,,,,,,,,,,,,,,,,,,,,,,,2,0,2,0,721.1884302000981,,,,,,,,,,723.853105599992,724.3515983000398,,,,2.659215700114146,,,,,,,,,,,,None,None,,,,,,,,,,Eimer,,,cuedRecallAdj,3,,,,,,,,,,,,,,,,,,,0,,,,,,,,,,,,,,,,,,,,,,,,,,,,,,,,,721.1786352999043,721.1884302000981,721.1884302000981,723.8498766999692,rustikal,return,2.659215700114146,None,723.8501413001213,723.8595179000404,723.8595179000404,723.8530039000325,,None,,,,,3,2023-11-29_11h34.39.758,watkins1,2023.2.3,99.71342366701576,29,2023-11-29 11h34.46.633780 +0000,
,,,,,,,,,,,,,,,,,,,,,,,3,0,3,0,724.3614898999222,,,,,,,,,,725.8913138001226,726.3900363999419,,,,1.5181528001558036,,,,,,,,,,,,None,None,,,,,,,,,,Kamera,,,cuedRecallAdj,3,,,,,,,,,,,,,,,,,,,0,,,,,,,,,,,,,,,,,,,,,,,,,,,,,,,,,724.3518388001248,724.3614898999222,724.3614898999222,725.8881755999755,schwer,return,1.5181528001558036,None,725.8884406001307,725.897893599933,725.897893599933,725.8912118999287,,None,,,,,3,2023-11-29_11h34.39.758,watkins1,2023.2.3,99.71342366701576,29,2023-11-29 11h34.46.633780 +0000,
,,,,,,,,,,,,,,,,,,,,,,,4,0,4,0,726.3999844999053,,,,,,,,,,729.2050516000018,729.7037519000005,,,,2.7996280998922884,,,,,,,,,,,,None,None,,,,,,,,,,Geige,,,cuedRecallAdj,3,,,,,,,,,,,,,,,,,,,0,,,,,,,,,,,,,,,,,,,,,,,,,,,,,,,,,726.3902765000239,726.3999844999053,726.3999844999053,729.2020386999939,hässlich,return,2.7996280998922884,None,729.2023034000304,729.21155430004,729.21155430004,729.2049501000438,,None,,,,,3,2023-11-29_11h34.39.758,watkins1,2023.2.3,99.71342366701576,29,2023-11-29 11h34.46.633780 +0000,
,,,,,,,,,,,,,,,,,,,,,,,5,0,5,0,729.71370390011,,,,,,,,,,731.4139231001027,731.9129242999479,,,,1.6939015998505056,,,,,,,,,,,,None,None,,,,,,,,,,Kiste,,,cuedRecallAdj,3,,,,,,,,,,,,,,,,,,,0,,,,,,,,,,,,,,,,,,,,,,,,,,,,,,,,,729.7039946001023,729.71370390011,729.71370390011,731.4111013999209,dick,return,1.6939015998505056,None,731.4113648999482,731.4207228000741,731.4207228000741,731.4138207000215,,None,,,,,3,2023-11-29_11h34.39.758,watkins1,2023.2.3,99.71342366701576,29,2023-11-29 11h34.46.633780 +0000,
,,,,,,,,,,,,,,,,,,,,,,,6,0,6,0,731.9228666001,,,,,,,,,,744.4179933001287,744.9168175999075,,,,12.484697700012475,,,,,,,,,,,,None,None,,,,,,,,,,Brille,,,cuedRecallAdj,3,,,,,,,,,,,,,,,,,,,0,,,,,,,,,,,,,,,,,,,,,,,,,,,,,,,,,731.9131668999325,731.9228666001,731.9228666001,744.4149814001285,glänzend,return,12.484697700012475,None,744.415249499958,744.4248019999359,744.4248019999359,744.4178931000642,,None,,,,,3,2023-11-29_11h34.39.758,watkins1,2023.2.3,99.71342366701576,29,2023-11-29 11h34.46.633780 +0000,
,,,,,,,,,,,,,,,,,,,,,,,7,0,7,0,744.9267130000517,,,,,,,,,,748.1437614001334,748.6343157000374,,,,3.208949400112033,,,,,,,,,,,,None,None,,,,,,,,,,Jacke,,,cuedRecallAdj,3,,,,,,,,,,,,,,,,,,,0,,,,,,,,,,,,,,,,,,,,,,,,,,,,,,,,,744.9170601000078,744.9267130000517,744.9267130000517,748.1407202999108,gepunktet,return,3.208949400112033,None,748.140987199964,748.1502680999693,748.1502680999693,748.1436598000582,,None,,,,,3,2023-11-29_11h34.39.758,watkins1,2023.2.3,99.71342366701576,29,2023-11-29 11h34.46.633780 +0000,
,,,,,,,,,,,,,,,,,,,,,,,8,0,8,0,748.6443747000303,,,,,,,,,,751.3485763999633,751.8377744001336,,,,2.699255700223148,,,,,,,,,,,,None,None,,,,,,,,,,Buch,,,cuedRecallAdj,3,,,,,,,,,,,,,,,,,,,0,,,,,,,,,,,,,,,,,,,,,,,,,,,,,,,,,748.6345679000951,748.6443747000303,748.6443747000303,751.3458491000347,groß,return,2.699255700223148,None,751.3461142999586,751.3553548001219,751.3553548001219,751.3484728001058,,None,,,,,3,2023-11-29_11h34.39.758,watkins1,2023.2.3,99.71342366701576,29,2023-11-29 11h34.46.633780 +0000,
,,,,,,,,,,,,,,,,,,,,,,,9,0,9,0,751.8477247999981,,,,,,,,,,753.3068355999421,753.8058708000463,,,,1.4478641001041979,,,,,,,,,,,,None,None,,,,,,,,,,Trommel,,,cuedRecallAdj,3,,,,,,,,,,,,,,,,,,,0,,,,,,,,,,,,,,,,,,,,,,,,,,,,,,,,,751.8380197999068,751.8477247999981,751.8477247999981,753.3039520001039,bunt,return,1.4478641001041979,None,753.3042224999517,753.3137417000253,753.3137417000253,753.3067338999826,,None,,,,,3,2023-11-29_11h34.39.758,watkins1,2023.2.3,99.71342366701576,29,2023-11-29 11h34.46.633780 +0000,
,,,,,,,,,,,,,,,,,,,,,,,10,0,10,0,753.8158148000948,,,,,,,,,,756.9523636000231,757.4507939000614,,,,3.1278136000037193,,,,,,,,,,,,None,None,,,,,,,,,,Stift,,,cuedRecallAdj,3,,,,,,,,,,,,,,,,,,,0,,,,,,,,,,,,,,,,,,,,,,,,,,,,,,,,,753.8061170999426,753.8158148000948,753.8158148000948,756.9491825001314,schlicht,return,3.1278136000037193,None,756.949444900034,756.9588651000522,756.9588651000522,756.952261300059,,None,,,,,3,2023-11-29_11h34.39.758,watkins1,2023.2.3,99.71342366701576,29,2023-11-29 11h34.46.633780 +0000,
,,,,,,,,,,,,,,,,,,,,,,,11,0,11,0,757.4608370000497,,,,,,,,,,760.7780832001008,761.2767431999091,,,,3.306816899916157,,,,,,,,,,,,None,None,,,,,,,,,,Würfel,,,cuedRecallAdj,3,,,,,,,,,,,,,,,,,,,0,,,,,,,,,,,,,,,,,,,,,,,,,,,,,,,,,757.4510403999593,757.4608370000497,757.4608370000497,760.7748448001221,nachhaltig,return,3.306816899916157,None,760.7751126999501,760.7845817001071,760.7845817001071,760.7779814999085,,None,,,,,3,2023-11-29_11h34.39.758,watkins1,2023.2.3,99.71342366701576,29,2023-11-29 11h34.46.633780 +0000,
,,,,,,,,,,,,,,,,,,,,,,,12,0,12,0,761.2866798001342,,,,,,,,,,777.8602128999773,778.3581292000599,,,,16.56091360002756,,,,,,,,,,,,None,None,,,,,,,,,,Tasche,,,cuedRecallAdj,3,,,,,,,,,,,,,,,,,,,0,,,,,,,,,,,,,,,,,,,,,,,,,,,,,,,,,761.2769903999288,761.2866798001342,761.2866798001342,777.8573026999366,lau,return,16.56091360002756,None,777.8575710000005,777.8661094999406,777.8661094999406,777.8601118000224,,None,,,,,3,2023-11-29_11h34.39.758,watkins1,2023.2.3,99.71342366701576,29,2023-11-29 11h34.46.633780 +0000,
,,,,,,,,,,,,,,,,,,,,,,,13,0,13,0,778.3681745999493,,,,,,,,,,781.7154055999126,782.2141505000181,,,,3.343351799994707,,,,,,,,,,,,None,None,,,,,,,,,,Vase,,,cuedRecallAdj,3,,,,,,,,,,,,,,,,,,,0,,,,,,,,,,,,,,,,,,,,,,,,,,,,,,,,,778.3583780000918,778.3681745999493,778.3681745999493,781.712428299943,flauschig,return,3.343351799994707,None,781.7126965001225,781.7220211001113,781.7220211001113,781.7152996000368,,None,,,,,3,2023-11-29_11h34.39.758,watkins1,2023.2.3,99.71342366701576,29,2023-11-29 11h34.46.633780 +0000,
,,,,,,,,,,,,,,,,,,,,,,,14,0,14,0,782.22410760005,,,,,,,,,,784.24611190008,784.7446105999406,,,,2.015455999877304,,,,,,,,,,,,None,None,,,,,,,,,,Flasche,,,cuedRecallAdj,3,,,,,,,,,,,,,,,,,,,0,,,,,,,,,,,,,,,,,,,,,,,,,,,,,,,,,782.2143918001093,782.22410760005,782.22410760005,784.2429827000014,blass,return,2.015455999877304,None,784.2432468999177,784.2525478999596,784.2525478999596,784.2460105000064,,None,,,,,3,2023-11-29_11h34.39.758,watkins1,2023.2.3,99.71342366701576,29,2023-11-29 11h34.46.633780 +0000,
,,,,,,,,,,,,,,,,,,,,,,,15,0,15,0,784.7546667000279,,,,,,,,,,791.7772731999867,792.275708500063,,,,7.01287389989011,,,,,,,,,,,,None,None,,,,,,,,,,Blume,,,cuedRecallAdj,3,,,,,,,,,,,,,,,,,,,0,,,,,,,,,,,,,,,,,,,,,,,,,,,,,,,,,784.7448555999435,784.7546667000279,784.7546667000279,791.7740275999531,gesplittert,return,7.01287389989011,None,791.7742951000109,791.7835876999889,791.7835876999889,791.7771705000196,,None,,,,,3,2023-11-29_11h34.39.758,watkins1,2023.2.3,99.71342366701576,29,2023-11-29 11h34.46.633780 +0000,
,,,,,,,,,,,,,,,,,,,,,,,16,0,16,0,792.2856584999245,,,,,,,,,,796.0951793000568,796.5936555999797,,,,3.8019004999659956,,,,,,,,,,,,None,None,,,,,,,,,,Kerze,,,cuedRecallAdj,3,,,,,,,,,,,,,,,,,,,0,,,,,,,,,,,,,,,,,,,,,,,,,,,,,,,,,792.2759462001268,792.2856584999245,792.2856584999245,796.0920198000968,elegant,return,3.8019004999659956,None,796.0922856999096,796.1015308999922,796.1015308999922,796.0950776000973,,None,,,,,3,2023-11-29_11h34.39.758,watkins1,2023.2.3,99.71342366701576,29,2023-11-29 11h34.46.633780 +0000,
,,,,,,,,,,,,,,,,,,,,,,,17,0,17,0,796.6037067999132,,,,,,,,,,821.9522128999233,822.4509703000076,,,,25.33982570003718,,,,,,,,,,,,None,None,,,,,,,,,,Lampe,,,cuedRecallAdj,3,,,,,,,,,,,,,,,,,,,0,,,,,,,,,,,,,,,,,,,,,,,,,,,,,,,,,796.5939044000115,796.6037067999132,796.6037067999132,821.9492220999673,kalt,return,25.33982570003718,None,821.9494879001286,821.9588436000049,821.9588436000049,821.952112799976,,None,,,,,3,2023-11-29_11h34.39.758,watkins1,2023.2.3,99.71342366701576,29,2023-11-29 11h34.46.633780 +0000,
,,,,,,,,,,,,,,,,,,,,,,,18,0,18,0,822.4608654000331,,,,,,,,,,824.5627937999088,825.0617613000795,,,,2.090720600215718,,,,,,,,,,,,None,None,,,,,,,,,,Kette,,,cuedRecallAdj,3,,,,,,,,,,,,,,,,,,,0,,,,,,,,,,,,,,,,,,,,,,,,,,,,,,,,,822.4512167999055,822.4608654000331,822.4608654000331,824.5599807999097,neu,return,2.090720600215718,None,824.5602470999584,824.5696986000985,824.5696986000985,824.5626910999417,,None,,,,,3,2023-11-29_11h34.39.758,watkins1,2023.2.3,99.71342366701576,29,2023-11-29 11h34.46.633780 +0000,
,,,,,,,,,,,,,,,,,,,,,,,19,0,19,0,825.0716705000959,,,,,,,,,,840.840271800058,841.3296030000784,,,,15.75976589997299,,,,,,,,,,,,None,None,,,,,,,,,,Löffel,,,cuedRecallAdj,3,,,,,,,,,,,,,,,,,,,0,,,,,,,,,,,,,,,,,,,,,,,,,,,,,,,,,825.0619978001341,825.0716705000959,825.0716705000959,840.8378306000959,,return,15.75976589997299,None,840.8381060999818,840.8472911999561,840.8472911999561,840.8401719999965,,None,,,,,3,2023-11-29_11h34.39.758,watkins1,2023.2.3,99.71342366701576,29,2023-11-29 11h34.46.633780 +0000,
,,,,,,,,,,,,,,,,,,,,,,,20,0,20,0,841.3395539999474,,,,,,,,,,844.1848085001111,844.6833407001104,,,,2.835987700149417,,,,,,,,,,,,None,None,,,,,,,,,,Rucksack,,,cuedRecallAdj,3,,,,,,,,,,,,,,,,,,,0,,,,,,,,,,,,,,,,,,,,,,,,,,,,,,,,,841.3298462999519,841.3395539999474,841.3395539999474,844.1817213001195,schmutzig,return,2.835987700149417,None,844.1819833999034,844.1912026000209,844.1912026000209,844.1847067999188,,None,,,,,3,2023-11-29_11h34.39.758,watkins1,2023.2.3,99.71342366701576,29,2023-11-29 11h34.46.633780 +0000,
,,,,,,,,,,,,,,,,,,,,,,,21,0,21,0,844.693397999974,,,,,,,,,,849.0047712000087,849.5033468001056,,,,4.306155399885029,,,,,,,,,,,,None,None,,,,,,,,,,Schlüssel,,,cuedRecallAdj,3,,,,,,,,,,,,,,,,,,,0,,,,,,,,,,,,,,,,,,,,,,,,,,,,,,,,,844.6835867001209,844.693397999974,844.693397999974,849.001740799984,breit,return,4.306155399885029,None,849.0020069999155,849.0113184999209,849.0113184999209,849.0046709000599,,None,,,,,3,2023-11-29_11h34.39.758,watkins1,2023.2.3,99.71342366701576,29,2023-11-29 11h34.46.633780 +0000,
,,,,,,,,,,,,,,,,,,,,,,,22,0,22,0,849.513406699989,,,,,,,,,,852.8908404000103,853.3896896999795,,,,3.3661050000227988,,,,,,,,,,,,None,None,,,,,,,,,,Schere,,,cuedRecallAdj,3,,,,,,,,,,,,,,,,,,,0,,,,,,,,,,,,,,,,,,,,,,,,,,,,,,,,,849.503591600107,849.513406699989,849.513406699989,852.8878339999355,biegsam,return,3.3661050000227988,None,852.8880982000846,852.8976529999636,852.8976529999636,852.8907371000387,,None,,,,,3,2023-11-29_11h34.39.758,watkins1,2023.2.3,99.71342366701576,29,2023-11-29 11h34.46.633780 +0000,
,,,,,,,,,,,,,,,,,,,,,,,23,0,23,0,853.3996234999504,,,,,,,,,,881.328639900079,881.8276446999516,,,,27.919834200059995,,,,,,,,,,,,None,None,,,,,,,,,,Fahrrad,,,cuedRecallAdj,3,,,,,,,,,,,,,,,,,,,0,,,,,,,,,,,,,,,,,,,,,,,,,,,,,,,,,853.3899340999778,853.3996234999504,853.3996234999504,881.3257595999166,bunt,return,27.919834200059995,None,881.3260246000718,881.3353192999493,881.3353192999493,881.328535299981,,None,,,,,3,2023-11-29_11h34.39.758,watkins1,2023.2.3,99.71342366701576,29,2023-11-29 11h34.46.633780 +0000,
,,,,,,,,,,,,,,,,,,,,,,,24,0,24,0,881.8375383000821,,,,,,,,,,886.9523118000943,887.4507557000034,,,,5.106081899954006,,,,,,,,,,,,None,None,,,,,,,,,,Bürste,,,cuedRecallAdj,3,,,,,,,,,,,,,,,,,,,0,,,,,,,,,,,,,,,,,,,,,,,,,,,,,,,,,881.8278952001128,881.8375383000821,881.8375383000821,886.9490479000378,sportlich,return,5.106081899954006,None,886.9493134000804,886.9586867000908,886.9586867000908,886.9522102999035,,None,,,,,3,2023-11-29_11h34.39.758,watkins1,2023.2.3,99.71342366701576,29,2023-11-29 11h34.46.633780 +0000,
,,,,,,,,,,,,,,,,,,,,,,,25,0,25,0,887.4606614001095,,,,,,,,,,891.4608648000285,891.9593736000825,,,,3.9948249000590295,,,,,,,,,,,,None,None,,,,,,,,,,Telefon,,,cuedRecallAdj,3,,,,,,,,,,,,,,,,,,,0,,,,,,,,,,,,,,,,,,,,,,,,,,,,,,,,,887.4510037999135,887.4606614001095,887.4606614001095,891.4576719999313,winzig,return,3.9948249000590295,None,891.4579376000911,891.4672199999914,891.4672199999914,891.460764199961,,None,,,,,3,2023-11-29_11h34.39.758,watkins1,2023.2.3,99.71342366701576,29,2023-11-29 11h34.46.633780 +0000,
,,,,,,,,,,,,,,,,,,,,,,,26,0,26,0,891.9693195000291,,,,,,,,,,895.1959496000782,895.6948434999213,,,,3.214239099994302,,,,,,,,,,,,None,None,,,,,,,,,,Uhr,,,cuedRecallAdj,3,,,,,,,,,,,,,,,,,,,0,,,,,,,,,,,,,,,,,,,,,,,,,,,,,,,,,891.9596126000397,891.9693195000291,891.9693195000291,895.1929665999487,praktisch,return,3.214239099994302,None,895.1932322999928,895.2026591999456,895.2026591999456,895.1958471999969,,None,,,,,3,2023-11-29_11h34.39.758,watkins1,2023.2.3,99.71342366701576,29,2023-11-29 11h34.46.633780 +0000,
,,,,,,,,,,,,,,,,,,,,,,,27,0,27,0,895.7047878000885,,,,,,,,,,898.3391708000563,898.8378079000395,,,,2.630717399995774,,,,,,,,,,,,None,None,,,,,,,,,,Socke,,,cuedRecallAdj,3,,,,,,,,,,,,,,,,,,,0,,,,,,,,,,,,,,,,,,,,,,,,,,,,,,,,,895.6950930000748,895.7047878000885,895.7047878000885,898.3361543999054,sauber,return,2.630717399995774,None,898.3364208000712,898.345645399997,898.345645399997,898.3390689999796,,None,,,,,3,2023-11-29_11h34.39.758,watkins1,2023.2.3,99.71342366701576,29,2023-11-29 11h34.46.633780 +0000,
,,,,,,,,,,,,,,,,,,,,,,,28,0,28,0,898.8477564000059,,,,,,,,,,904.2937658000737,904.7923651000019,,,,5.439616000046954,,,,,,,,,,,,None,None,,,,,,,,,,Hut,,,cuedRecallAdj,3,,,,,,,,,,,,,,,,,,,0,,,,,,,,,,,,,,,,,,,,,,,,,,,,,,,,,898.8380573999602,898.8477564000059,898.8477564000059,904.2906995001249,strahlend,return,5.439616000046954,None,904.2909643000457,904.3002230999991,904.3002230999991,904.2936652000062,,None,,,,,3,2023-11-29_11h34.39.758,watkins1,2023.2.3,99.71342366701576,29,2023-11-29 11h34.46.633780 +0000,
,,,,,,,,,,,,,,,,,,,,,,,29,0,29,0,904.8023628001101,,,,,,,,,,921.7257676001173,922.2242954999674,,,,16.917009900091216,,,,,,,,,,,,None,None,,,,,,,,,,Tasse,,,cuedRecallAdj,3,,,,,,,,,,,,,,,,,,,0,,,,,,,,,,,,,,,,,,,,,,,,,,,,,,,,,904.7926095000003,904.8023628001101,904.8023628001101,921.722631300101,flach,return,16.917009900091216,None,921.7229182999581,921.7322859000415,921.7322859000415,921.7256599001121,,None,,,,,3,2023-11-29_11h34.39.758,watkins1,2023.2.3,99.71342366701576,29,2023-11-29 11h34.46.633780 +0000,
,,,,,,,,,,,,,,,,,,,,,,,,,,,,,,,,,,,,,,,,,,,,,,,,,,,,,,,,,,,,,,,,,,,,,3,,,,,,,,,,,,,,,,,,,,,,,,,,,,,,,,,,,,,,,,,,,,,,,,,,,,,,,,,,,,,,,,,,922.2411052999087,q,1461.4447566999588,None,3,2023-11-29_11h34.39.758,watkins1,2023.2.3,99.71342366701576,29,2023-11-29 11h34.46.633780 +0000,
