Equation,CorrectResponse,Correctbutton,trials_7.thisRepN,trials_7.thisTrialN,trials_7.thisN,trials_7.thisIndex,trials.thisRepN,trials.thisTrialN,trials.thisN,trials.thisIndex,trials_3.thisRepN,trials_3.thisTrialN,trials_3.thisN,trials_3.thisIndex,trials_2.thisRepN,trials_2.thisTrialN,trials_2.thisN,trials_2.thisIndex,trials_4.thisRepN,trials_4.thisTrialN,trials_4.thisN,trials_4.thisIndex,trials_5.thisRepN,trials_5.thisTrialN,trials_5.thisN,trials_5.thisIndex,thisRow.t,notes,list_sub_restudy,list_sub_testsub,code_marius.started,code_marius.stopped,welcome.started,welcome.stopped,instruction_study.started,instruction_study.stopped,fixationcross.started,fixationcross.stopped,blanc.started,blanc.stopped,study_control_probe.started,study_control_probe.stopped,responseKey,responseTime,scale_answer_2.keys,study_control_probe_2.started,study_control_probe_2.stopped,scale_answer_3.keys,scale_answer_3.rt,scale_answer_3.duration,blanc_2.started,blanc_2.stopped,test_attr_probe.started,test_attr_probe.stopped,recalled_attr,firstKeyTime,secondWordTime,blanc_3.started,blanc_3.stopped,test_sub_probe.started,test_sub_probe.stopped,recalled_sub,instruction_probe_end.started,instruction_probe_end.stopped,study.started,study.stopped,substantive,adjective,wordpair,task,condition,liste_sub_phase1,liste_adj_phase1,scale_answer.keys,scale_answer.rt,scale_answer.duration,code_defineWordsInit.started,code_defineWordsInit.stopped,liste_sub_phase2,study_control.started,study_control.stopped,scale_answer_4.keys,restudy_same.started,restudy_same.stopped,scale_answer_5.keys,scale_answer_5.rt,scale_answer_5.duration,restudy_different.started,restudy_different.stopped,scale_answer_6.keys,test_attr.started,test_attr.stopped,test_sub.started,test_sub.stopped,correct,distractortask.started,equation_text.started,distractortask.stopped,mouse_answer.x,mouse_answer.y,mouse_answer.leftButton,mouse_answer.midButton,mouse_answer.rightButton,mouse_answer.time,mouse_answer.clicked_name,feedback_distractortask.started,feedback_distractortask.stopped,free_recall.started,text_enter.started,key_resp.started,free_recall.stopped,key_resp.keys,key_resp.rt,key_resp.duration,free_recalled_sub,mouse_continue.x,mouse_continue.y,mouse_continue.leftButton,mouse_continue.midButton,mouse_continue.rightButton,mouse_continue.time,mouse_continue.clicked_name,cued_recall.started,text_enter_2.started,key_continue.started,cued_recall.stopped,recalled_attr1,key_continue.keys,key_continue.rt,key_continue.duration,cued_recall_2.started,text_enter_3.started,key_continue_2.started,cued_recall_2.stopped,recalled_attr2,key_continue_2.keys,key_resp_8.started,key_resp_8.keys,key_resp_8.rt,key_resp_8.duration,condition,date,expName,psychopyVersion,frameRate,participant,expStart,
,,,,,,,,,,,,,,,,,,,,,,,,,,,,,"['Geige', 'Brille', 'Schere', 'Bürste', 'Kiste', 'Kamera', 'Schlüssel', 'Tasse', 'Fahrrad', 'Eimer', 'Socke', 'Flasche', 'Jacke', 'Kette', 'Telefon']","['Rucksack', 'Hut', 'Trommel', 'Blume', 'Buch', 'Stift', 'Vase', 'Kerze', 'Tasche', 'Ring', 'Lampe', 'Würfel', 'Uhr', 'Löffel', 'Hammer']",0.11749419989064336,0.11756199994124472,0.11757069989107549,4.2857142998836935,,,,,,,,,,,,,,,,,,,,,,,,,,,,,,,,,,,,,2,,,,,,,,,,,,,,,,,,,,,,,,,,,,,,,,,,,,,,,,,,,,,,,,,,,,,,,,,,,,,,,,,,,,,,2,2023-12-05_10h52.14.970,watkins1,2023.2.3,99.75629539599242,43,2023-12-05 10h52.23.165582 +0000,
,,,,,,,,,,,,,,,,,,,,,,,,,,,,,,,,,,,4.285761999897659,46.21261029993184,,,,,,,,,,,,,,,,,,,,,,,,,,,,,,,,,,,2,,,,,,,,,,,,,,,,,,,,,,,,,,,,,,,,,,,,,,,,,,,,,,,,,,,,,,,,,,,,,,,,,,,,,,2,2023-12-05_10h52.14.970,watkins1,2023.2.3,99.75629539599242,43,2023-12-05 10h52.23.165582 +0000,
,,,0,0,0,0,,,,,,,,,,,,,,,,,,,,,47.22668240009807,,,,,,,,,,46.21262810006738,47.21659539989196,53.71437110006809,54.205701200058684,47.7087302999571,53.71420629997738,2,1.995630200020969,None,54.20571219990961,60.215630300110206,2,1.995630200020969,None,60.215925199911,60.21594929997809,60.21595639991574,60.21603889996186,,2.510465599829331,5.030729699879885,60.216204799944535,60.706887000007555,60.70689869998023,66.7116229000967,Vergnüge,,,,,,,,,2,,,,,,,,,,,,,,,,,,,,,,,,,,,,,,,,,,,,,,,,,,,,,,,,,,,,,,,,,,,,,,,,,,,,,,2,2023-12-05_10h52.14.970,watkins1,2023.2.3,99.75629539599242,43,2023-12-05 10h52.23.165582 +0000,
,,,,,,,,,,,,,,,,,,,,,,,,,,,,,,,,,,,,,,,,,,,,,,,,,,,,,,,,,,,,,,,66.71177690010518,69.73320630006492,,,,,,,2,,,,,,,,,,,,,,,,,,,,,,,,,,,,,,,,,,,,,,,,,,,,,,,,,,,,,,,,,,,,,,,,,,,,,,2,2023-12-05_10h52.14.970,watkins1,2023.2.3,99.75629539599242,43,2023-12-05 10h52.23.165582 +0000,
,,,,,,,0,0,0,0,,,,,,,,,,,,,,,,,70.74704380007461,,,,,,,,,,69.73322249995545,70.73705759993754,70.73752019996755,71.22903120005503,,,3,1.7356423998717219,,,,,,,,,,,,,,,,,,,,,71.22904250002466,77.23470359994099,Brille,groß,"['Brille', 'groß']",restudy,2,"['Brille', 'Rucksack', 'Telefon', 'Trommel', 'Socke', 'Stift', 'Löffel', 'Uhr', 'Bürste', 'Kamera', 'Schere', 'Buch', 'Eimer', 'Tasse', 'Blume', 'Geige', 'Lampe', 'Würfel', 'Schlüssel', 'Vase', 'Kiste', 'Kerze', 'Fahrrad', 'Flasche', 'Tasche', 'Kette', 'Hut', 'Ring', 'Jacke', 'Hammer']",['groß'],3,1.7356423998717219,None,,,,,,,,,,,,,,,,,,,,,,,,,,,,,,,,,,,,,,,,,,,,,,,,,,,,,,,,,,,,,,,,,2,2023-12-05_10h52.14.970,watkins1,2023.2.3,99.75629539599242,43,2023-12-05 10h52.23.165582 +0000,
,,,,,,,1,0,1,0,,,,,,,,,,,,,,,,,77.24412250006571,,,,,,,,,,,,77.23536480008624,77.72601199988276,,,1,1.6314511999953538,,,,,,,,,,,,,,,,,,,,,77.72602239996195,83.73496809997596,Rucksack,kurz,"['Rucksack', 'kurz']",test_sub,2,"['Brille', 'Rucksack', 'Telefon', 'Trommel', 'Socke', 'Stift', 'Löffel', 'Uhr', 'Bürste', 'Kamera', 'Schere', 'Buch', 'Eimer', 'Tasse', 'Blume', 'Geige', 'Lampe', 'Würfel', 'Schlüssel', 'Vase', 'Kiste', 'Kerze', 'Fahrrad', 'Flasche', 'Tasche', 'Kette', 'Hut', 'Ring', 'Jacke', 'Hammer']","['groß', 'kurz']",1,1.6314511999953538,None,,,,,,,,,,,,,,,,,,,,,,,,,,,,,,,,,,,,,,,,,,,,,,,,,,,,,,,,,,,,,,,,,2,2023-12-05_10h52.14.970,watkins1,2023.2.3,99.75629539599242,43,2023-12-05 10h52.23.165582 +0000,
,,,,,,,2,0,2,0,,,,,,,,,,,,,,,,,83.74438529997133,,,,,,,,,,,,83.73549570003524,84.22653739992529,,,1,1.4834877999965101,,,,,,,,,,,,,,,,,,,,,84.22654840000905,90.22737300000153,Telefon,hohl,"['Telefon', 'hohl']",restudy,2,"['Brille', 'Rucksack', 'Telefon', 'Trommel', 'Socke', 'Stift', 'Löffel', 'Uhr', 'Bürste', 'Kamera', 'Schere', 'Buch', 'Eimer', 'Tasse', 'Blume', 'Geige', 'Lampe', 'Würfel', 'Schlüssel', 'Vase', 'Kiste', 'Kerze', 'Fahrrad', 'Flasche', 'Tasche', 'Kette', 'Hut', 'Ring', 'Jacke', 'Hammer']","['groß', 'kurz', 'hohl']",1,1.4834877999965101,None,,,,,,,,,,,,,,,,,,,,,,,,,,,,,,,,,,,,,,,,,,,,,,,,,,,,,,,,,,,,,,,,,2,2023-12-05_10h52.14.970,watkins1,2023.2.3,99.75629539599242,43,2023-12-05 10h52.23.165582 +0000,
,,,,,,,3,0,3,0,,,,,,,,,,,,,,,,,90.2368439999409,,,,,,,,,,,,90.22790549998172,90.71885739988647,,,2,1.7280367999337614,,,,,,,,,,,,,,,,,,,,,90.71886870008893,96.72030450007878,Trommel,rustikal,"['Trommel', 'rustikal']",test_sub,2,"['Brille', 'Rucksack', 'Telefon', 'Trommel', 'Socke', 'Stift', 'Löffel', 'Uhr', 'Bürste', 'Kamera', 'Schere', 'Buch', 'Eimer', 'Tasse', 'Blume', 'Geige', 'Lampe', 'Würfel', 'Schlüssel', 'Vase', 'Kiste', 'Kerze', 'Fahrrad', 'Flasche', 'Tasche', 'Kette', 'Hut', 'Ring', 'Jacke', 'Hammer']","['groß', 'kurz', 'hohl', 'rustikal']",2,1.7280367999337614,None,,,,,,,,,,,,,,,,,,,,,,,,,,,,,,,,,,,,,,,,,,,,,,,,,,,,,,,,,,,,,,,,,2,2023-12-05_10h52.14.970,watkins1,2023.2.3,99.75629539599242,43,2023-12-05 10h52.23.165582 +0000,
,,,,,,,4,0,4,0,,,,,,,,,,,,,,,,,96.72969159996137,,,,,,,,,,,,96.72085330006666,97.21179779991508,,,3,1.4428910999558866,,,,,,,,,,,,,,,,,,,,,97.21180949988775,103.21487980009988,Socke,flauschig,"['Socke', 'flauschig']",restudy,2,"['Brille', 'Rucksack', 'Telefon', 'Trommel', 'Socke', 'Stift', 'Löffel', 'Uhr', 'Bürste', 'Kamera', 'Schere', 'Buch', 'Eimer', 'Tasse', 'Blume', 'Geige', 'Lampe', 'Würfel', 'Schlüssel', 'Vase', 'Kiste', 'Kerze', 'Fahrrad', 'Flasche', 'Tasche', 'Kette', 'Hut', 'Ring', 'Jacke', 'Hammer']","['groß', 'kurz', 'hohl', 'rustikal', 'flauschig']",3,1.4428910999558866,None,,,,,,,,,,,,,,,,,,,,,,,,,,,,,,,,,,,,,,,,,,,,,,,,,,,,,,,,,,,,,,,,,2,2023-12-05_10h52.14.970,watkins1,2023.2.3,99.75629539599242,43,2023-12-05 10h52.23.165582 +0000,
,,,,,,,5,0,5,0,,,,,,,,,,,,,,,,,103.22438860009424,,,,,,,,,,,,103.21542569994926,103.70639199996367,,,1,2.0926200000103563,,,,,,,,,,,,,,,,,,,,,103.70640229992568,109.7082764999941,Stift,klobig,"['Stift', 'klobig']",test_sub,2,"['Brille', 'Rucksack', 'Telefon', 'Trommel', 'Socke', 'Stift', 'Löffel', 'Uhr', 'Bürste', 'Kamera', 'Schere', 'Buch', 'Eimer', 'Tasse', 'Blume', 'Geige', 'Lampe', 'Würfel', 'Schlüssel', 'Vase', 'Kiste', 'Kerze', 'Fahrrad', 'Flasche', 'Tasche', 'Kette', 'Hut', 'Ring', 'Jacke', 'Hammer']","['groß', 'kurz', 'hohl', 'rustikal', 'flauschig', 'klobig']",1,2.0926200000103563,None,,,,,,,,,,,,,,,,,,,,,,,,,,,,,,,,,,,,,,,,,,,,,,,,,,,,,,,,,,,,,,,,,2,2023-12-05_10h52.14.970,watkins1,2023.2.3,99.75629539599242,43,2023-12-05 10h52.23.165582 +0000,
,,,,,,,6,0,6,0,,,,,,,,,,,,,,,,,109.71772910002619,,,,,,,,,,,,109.70880839996971,110.19977850001305,,,3,1.4541770999785513,,,,,,,,,,,,,,,,,,,,,110.19978959998116,116.20883110002615,Löffel,schwer,"['Löffel', 'schwer']",test_sub,2,"['Brille', 'Rucksack', 'Telefon', 'Trommel', 'Socke', 'Stift', 'Löffel', 'Uhr', 'Bürste', 'Kamera', 'Schere', 'Buch', 'Eimer', 'Tasse', 'Blume', 'Geige', 'Lampe', 'Würfel', 'Schlüssel', 'Vase', 'Kiste', 'Kerze', 'Fahrrad', 'Flasche', 'Tasche', 'Kette', 'Hut', 'Ring', 'Jacke', 'Hammer']","['groß', 'kurz', 'hohl', 'rustikal', 'flauschig', 'klobig', 'schwer']",3,1.4541770999785513,None,,,,,,,,,,,,,,,,,,,,,,,,,,,,,,,,,,,,,,,,,,,,,,,,,,,,,,,,,,,,,,,,,2,2023-12-05_10h52.14.970,watkins1,2023.2.3,99.75629539599242,43,2023-12-05 10h52.23.165582 +0000,
,,,,,,,7,0,7,0,,,,,,,,,,,,,,,,,116.21826030011289,,,,,,,,,,,,116.20936219999567,116.70023029996082,,,2,1.4825776000507176,,,,,,,,,,,,,,,,,,,,,116.70024139992893,122.70809510000981,Uhr,kalt,"['Uhr', 'kalt']",test_sub,2,"['Brille', 'Rucksack', 'Telefon', 'Trommel', 'Socke', 'Stift', 'Löffel', 'Uhr', 'Bürste', 'Kamera', 'Schere', 'Buch', 'Eimer', 'Tasse', 'Blume', 'Geige', 'Lampe', 'Würfel', 'Schlüssel', 'Vase', 'Kiste', 'Kerze', 'Fahrrad', 'Flasche', 'Tasche', 'Kette', 'Hut', 'Ring', 'Jacke', 'Hammer']","['groß', 'kurz', 'hohl', 'rustikal', 'flauschig', 'klobig', 'schwer', 'kalt']",2,1.4825776000507176,None,,,,,,,,,,,,,,,,,,,,,,,,,,,,,,,,,,,,,,,,,,,,,,,,,,,,,,,,,,,,,,,,,2,2023-12-05_10h52.14.970,watkins1,2023.2.3,99.75629539599242,43,2023-12-05 10h52.23.165582 +0000,
,,,,,,,8,0,8,0,,,,,,,,,,,,,,,,,122.71744800009765,,,,,,,,,,,,122.70861790003255,123.19960159994662,,,2,3.3359286000486463,,,,,,,,,,,,,,,,,,,,,123.1996124999132,129.20081060007215,Bürste,matt,"['Bürste', 'matt']",restudy,2,"['Brille', 'Rucksack', 'Telefon', 'Trommel', 'Socke', 'Stift', 'Löffel', 'Uhr', 'Bürste', 'Kamera', 'Schere', 'Buch', 'Eimer', 'Tasse', 'Blume', 'Geige', 'Lampe', 'Würfel', 'Schlüssel', 'Vase', 'Kiste', 'Kerze', 'Fahrrad', 'Flasche', 'Tasche', 'Kette', 'Hut', 'Ring', 'Jacke', 'Hammer']","['groß', 'kurz', 'hohl', 'rustikal', 'flauschig', 'klobig', 'schwer', 'kalt', 'matt']",2,3.3359286000486463,None,,,,,,,,,,,,,,,,,,,,,,,,,,,,,,,,,,,,,,,,,,,,,,,,,,,,,,,,,,,,,,,,,2,2023-12-05_10h52.14.970,watkins1,2023.2.3,99.75629539599242,43,2023-12-05 10h52.23.165582 +0000,
,,,,,,,9,0,9,0,,,,,,,,,,,,,,,,,129.21023819991387,,,,,,,,,,,,129.20133460010402,129.69221600005403,,,3,1.3942056999076158,,,,,,,,,,,,,,,,,,,,,129.69222710002214,135.69394259992987,Kamera,schmutzig,"['Kamera', 'schmutzig']",restudy,2,"['Brille', 'Rucksack', 'Telefon', 'Trommel', 'Socke', 'Stift', 'Löffel', 'Uhr', 'Bürste', 'Kamera', 'Schere', 'Buch', 'Eimer', 'Tasse', 'Blume', 'Geige', 'Lampe', 'Würfel', 'Schlüssel', 'Vase', 'Kiste', 'Kerze', 'Fahrrad', 'Flasche', 'Tasche', 'Kette', 'Hut', 'Ring', 'Jacke', 'Hammer']","['groß', 'kurz', 'hohl', 'rustikal', 'flauschig', 'klobig', 'schwer', 'kalt', 'matt', 'schmutzig']",3,1.3942056999076158,None,,,,,,,,,,,,,,,,,,,,,,,,,,,,,,,,,,,,,,,,,,,,,,,,,,,,,,,,,,,,,,,,,2,2023-12-05_10h52.14.970,watkins1,2023.2.3,99.75629539599242,43,2023-12-05 10h52.23.165582 +0000,
,,,,,,,10,0,10,0,,,,,,,,,,,,,,,,,135.70330869988538,,,,,,,,,,,,135.6944720998872,136.18527360004373,,,1,1.0940264998935163,,,,,,,,,,,,,,,,,,,,,136.18528539990075,142.18628849997185,Schere,hübsch,"['Schere', 'hübsch']",restudy,2,"['Brille', 'Rucksack', 'Telefon', 'Trommel', 'Socke', 'Stift', 'Löffel', 'Uhr', 'Bürste', 'Kamera', 'Schere', 'Buch', 'Eimer', 'Tasse', 'Blume', 'Geige', 'Lampe', 'Würfel', 'Schlüssel', 'Vase', 'Kiste', 'Kerze', 'Fahrrad', 'Flasche', 'Tasche', 'Kette', 'Hut', 'Ring', 'Jacke', 'Hammer']","['groß', 'kurz', 'hohl', 'rustikal', 'flauschig', 'klobig', 'schwer', 'kalt', 'matt', 'schmutzig', 'hübsch']",1,1.0940264998935163,None,,,,,,,,,,,,,,,,,,,,,,,,,,,,,,,,,,,,,,,,,,,,,,,,,,,,,,,,,,,,,,,,,2,2023-12-05_10h52.14.970,watkins1,2023.2.3,99.75629539599242,43,2023-12-05 10h52.23.165582 +0000,
,,,,,,,11,0,11,0,,,,,,,,,,,,,,,,,142.19573309994303,,,,,,,,,,,,142.18682430009358,142.67796040000394,,,1,1.185447300085798,,,,,,,,,,,,,,,,,,,,,142.67797080008313,148.68722219998017,Buch,blass,"['Buch', 'blass']",test_sub,2,"['Brille', 'Rucksack', 'Telefon', 'Trommel', 'Socke', 'Stift', 'Löffel', 'Uhr', 'Bürste', 'Kamera', 'Schere', 'Buch', 'Eimer', 'Tasse', 'Blume', 'Geige', 'Lampe', 'Würfel', 'Schlüssel', 'Vase', 'Kiste', 'Kerze', 'Fahrrad', 'Flasche', 'Tasche', 'Kette', 'Hut', 'Ring', 'Jacke', 'Hammer']","['groß', 'kurz', 'hohl', 'rustikal', 'flauschig', 'klobig', 'schwer', 'kalt', 'matt', 'schmutzig', 'hübsch', 'blass']",1,1.185447300085798,None,,,,,,,,,,,,,,,,,,,,,,,,,,,,,,,,,,,,,,,,,,,,,,,,,,,,,,,,,,,,,,,,,2,2023-12-05_10h52.14.970,watkins1,2023.2.3,99.75629539599242,43,2023-12-05 10h52.23.165582 +0000,
,,,,,,,12,0,12,0,,,,,,,,,,,,,,,,,148.69661580002867,,,,,,,,,,,,148.68774609989487,149.17850470007397,,,3,1.4037512999493629,,,,,,,,,,,,,,,,,,,,,149.17851580004208,155.1811039999593,Eimer,robust,"['Eimer', 'robust']",restudy,2,"['Brille', 'Rucksack', 'Telefon', 'Trommel', 'Socke', 'Stift', 'Löffel', 'Uhr', 'Bürste', 'Kamera', 'Schere', 'Buch', 'Eimer', 'Tasse', 'Blume', 'Geige', 'Lampe', 'Würfel', 'Schlüssel', 'Vase', 'Kiste', 'Kerze', 'Fahrrad', 'Flasche', 'Tasche', 'Kette', 'Hut', 'Ring', 'Jacke', 'Hammer']","['groß', 'kurz', 'hohl', 'rustikal', 'flauschig', 'klobig', 'schwer', 'kalt', 'matt', 'schmutzig', 'hübsch', 'blass', 'robust']",3,1.4037512999493629,None,,,,,,,,,,,,,,,,,,,,,,,,,,,,,,,,,,,,,,,,,,,,,,,,,,,,,,,,,,,,,,,,,2,2023-12-05_10h52.14.970,watkins1,2023.2.3,99.75629539599242,43,2023-12-05 10h52.23.165582 +0000,
,,,,,,,13,0,13,0,,,,,,,,,,,,,,,,,155.19051810004748,,,,,,,,,,,,155.1816308000125,155.67243949999101,,,3,1.0225231000222266,,,,,,,,,,,,,,,,,,,,,155.67245050007477,161.68105740007013,Tasse,dunkel,"['Tasse', 'dunkel']",restudy,2,"['Brille', 'Rucksack', 'Telefon', 'Trommel', 'Socke', 'Stift', 'Löffel', 'Uhr', 'Bürste', 'Kamera', 'Schere', 'Buch', 'Eimer', 'Tasse', 'Blume', 'Geige', 'Lampe', 'Würfel', 'Schlüssel', 'Vase', 'Kiste', 'Kerze', 'Fahrrad', 'Flasche', 'Tasche', 'Kette', 'Hut', 'Ring', 'Jacke', 'Hammer']","['groß', 'kurz', 'hohl', 'rustikal', 'flauschig', 'klobig', 'schwer', 'kalt', 'matt', 'schmutzig', 'hübsch', 'blass', 'robust', 'dunkel']",3,1.0225231000222266,None,,,,,,,,,,,,,,,,,,,,,,,,,,,,,,,,,,,,,,,,,,,,,,,,,,,,,,,,,,,,,,,,,2,2023-12-05_10h52.14.970,watkins1,2023.2.3,99.75629539599242,43,2023-12-05 10h52.23.165582 +0000,
,,,,,,,14,0,14,0,,,,,,,,,,,,,,,,,161.69043210009113,,,,,,,,,,,,161.68159190006554,162.1724270998966,,,1,1.3461010998580605,,,,,,,,,,,,,,,,,,,,,162.17243780009449,168.173639500048,Blume,kaputt,"['Blume', 'kaputt']",test_sub,2,"['Brille', 'Rucksack', 'Telefon', 'Trommel', 'Socke', 'Stift', 'Löffel', 'Uhr', 'Bürste', 'Kamera', 'Schere', 'Buch', 'Eimer', 'Tasse', 'Blume', 'Geige', 'Lampe', 'Würfel', 'Schlüssel', 'Vase', 'Kiste', 'Kerze', 'Fahrrad', 'Flasche', 'Tasche', 'Kette', 'Hut', 'Ring', 'Jacke', 'Hammer']","['groß', 'kurz', 'hohl', 'rustikal', 'flauschig', 'klobig', 'schwer', 'kalt', 'matt', 'schmutzig', 'hübsch', 'blass', 'robust', 'dunkel', 'kaputt']",1,1.3461010998580605,None,,,,,,,,,,,,,,,,,,,,,,,,,,,,,,,,,,,,,,,,,,,,,,,,,,,,,,,,,,,,,,,,,2,2023-12-05_10h52.14.970,watkins1,2023.2.3,99.75629539599242,43,2023-12-05 10h52.23.165582 +0000,
,,,,,,,15,0,15,0,,,,,,,,,,,,,,,,,168.18304529995658,,,,,,,,,,,,168.17417029989883,168.66502789990045,,,2,1.2294290999416262,,,,,,,,,,,,,,,,,,,,,168.66503829997964,174.66663029999472,Geige,zart,"['Geige', 'zart']",restudy,2,"['Brille', 'Rucksack', 'Telefon', 'Trommel', 'Socke', 'Stift', 'Löffel', 'Uhr', 'Bürste', 'Kamera', 'Schere', 'Buch', 'Eimer', 'Tasse', 'Blume', 'Geige', 'Lampe', 'Würfel', 'Schlüssel', 'Vase', 'Kiste', 'Kerze', 'Fahrrad', 'Flasche', 'Tasche', 'Kette', 'Hut', 'Ring', 'Jacke', 'Hammer']","['groß', 'kurz', 'hohl', 'rustikal', 'flauschig', 'klobig', 'schwer', 'kalt', 'matt', 'schmutzig', 'hübsch', 'blass', 'robust', 'dunkel', 'kaputt', 'zart']",2,1.2294290999416262,None,,,,,,,,,,,,,,,,,,,,,,,,,,,,,,,,,,,,,,,,,,,,,,,,,,,,,,,,,,,,,,,,,2,2023-12-05_10h52.14.970,watkins1,2023.2.3,99.75629539599242,43,2023-12-05 10h52.23.165582 +0000,
,,,,,,,16,0,16,0,,,,,,,,,,,,,,,,,174.67610500007868,,,,,,,,,,,,174.66715670004487,175.1579726000782,,,2,2.6649507998954505,,,,,,,,,,,,,,,,,,,,,175.15798410004936,181.16493250010535,Lampe,nachhaltig,"['Lampe', 'nachhaltig']",test_sub,2,"['Brille', 'Rucksack', 'Telefon', 'Trommel', 'Socke', 'Stift', 'Löffel', 'Uhr', 'Bürste', 'Kamera', 'Schere', 'Buch', 'Eimer', 'Tasse', 'Blume', 'Geige', 'Lampe', 'Würfel', 'Schlüssel', 'Vase', 'Kiste', 'Kerze', 'Fahrrad', 'Flasche', 'Tasche', 'Kette', 'Hut', 'Ring', 'Jacke', 'Hammer']","['groß', 'kurz', 'hohl', 'rustikal', 'flauschig', 'klobig', 'schwer', 'kalt', 'matt', 'schmutzig', 'hübsch', 'blass', 'robust', 'dunkel', 'kaputt', 'zart', 'nachhaltig']",2,2.6649507998954505,None,,,,,,,,,,,,,,,,,,,,,,,,,,,,,,,,,,,,,,,,,,,,,,,,,,,,,,,,,,,,,,,,,2,2023-12-05_10h52.14.970,watkins1,2023.2.3,99.75629539599242,43,2023-12-05 10h52.23.165582 +0000,
,,,,,,,17,0,17,0,,,,,,,,,,,,,,,,,181.17441289988346,,,,,,,,,,,,181.16546469996683,181.65643769991584,,,1,1.1418417999520898,,,,,,,,,,,,,,,,,,,,,181.65644829999655,187.66456250008196,Würfel,sauber,"['Würfel', 'sauber']",test_sub,2,"['Brille', 'Rucksack', 'Telefon', 'Trommel', 'Socke', 'Stift', 'Löffel', 'Uhr', 'Bürste', 'Kamera', 'Schere', 'Buch', 'Eimer', 'Tasse', 'Blume', 'Geige', 'Lampe', 'Würfel', 'Schlüssel', 'Vase', 'Kiste', 'Kerze', 'Fahrrad', 'Flasche', 'Tasche', 'Kette', 'Hut', 'Ring', 'Jacke', 'Hammer']","['groß', 'kurz', 'hohl', 'rustikal', 'flauschig', 'klobig', 'schwer', 'kalt', 'matt', 'schmutzig', 'hübsch', 'blass', 'robust', 'dunkel', 'kaputt', 'zart', 'nachhaltig', 'sauber']",1,1.1418417999520898,None,,,,,,,,,,,,,,,,,,,,,,,,,,,,,,,,,,,,,,,,,,,,,,,,,,,,,,,,,,,,,,,,,2,2023-12-05_10h52.14.970,watkins1,2023.2.3,99.75629539599242,43,2023-12-05 10h52.23.165582 +0000,
,,,,,,,18,0,18,0,,,,,,,,,,,,,,,,,187.6739888000302,,,,,,,,,,,,187.6650886000134,188.1559611998964,,,2,3.0030368000734597,,,,,,,,,,,,,,,,,,,,,188.15597199997865,194.1633647000417,Schlüssel,biegsam,"['Schlüssel', 'biegsam']",restudy,2,"['Brille', 'Rucksack', 'Telefon', 'Trommel', 'Socke', 'Stift', 'Löffel', 'Uhr', 'Bürste', 'Kamera', 'Schere', 'Buch', 'Eimer', 'Tasse', 'Blume', 'Geige', 'Lampe', 'Würfel', 'Schlüssel', 'Vase', 'Kiste', 'Kerze', 'Fahrrad', 'Flasche', 'Tasche', 'Kette', 'Hut', 'Ring', 'Jacke', 'Hammer']","['groß', 'kurz', 'hohl', 'rustikal', 'flauschig', 'klobig', 'schwer', 'kalt', 'matt', 'schmutzig', 'hübsch', 'blass', 'robust', 'dunkel', 'kaputt', 'zart', 'nachhaltig', 'sauber', 'biegsam']",2,3.0030368000734597,None,,,,,,,,,,,,,,,,,,,,,,,,,,,,,,,,,,,,,,,,,,,,,,,,,,,,,,,,,,,,,,,,,2,2023-12-05_10h52.14.970,watkins1,2023.2.3,99.75629539599242,43,2023-12-05 10h52.23.165582 +0000,
,,,,,,,19,0,19,0,,,,,,,,,,,,,,,,,194.17279589991085,,,,,,,,,,,,194.1638956000097,194.65485089994036,,,2,1.6405955001246184,,,,,,,,,,,,,,,,,,,,,194.65486150002107,200.65711449994706,Vase,glatt,"['Vase', 'glatt']",test_sub,2,"['Brille', 'Rucksack', 'Telefon', 'Trommel', 'Socke', 'Stift', 'Löffel', 'Uhr', 'Bürste', 'Kamera', 'Schere', 'Buch', 'Eimer', 'Tasse', 'Blume', 'Geige', 'Lampe', 'Würfel', 'Schlüssel', 'Vase', 'Kiste', 'Kerze', 'Fahrrad', 'Flasche', 'Tasche', 'Kette', 'Hut', 'Ring', 'Jacke', 'Hammer']","['groß', 'kurz', 'hohl', 'rustikal', 'flauschig', 'klobig', 'schwer', 'kalt', 'matt', 'schmutzig', 'hübsch', 'blass', 'robust', 'dunkel', 'kaputt', 'zart', 'nachhaltig', 'sauber', 'biegsam', 'glatt']",2,1.6405955001246184,None,,,,,,,,,,,,,,,,,,,,,,,,,,,,,,,,,,,,,,,,,,,,,,,,,,,,,,,,,,,,,,,,,2,2023-12-05_10h52.14.970,watkins1,2023.2.3,99.75629539599242,43,2023-12-05 10h52.23.165582 +0000,
,,,,,,,20,0,20,0,,,,,,,,,,,,,,,,,200.666528099915,,,,,,,,,,,,200.65766269993037,201.1486961999908,,,2,1.4025337998755276,,,,,,,,,,,,,,,,,,,,,201.14870720007457,207.15293770004064,Kiste,teuer,"['Kiste', 'teuer']",restudy,2,"['Brille', 'Rucksack', 'Telefon', 'Trommel', 'Socke', 'Stift', 'Löffel', 'Uhr', 'Bürste', 'Kamera', 'Schere', 'Buch', 'Eimer', 'Tasse', 'Blume', 'Geige', 'Lampe', 'Würfel', 'Schlüssel', 'Vase', 'Kiste', 'Kerze', 'Fahrrad', 'Flasche', 'Tasche', 'Kette', 'Hut', 'Ring', 'Jacke', 'Hammer']","['groß', 'kurz', 'hohl', 'rustikal', 'flauschig', 'klobig', 'schwer', 'kalt', 'matt', 'schmutzig', 'hübsch', 'blass', 'robust', 'dunkel', 'kaputt', 'zart', 'nachhaltig', 'sauber', 'biegsam', 'glatt', 'teuer']",2,1.4025337998755276,None,,,,,,,,,,,,,,,,,,,,,,,,,,,,,,,,,,,,,,,,,,,,,,,,,,,,,,,,,,,,,,,,,2,2023-12-05_10h52.14.970,watkins1,2023.2.3,99.75629539599242,43,2023-12-05 10h52.23.165582 +0000,
,,,,,,,21,0,21,0,,,,,,,,,,,,,,,,,207.16236669989303,,,,,,,,,,,,207.153461500071,207.64439809997566,,,3,1.2989422001410276,,,,,,,,,,,,,,,,,,,,,207.6444085999392,213.65227820002474,Kerze,dick,"['Kerze', 'dick']",test_sub,2,"['Brille', 'Rucksack', 'Telefon', 'Trommel', 'Socke', 'Stift', 'Löffel', 'Uhr', 'Bürste', 'Kamera', 'Schere', 'Buch', 'Eimer', 'Tasse', 'Blume', 'Geige', 'Lampe', 'Würfel', 'Schlüssel', 'Vase', 'Kiste', 'Kerze', 'Fahrrad', 'Flasche', 'Tasche', 'Kette', 'Hut', 'Ring', 'Jacke', 'Hammer']","['groß', 'kurz', 'hohl', 'rustikal', 'flauschig', 'klobig', 'schwer', 'kalt', 'matt', 'schmutzig', 'hübsch', 'blass', 'robust', 'dunkel', 'kaputt', 'zart', 'nachhaltig', 'sauber', 'biegsam', 'glatt', 'teuer', 'dick']",3,1.2989422001410276,None,,,,,,,,,,,,,,,,,,,,,,,,,,,,,,,,,,,,,,,,,,,,,,,,,,,,,,,,,,,,,,,,,2,2023-12-05_10h52.14.970,watkins1,2023.2.3,99.75629539599242,43,2023-12-05 10h52.23.165582 +0000,
,,,,,,,22,0,22,0,,,,,,,,,,,,,,,,,213.66164540010504,,,,,,,,,,,,213.65280860010535,214.14399509993382,,,1,1.1107115999329835,,,,,,,,,,,,,,,,,,,,,214.14400559989735,220.14846020005643,Fahrrad,flach,"['Fahrrad', 'flach']",restudy,2,"['Brille', 'Rucksack', 'Telefon', 'Trommel', 'Socke', 'Stift', 'Löffel', 'Uhr', 'Bürste', 'Kamera', 'Schere', 'Buch', 'Eimer', 'Tasse', 'Blume', 'Geige', 'Lampe', 'Würfel', 'Schlüssel', 'Vase', 'Kiste', 'Kerze', 'Fahrrad', 'Flasche', 'Tasche', 'Kette', 'Hut', 'Ring', 'Jacke', 'Hammer']","['groß', 'kurz', 'hohl', 'rustikal', 'flauschig', 'klobig', 'schwer', 'kalt', 'matt', 'schmutzig', 'hübsch', 'blass', 'robust', 'dunkel', 'kaputt', 'zart', 'nachhaltig', 'sauber', 'biegsam', 'glatt', 'teuer', 'dick', 'flach']",1,1.1107115999329835,None,,,,,,,,,,,,,,,,,,,,,,,,,,,,,,,,,,,,,,,,,,,,,,,,,,,,,,,,,,,,,,,,,2,2023-12-05_10h52.14.970,watkins1,2023.2.3,99.75629539599242,43,2023-12-05 10h52.23.165582 +0000,
,,,,,,,23,0,23,0,,,,,,,,,,,,,,,,,220.1578712000046,,,,,,,,,,,,220.14898870000616,220.6400051000528,,,2,1.7352253999561071,,,,,,,,,,,,,,,,,,,,,220.6400160000194,226.64643459999934,Flasche,lang,"['Flasche', 'lang']",restudy,2,"['Brille', 'Rucksack', 'Telefon', 'Trommel', 'Socke', 'Stift', 'Löffel', 'Uhr', 'Bürste', 'Kamera', 'Schere', 'Buch', 'Eimer', 'Tasse', 'Blume', 'Geige', 'Lampe', 'Würfel', 'Schlüssel', 'Vase', 'Kiste', 'Kerze', 'Fahrrad', 'Flasche', 'Tasche', 'Kette', 'Hut', 'Ring', 'Jacke', 'Hammer']","['groß', 'kurz', 'hohl', 'rustikal', 'flauschig', 'klobig', 'schwer', 'kalt', 'matt', 'schmutzig', 'hübsch', 'blass', 'robust', 'dunkel', 'kaputt', 'zart', 'nachhaltig', 'sauber', 'biegsam', 'glatt', 'teuer', 'dick', 'flach', 'lang']",2,1.7352253999561071,None,,,,,,,,,,,,,,,,,,,,,,,,,,,,,,,,,,,,,,,,,,,,,,,,,,,,,,,,,,,,,,,,,2,2023-12-05_10h52.14.970,watkins1,2023.2.3,99.75629539599242,43,2023-12-05 10h52.23.165582 +0000,
,,,,,,,24,0,24,0,,,,,,,,,,,,,,,,,226.6558089000173,,,,,,,,,,,,226.64696340006776,227.13786670006812,,,1,1.829198099905625,,,,,,,,,,,,,,,,,,,,,227.1378776000347,233.14641669997945,Tasche,kratzig,"['Tasche', 'kratzig']",test_sub,2,"['Brille', 'Rucksack', 'Telefon', 'Trommel', 'Socke', 'Stift', 'Löffel', 'Uhr', 'Bürste', 'Kamera', 'Schere', 'Buch', 'Eimer', 'Tasse', 'Blume', 'Geige', 'Lampe', 'Würfel', 'Schlüssel', 'Vase', 'Kiste', 'Kerze', 'Fahrrad', 'Flasche', 'Tasche', 'Kette', 'Hut', 'Ring', 'Jacke', 'Hammer']","['groß', 'kurz', 'hohl', 'rustikal', 'flauschig', 'klobig', 'schwer', 'kalt', 'matt', 'schmutzig', 'hübsch', 'blass', 'robust', 'dunkel', 'kaputt', 'zart', 'nachhaltig', 'sauber', 'biegsam', 'glatt', 'teuer', 'dick', 'flach', 'lang', 'kratzig']",1,1.829198099905625,None,,,,,,,,,,,,,,,,,,,,,,,,,,,,,,,,,,,,,,,,,,,,,,,,,,,,,,,,,,,,,,,,,2,2023-12-05_10h52.14.970,watkins1,2023.2.3,99.75629539599242,43,2023-12-05 10h52.23.165582 +0000,
,,,,,,,25,0,25,0,,,,,,,,,,,,,,,,,233.1558010999579,,,,,,,,,,,,233.14694839995354,233.63826579996385,,,3,1.2092279000207782,,,,,,,,,,,,,,,,,,,,,233.63827669993043,239.64718129998073,Kette,neu,"['Kette', 'neu']",restudy,2,"['Brille', 'Rucksack', 'Telefon', 'Trommel', 'Socke', 'Stift', 'Löffel', 'Uhr', 'Bürste', 'Kamera', 'Schere', 'Buch', 'Eimer', 'Tasse', 'Blume', 'Geige', 'Lampe', 'Würfel', 'Schlüssel', 'Vase', 'Kiste', 'Kerze', 'Fahrrad', 'Flasche', 'Tasche', 'Kette', 'Hut', 'Ring', 'Jacke', 'Hammer']","['groß', 'kurz', 'hohl', 'rustikal', 'flauschig', 'klobig', 'schwer', 'kalt', 'matt', 'schmutzig', 'hübsch', 'blass', 'robust', 'dunkel', 'kaputt', 'zart', 'nachhaltig', 'sauber', 'biegsam', 'glatt', 'teuer', 'dick', 'flach', 'lang', 'kratzig', 'neu']",3,1.2092279000207782,None,,,,,,,,,,,,,,,,,,,,,,,,,,,,,,,,,,,,,,,,,,,,,,,,,,,,,,,,,,,,,,,,,2,2023-12-05_10h52.14.970,watkins1,2023.2.3,99.75629539599242,43,2023-12-05 10h52.23.165582 +0000,
,,,,,,,26,0,26,0,,,,,,,,,,,,,,,,,239.65654450003058,,,,,,,,,,,,239.64771550009027,240.13868630002253,,,3,1.1868471000343561,,,,,,,,,,,,,,,,,,,,,240.1386975001078,246.1448029000312,Hut,gepunktet,"['Hut', 'gepunktet']",test_sub,2,"['Brille', 'Rucksack', 'Telefon', 'Trommel', 'Socke', 'Stift', 'Löffel', 'Uhr', 'Bürste', 'Kamera', 'Schere', 'Buch', 'Eimer', 'Tasse', 'Blume', 'Geige', 'Lampe', 'Würfel', 'Schlüssel', 'Vase', 'Kiste', 'Kerze', 'Fahrrad', 'Flasche', 'Tasche', 'Kette', 'Hut', 'Ring', 'Jacke', 'Hammer']","['groß', 'kurz', 'hohl', 'rustikal', 'flauschig', 'klobig', 'schwer', 'kalt', 'matt', 'schmutzig', 'hübsch', 'blass', 'robust', 'dunkel', 'kaputt', 'zart', 'nachhaltig', 'sauber', 'biegsam', 'glatt', 'teuer', 'dick', 'flach', 'lang', 'kratzig', 'neu', 'gepunktet']",3,1.1868471000343561,None,,,,,,,,,,,,,,,,,,,,,,,,,,,,,,,,,,,,,,,,,,,,,,,,,,,,,,,,,,,,,,,,,2,2023-12-05_10h52.14.970,watkins1,2023.2.3,99.75629539599242,43,2023-12-05 10h52.23.165582 +0000,
,,,,,,,27,0,27,0,,,,,,,,,,,,,,,,,246.15417309990153,,,,,,,,,,,,246.14532570005395,246.63601689995266,,,1,1.3310365001671016,,,,,,,,,,,,,,,,,,,,,246.63602730003186,252.6414272999391,Ring,durchsichtig,"['Ring', 'durchsichtig']",test_sub,2,"['Brille', 'Rucksack', 'Telefon', 'Trommel', 'Socke', 'Stift', 'Löffel', 'Uhr', 'Bürste', 'Kamera', 'Schere', 'Buch', 'Eimer', 'Tasse', 'Blume', 'Geige', 'Lampe', 'Würfel', 'Schlüssel', 'Vase', 'Kiste', 'Kerze', 'Fahrrad', 'Flasche', 'Tasche', 'Kette', 'Hut', 'Ring', 'Jacke', 'Hammer']","['groß', 'kurz', 'hohl', 'rustikal', 'flauschig', 'klobig', 'schwer', 'kalt', 'matt', 'schmutzig', 'hübsch', 'blass', 'robust', 'dunkel', 'kaputt', 'zart', 'nachhaltig', 'sauber', 'biegsam', 'glatt', 'teuer', 'dick', 'flach', 'lang', 'kratzig', 'neu', 'gepunktet', 'durchsichtig']",1,1.3310365001671016,None,,,,,,,,,,,,,,,,,,,,,,,,,,,,,,,,,,,,,,,,,,,,,,,,,,,,,,,,,,,,,,,,,2,2023-12-05_10h52.14.970,watkins1,2023.2.3,99.75629539599242,43,2023-12-05 10h52.23.165582 +0000,
,,,,,,,28,0,28,0,,,,,,,,,,,,,,,,,252.65079519990832,,,,,,,,,,,,252.6419524999801,253.13278679992072,,,2,1.4732618001289666,,,,,,,,,,,,,,,,,,,,,253.1327971999999,259.13496370008215,Jacke,praktisch,"['Jacke', 'praktisch']",restudy,2,"['Brille', 'Rucksack', 'Telefon', 'Trommel', 'Socke', 'Stift', 'Löffel', 'Uhr', 'Bürste', 'Kamera', 'Schere', 'Buch', 'Eimer', 'Tasse', 'Blume', 'Geige', 'Lampe', 'Würfel', 'Schlüssel', 'Vase', 'Kiste', 'Kerze', 'Fahrrad', 'Flasche', 'Tasche', 'Kette', 'Hut', 'Ring', 'Jacke', 'Hammer']","['groß', 'kurz', 'hohl', 'rustikal', 'flauschig', 'klobig', 'schwer', 'kalt', 'matt', 'schmutzig', 'hübsch', 'blass', 'robust', 'dunkel', 'kaputt', 'zart', 'nachhaltig', 'sauber', 'biegsam', 'glatt', 'teuer', 'dick', 'flach', 'lang', 'kratzig', 'neu', 'gepunktet', 'durchsichtig', 'praktisch']",2,1.4732618001289666,None,,,,,,,,,,,,,,,,,,,,,,,,,,,,,,,,,,,,,,,,,,,,,,,,,,,,,,,,,,,,,,,,,2,2023-12-05_10h52.14.970,watkins1,2023.2.3,99.75629539599242,43,2023-12-05 10h52.23.165582 +0000,
,,,,,,,29,0,29,0,,,,,,,,,,,,,,,,,259.14450190006755,,,,,,,,,,,,259.1354970000684,259.6263095999602,,,1,1.1328435000032187,,,,,,,,,,,,,,,,,,,,,259.6263200000394,265.6281455999706,Hammer,lustig,"['Hammer', 'lustig']",test_sub,2,"['Brille', 'Rucksack', 'Telefon', 'Trommel', 'Socke', 'Stift', 'Löffel', 'Uhr', 'Bürste', 'Kamera', 'Schere', 'Buch', 'Eimer', 'Tasse', 'Blume', 'Geige', 'Lampe', 'Würfel', 'Schlüssel', 'Vase', 'Kiste', 'Kerze', 'Fahrrad', 'Flasche', 'Tasche', 'Kette', 'Hut', 'Ring', 'Jacke', 'Hammer']","['groß', 'kurz', 'hohl', 'rustikal', 'flauschig', 'klobig', 'schwer', 'kalt', 'matt', 'schmutzig', 'hübsch', 'blass', 'robust', 'dunkel', 'kaputt', 'zart', 'nachhaltig', 'sauber', 'biegsam', 'glatt', 'teuer', 'dick', 'flach', 'lang', 'kratzig', 'neu', 'gepunktet', 'durchsichtig', 'praktisch', 'lustig']",1,1.1328435000032187,None,,,,,,,,,,,,,,,,,,,,,,,,,,,,,,,,,,,,,,,,,,,,,,,,,,,,,,,,,,,,,,,,,2,2023-12-05_10h52.14.970,watkins1,2023.2.3,99.75629539599242,43,2023-12-05 10h52.23.165582 +0000,
,,,,,,,,,,,0,0,0,0,,,,,,,,,,,,,265.63752170000225,,,,,,,,,,,,265.62900519999675,266.11956980009563,,,[],[],,,,,,,,,,,,None,None,,,,,,,,,,Kiste,teuer,"['Kiste', 'teuer']",restudy,2,,,,,,265.62893019989133,265.62897780002095,"['Kiste', 'Tasse', 'Buch', 'Stift', 'Blume', 'Eimer', 'Flasche', 'Vase', 'Schlüssel', 'Trommel', 'Jacke', 'Hammer', 'Kamera', 'Schere', 'Ring', 'Kerze', 'Lampe', 'Telefon', 'Kette', 'Socke', 'Hut', 'Fahrrad', 'Würfel', 'Rucksack', 'Brille', 'Geige', 'Bürste', 'Uhr', 'Löffel', 'Tasche']",266.11958110006526,266.12239779997617,None,266.12258019996807,272.12989749992266,2,2.027975499862805,None,272.13032309990376,272.1332501000725,None,272.13341060001403,272.1345834999811,272.13459550007246,272.1357629999984,,,,,,,,,,,,,,,,,,,,,,,,,,,,,,,,,,,,,,,,,,,,,,,2,2023-12-05_10h52.14.970,watkins1,2023.2.3,99.75629539599242,43,2023-12-05 10h52.23.165582 +0000,
,,,,,,,,,,,1,0,1,0,,,,,,,,,,,,,272.13932480011135,,,,,,,,,,,,272.1360512999818,272.63130549993366,,,[],[],,,,,,,,,,,,None,None,,,,,,,,,,Tasse,dunkel,"['Tasse', 'dunkel']",restudy,2,,,,,,272.13598520006053,272.13602390000597,"['Kiste', 'Tasse', 'Buch', 'Stift', 'Blume', 'Eimer', 'Flasche', 'Vase', 'Schlüssel', 'Trommel', 'Jacke', 'Hammer', 'Kamera', 'Schere', 'Ring', 'Kerze', 'Lampe', 'Telefon', 'Kette', 'Socke', 'Hut', 'Fahrrad', 'Würfel', 'Rucksack', 'Brille', 'Geige', 'Bürste', 'Uhr', 'Löffel', 'Tasche']",272.63131770002656,272.63419159990735,None,272.634320900077,278.6355510998983,3,1.7327359998598695,None,278.6358465999365,278.6384862998966,None,278.6385953000281,278.6397426999174,278.6397543998901,278.6409368000459,,,,,,,,,,,,,,,,,,,,,,,,,,,,,,,,,,,,,,,,,,,,,,,2,2023-12-05_10h52.14.970,watkins1,2023.2.3,99.75629539599242,43,2023-12-05 10h52.23.165582 +0000,
,,,,,,,,,,,2,0,2,0,,,,,,,,,,,,,278.64494300005026,,,,,,,,,,,,278.6412217998877,279.1370145000983,,,[],[],,,,,,,,,,,,1.6060493998229504,None,,,,,Blässe,,,,,Buch,blass,"['Buch', 'blass']",test_sub,2,,,,,,278.64115649997257,278.64119410002604,"['Kiste', 'Tasse', 'Buch', 'Stift', 'Blume', 'Eimer', 'Flasche', 'Vase', 'Schlüssel', 'Trommel', 'Jacke', 'Hammer', 'Kamera', 'Schere', 'Ring', 'Kerze', 'Lampe', 'Telefon', 'Kette', 'Socke', 'Hut', 'Fahrrad', 'Würfel', 'Rucksack', 'Brille', 'Geige', 'Bürste', 'Uhr', 'Löffel', 'Tasche']",279.13702580006793,279.1396582000889,None,279.13978579989634,279.1412748999428,None,,,279.14138599997386,279.1427122000605,None,279.1428211000748,279.1438708999194,279.1438833998982,285.1482063999865,0,,,,,,,,,,,,,,,,,,,,,,,,,,,,,,,,,,,,,,,,,,,,,,2,2023-12-05_10h52.14.970,watkins1,2023.2.3,99.75629539599242,43,2023-12-05 10h52.23.165582 +0000,
,,,,,,,,,,,3,0,3,0,,,,,,,,,,,,,285.1580767999403,,,,,,,,,,,,285.1484964999836,285.64021319989115,,,[],[],,,,,,,,,,,,1.1366604000795633,None,,,,,Kloben,,,,,Stift,klobig,"['Stift', 'klobig']",test_sub,2,,,,,,285.1484294999391,285.14846709999256,"['Kiste', 'Tasse', 'Buch', 'Stift', 'Blume', 'Eimer', 'Flasche', 'Vase', 'Schlüssel', 'Trommel', 'Jacke', 'Hammer', 'Kamera', 'Schere', 'Ring', 'Kerze', 'Lampe', 'Telefon', 'Kette', 'Socke', 'Hut', 'Fahrrad', 'Würfel', 'Rucksack', 'Brille', 'Geige', 'Bürste', 'Uhr', 'Löffel', 'Tasche']",285.64022410009056,285.6429377000313,None,285.6430641000625,285.6456085999962,None,,,285.6457191000227,285.6483867999632,None,285.6484964999836,285.64968260005116,285.64969499991275,291.6565666999668,0,,,,,,,,,,,,,,,,,,,,,,,,,,,,,,,,,,,,,,,,,,,,,,2,2023-12-05_10h52.14.970,watkins1,2023.2.3,99.75629539599242,43,2023-12-05 10h52.23.165582 +0000,
,,,,,,,,,,,4,0,4,0,,,,,,,,,,,,,291.66646130010486,,,,,,,,,,,,291.65685039991513,292.148364600027,,,[],[],,,,,,,,,,,,1.2968252999708056,None,,,,,Kaputtheit,,,,,Blume,kaputt,"['Blume', 'kaputt']",test_sub,2,,,,,,291.65678229997866,291.6568213000428,"['Kiste', 'Tasse', 'Buch', 'Stift', 'Blume', 'Eimer', 'Flasche', 'Vase', 'Schlüssel', 'Trommel', 'Jacke', 'Hammer', 'Kamera', 'Schere', 'Ring', 'Kerze', 'Lampe', 'Telefon', 'Kette', 'Socke', 'Hut', 'Fahrrad', 'Würfel', 'Rucksack', 'Brille', 'Geige', 'Bürste', 'Uhr', 'Löffel', 'Tasche']",292.1483752001077,292.1511939999182,None,292.1513153000269,292.15383030008525,None,,,292.1539392999839,292.1564384000376,None,292.15654610004276,292.1576928999275,292.15770519990474,298.16440719994716,0,,,,,,,,,,,,,,,,,,,,,,,,,,,,,,,,,,,,,,,,,,,,,,2,2023-12-05_10h52.14.970,watkins1,2023.2.3,99.75629539599242,43,2023-12-05 10h52.23.165582 +0000,
,,,,,,,,,,,5,0,5,0,,,,,,,,,,,,,298.1742066000588,,,,,,,,,,,,298.16469649993815,298.6560967999976,,,[],[],,,,,,,,,,,,None,None,,,,,,,,,,Eimer,robust,"['Eimer', 'robust']",restudy,2,,,,,,298.164625500096,298.16466569993645,"['Kiste', 'Tasse', 'Buch', 'Stift', 'Blume', 'Eimer', 'Flasche', 'Vase', 'Schlüssel', 'Trommel', 'Jacke', 'Hammer', 'Kamera', 'Schere', 'Ring', 'Kerze', 'Lampe', 'Telefon', 'Kette', 'Socke', 'Hut', 'Fahrrad', 'Würfel', 'Rucksack', 'Brille', 'Geige', 'Bürste', 'Uhr', 'Löffel', 'Tasche']",298.6561084999703,298.65902239992283,None,298.65914970007725,304.6602495999541,3,2.0918267001397908,None,304.66055659996346,304.6633260999806,None,304.66343989991583,304.6646008999087,304.6646124001127,304.6661445000209,,,,,,,,,,,,,,,,,,,,,,,,,,,,,,,,,,,,,,,,,,,,,,,2,2023-12-05_10h52.14.970,watkins1,2023.2.3,99.75629539599242,43,2023-12-05 10h52.23.165582 +0000,
,,,,,,,,,,,6,0,6,0,,,,,,,,,,,,,304.6697358000092,,,,,,,,,,,,304.66643110010773,305.1618162000086,,,[],[],,,,,,,,,,,,None,None,,,,,,,,,,Flasche,lang,"['Flasche', 'lang']",restudy,2,,,,,,304.6663637000602,304.6664018998854,"['Kiste', 'Tasse', 'Buch', 'Stift', 'Blume', 'Eimer', 'Flasche', 'Vase', 'Schlüssel', 'Trommel', 'Jacke', 'Hammer', 'Kamera', 'Schere', 'Ring', 'Kerze', 'Lampe', 'Telefon', 'Kette', 'Socke', 'Hut', 'Fahrrad', 'Würfel', 'Rucksack', 'Brille', 'Geige', 'Bürste', 'Uhr', 'Löffel', 'Tasche']",305.16182700009085,305.16487400000915,None,305.16499789990485,311.1737432999071,2,1.5064385998994112,None,311.17404820001684,311.17671880009584,None,311.17682969989255,311.1780403999146,311.17805200000294,311.1791109999176,,,,,,,,,,,,,,,,,,,,,,,,,,,,,,,,,,,,,,,,,,,,,,,2,2023-12-05_10h52.14.970,watkins1,2023.2.3,99.75629539599242,43,2023-12-05 10h52.23.165582 +0000,
,,,,,,,,,,,7,0,7,0,,,,,,,,,,,,,311.183260000078,,,,,,,,,,,,311.1793955999892,311.67541759996675,,,[],[],,,,,,,,,,,,1.333491199882701,None,,,,,Glätte,,,,,Vase,glatt,"['Vase', 'glatt']",test_sub,2,,,,,,311.17932899994776,311.17936780001037,"['Kiste', 'Tasse', 'Buch', 'Stift', 'Blume', 'Eimer', 'Flasche', 'Vase', 'Schlüssel', 'Trommel', 'Jacke', 'Hammer', 'Kamera', 'Schere', 'Ring', 'Kerze', 'Lampe', 'Telefon', 'Kette', 'Socke', 'Hut', 'Fahrrad', 'Würfel', 'Rucksack', 'Brille', 'Geige', 'Bürste', 'Uhr', 'Löffel', 'Tasche']",311.67542820004746,311.6778619000688,None,311.6779849999584,311.67932119988836,None,,,311.6794282000046,311.68076450005174,None,311.6808716999367,311.6819223999046,311.68193509988487,317.6846715998836,0,,,,,,,,,,,,,,,,,,,,,,,,,,,,,,,,,,,,,,,,,,,,,,2,2023-12-05_10h52.14.970,watkins1,2023.2.3,99.75629539599242,43,2023-12-05 10h52.23.165582 +0000,
,,,,,,,,,,,8,0,8,0,,,,,,,,,,,,,317.6944718998857,,,,,,,,,,,,317.68495450005867,318.17658319999464,,,[],[],,,,,,,,,,,,None,None,,,,,,,,,,Schlüssel,biegsam,"['Schlüssel', 'biegsam']",restudy,2,,,,,,317.68488750001416,317.6849253999535,"['Kiste', 'Tasse', 'Buch', 'Stift', 'Blume', 'Eimer', 'Flasche', 'Vase', 'Schlüssel', 'Trommel', 'Jacke', 'Hammer', 'Kamera', 'Schere', 'Ring', 'Kerze', 'Lampe', 'Telefon', 'Kette', 'Socke', 'Hut', 'Fahrrad', 'Würfel', 'Rucksack', 'Brille', 'Geige', 'Bürste', 'Uhr', 'Löffel', 'Tasche']",318.1765938999597,318.1793806999922,None,318.1795038001146,324.180575999897,1,1.9314250000752509,None,324.1808710000478,324.18376439996064,None,324.18387870001607,324.18512209993787,324.185133599909,324.1866429001093,,,,,,,,,,,,,,,,,,,,,,,,,,,,,,,,,,,,,,,,,,,,,,,2,2023-12-05_10h52.14.970,watkins1,2023.2.3,99.75629539599242,43,2023-12-05 10h52.23.165582 +0000,
,,,,,,,,,,,9,0,9,0,,,,,,,,,,,,,324.1900072998833,,,,,,,,,,,,324.18692580005154,324.6818262001034,,,[],[],,,,,,,,,,,,1.1741037000901997,None,,,,,Rustik,,,,,Trommel,rustikal,"['Trommel', 'rustikal']",test_sub,2,,,,,,324.18686029990204,324.1868988999631,"['Kiste', 'Tasse', 'Buch', 'Stift', 'Blume', 'Eimer', 'Flasche', 'Vase', 'Schlüssel', 'Trommel', 'Jacke', 'Hammer', 'Kamera', 'Schere', 'Ring', 'Kerze', 'Lampe', 'Telefon', 'Kette', 'Socke', 'Hut', 'Fahrrad', 'Würfel', 'Rucksack', 'Brille', 'Geige', 'Bürste', 'Uhr', 'Löffel', 'Tasche']",324.68183710006997,324.68462539999746,None,324.6847486998886,324.68624920002185,None,,,324.68635890004225,324.6878619999625,None,324.68797129997984,324.68919429997914,324.6892067999579,330.6947534000501,0,,,,,,,,,,,,,,,,,,,,,,,,,,,,,,,,,,,,,,,,,,,,,,2,2023-12-05_10h52.14.970,watkins1,2023.2.3,99.75629539599242,43,2023-12-05 10h52.23.165582 +0000,
,,,,,,,,,,,10,0,10,0,,,,,,,,,,,,,330.70453849993646,,,,,,,,,,,,330.6950371998828,331.1865379998926,,,[],[],,,,,,,,,,,,None,None,,,,,,,,,,Jacke,praktisch,"['Jacke', 'praktisch']",restudy,2,,,,,,330.69496929994784,330.6950073998887,"['Kiste', 'Tasse', 'Buch', 'Stift', 'Blume', 'Eimer', 'Flasche', 'Vase', 'Schlüssel', 'Trommel', 'Jacke', 'Hammer', 'Kamera', 'Schere', 'Ring', 'Kerze', 'Lampe', 'Telefon', 'Kette', 'Socke', 'Hut', 'Fahrrad', 'Würfel', 'Rucksack', 'Brille', 'Geige', 'Bürste', 'Uhr', 'Löffel', 'Tasche']",331.186548900092,331.18933070008643,None,331.18945479998365,337.1931503000669,2,1.3934559999033809,None,337.1934531999286,337.1962439001072,None,337.1963619000744,337.1975358999334,337.1975473999046,337.19910579989664,,,,,,,,,,,,,,,,,,,,,,,,,,,,,,,,,,,,,,,,,,,,,,,2,2023-12-05_10h52.14.970,watkins1,2023.2.3,99.75629539599242,43,2023-12-05 10h52.23.165582 +0000,
,,,,,,,,,,,11,0,11,0,,,,,,,,,,,,,337.2025635999162,,,,,,,,,,,,337.19939660001546,337.69461299991235,,,[],[],,,,,,,,,,,,1.194567000027746,None,,,,,Lustigkeit,,,,,Hammer,lustig,"['Hammer', 'lustig']",test_sub,2,,,,,,337.1993301999755,337.1993688000366,"['Kiste', 'Tasse', 'Buch', 'Stift', 'Blume', 'Eimer', 'Flasche', 'Vase', 'Schlüssel', 'Trommel', 'Jacke', 'Hammer', 'Kamera', 'Schere', 'Ring', 'Kerze', 'Lampe', 'Telefon', 'Kette', 'Socke', 'Hut', 'Fahrrad', 'Würfel', 'Rucksack', 'Brille', 'Geige', 'Bürste', 'Uhr', 'Löffel', 'Tasche']",337.69462419999763,337.6974361001048,None,337.6975602998864,337.6990203000605,None,,,337.69913009996526,337.70118459989317,None,337.70130189997144,337.7025733999908,337.7025866000913,343.7071650000289,0,,,,,,,,,,,,,,,,,,,,,,,,,,,,,,,,,,,,,,,,,,,,,,2,2023-12-05_10h52.14.970,watkins1,2023.2.3,99.75629539599242,43,2023-12-05 10h52.23.165582 +0000,
,,,,,,,,,,,12,0,12,0,,,,,,,,,,,,,343.71691940003075,,,,,,,,,,,,343.7074537000153,344.19907140010037,,,[],[],,,,,,,,,,,,None,None,,,,,,,,,,Kamera,schmutzig,"['Kamera', 'schmutzig']",restudy,2,,,,,,343.7073858000804,343.7074239999056,"['Kiste', 'Tasse', 'Buch', 'Stift', 'Blume', 'Eimer', 'Flasche', 'Vase', 'Schlüssel', 'Trommel', 'Jacke', 'Hammer', 'Kamera', 'Schere', 'Ring', 'Kerze', 'Lampe', 'Telefon', 'Kette', 'Socke', 'Hut', 'Fahrrad', 'Würfel', 'Rucksack', 'Brille', 'Geige', 'Bürste', 'Uhr', 'Löffel', 'Tasche']",344.19908299995586,344.2018840999808,None,344.20200640009716,350.2066069000866,3,1.1647173999808729,None,350.2068996001035,350.20964320003986,None,350.2097565000877,350.2109433999285,350.2109552999027,350.2125005000271,,,,,,,,,,,,,,,,,,,,,,,,,,,,,,,,,,,,,,,,,,,,,,,2,2023-12-05_10h52.14.970,watkins1,2023.2.3,99.75629539599242,43,2023-12-05 10h52.23.165582 +0000,
,,,,,,,,,,,13,0,13,0,,,,,,,,,,,,,350.21603269991465,,,,,,,,,,,,350.2127825000789,350.7081643000711,,,[],[],,,,,,,,,,,,None,None,,,,,,,,,,Schere,hübsch,"['Schere', 'hübsch']",restudy,2,,,,,,350.21271610003896,350.21275470010005,"['Kiste', 'Tasse', 'Buch', 'Stift', 'Blume', 'Eimer', 'Flasche', 'Vase', 'Schlüssel', 'Trommel', 'Jacke', 'Hammer', 'Kamera', 'Schere', 'Ring', 'Kerze', 'Lampe', 'Telefon', 'Kette', 'Socke', 'Hut', 'Fahrrad', 'Würfel', 'Rucksack', 'Brille', 'Geige', 'Bürste', 'Uhr', 'Löffel', 'Tasche']",350.7081758999266,350.71097470005043,None,350.71109730005264,356.7136981000658,1,1.4561844998970628,None,356.7140025999397,356.71675870008767,None,356.71687150001526,356.7180687999353,356.7180804000236,356.7192689999938,,,,,,,,,,,,,,,,,,,,,,,,,,,,,,,,,,,,,,,,,,,,,,,2,2023-12-05_10h52.14.970,watkins1,2023.2.3,99.75629539599242,43,2023-12-05 10h52.23.165582 +0000,
,,,,,,,,,,,14,0,14,0,,,,,,,,,,,,,356.7231179999653,,,,,,,,,,,,356.7195510000456,357.2152108999435,,,[],[],,,,,,,,,,,,0.9222109001129866,None,,,,,Durchsichtigkeit,,,,,Ring,durchsichtig,"['Ring', 'durchsichtig']",test_sub,2,,,,,,356.71948569989763,356.71952380007133,"['Kiste', 'Tasse', 'Buch', 'Stift', 'Blume', 'Eimer', 'Flasche', 'Vase', 'Schlüssel', 'Trommel', 'Jacke', 'Hammer', 'Kamera', 'Schere', 'Ring', 'Kerze', 'Lampe', 'Telefon', 'Kette', 'Socke', 'Hut', 'Fahrrad', 'Würfel', 'Rucksack', 'Brille', 'Geige', 'Bürste', 'Uhr', 'Löffel', 'Tasche']",357.2152223000303,357.21784509997815,None,357.21797090000473,357.21932079992257,None,,,357.21942800004035,357.2207490999717,None,357.22085830010474,357.22190469992347,357.2219173000194,363.2251579000149,0,,,,,,,,,,,,,,,,,,,,,,,,,,,,,,,,,,,,,,,,,,,,,,2,2023-12-05_10h52.14.970,watkins1,2023.2.3,99.75629539599242,43,2023-12-05 10h52.23.165582 +0000,
,,,,,,,,,,,15,0,15,0,,,,,,,,,,,,,363.2349553001113,,,,,,,,,,,,363.2254409000743,363.717032100074,,,[],[],,,,,,,,,,,,1.0961094999220222,None,,,,,Dicke,,,,,Kerze,dick,"['Kerze', 'dick']",test_sub,2,,,,,,363.22537299990654,363.2254113999661,"['Kiste', 'Tasse', 'Buch', 'Stift', 'Blume', 'Eimer', 'Flasche', 'Vase', 'Schlüssel', 'Trommel', 'Jacke', 'Hammer', 'Kamera', 'Schere', 'Ring', 'Kerze', 'Lampe', 'Telefon', 'Kette', 'Socke', 'Hut', 'Fahrrad', 'Würfel', 'Rucksack', 'Brille', 'Geige', 'Bürste', 'Uhr', 'Löffel', 'Tasche']",363.7170430999249,363.71996559994295,None,363.7200881000608,363.7227346999571,None,,,363.722843100084,363.7254786998965,None,363.72558570001274,363.7267352999188,363.7267475000117,369.7348118000664,0,,,,,,,,,,,,,,,,,,,,,,,,,,,,,,,,,,,,,,,,,,,,,,2,2023-12-05_10h52.14.970,watkins1,2023.2.3,99.75629539599242,43,2023-12-05 10h52.23.165582 +0000,
,,,,,,,,,,,16,0,16,0,,,,,,,,,,,,,369.7445280000102,,,,,,,,,,,,369.73509329999797,370.2268759000581,,,[],[],,,,,,,,,,,,0.8951367000117898,None,,,,,Nachhaltigkeit,,,,,Lampe,nachhaltig,"['Lampe', 'nachhaltig']",test_sub,2,,,,,,369.73502500006,369.7350649998989,"['Kiste', 'Tasse', 'Buch', 'Stift', 'Blume', 'Eimer', 'Flasche', 'Vase', 'Schlüssel', 'Trommel', 'Jacke', 'Hammer', 'Kamera', 'Schere', 'Ring', 'Kerze', 'Lampe', 'Telefon', 'Kette', 'Socke', 'Hut', 'Fahrrad', 'Würfel', 'Rucksack', 'Brille', 'Geige', 'Bürste', 'Uhr', 'Löffel', 'Tasche']",370.22688729991205,370.22945600003004,None,370.22957960003987,370.231954799965,None,,,370.23206109995954,370.2344084000215,None,370.2345177999232,370.2356495000422,370.23566169990227,376.2419735000003,0,,,,,,,,,,,,,,,,,,,,,,,,,,,,,,,,,,,,,,,,,,,,,,2,2023-12-05_10h52.14.970,watkins1,2023.2.3,99.75629539599242,43,2023-12-05 10h52.23.165582 +0000,
,,,,,,,,,,,17,0,17,0,,,,,,,,,,,,,376.2517731001135,,,,,,,,,,,,376.24225979996845,376.7338058000896,,,[],[],,,,,,,,,,,,None,None,,,,,,,,,,Telefon,hohl,"['Telefon', 'hohl']",restudy,2,,,,,,376.24218859989196,376.24223010009155,"['Kiste', 'Tasse', 'Buch', 'Stift', 'Blume', 'Eimer', 'Flasche', 'Vase', 'Schlüssel', 'Trommel', 'Jacke', 'Hammer', 'Kamera', 'Schere', 'Ring', 'Kerze', 'Lampe', 'Telefon', 'Kette', 'Socke', 'Hut', 'Fahrrad', 'Würfel', 'Rucksack', 'Brille', 'Geige', 'Bürste', 'Uhr', 'Löffel', 'Tasche']",376.7338165000547,376.7366351999808,None,376.736757799983,382.7449425999075,1,1.1903794999234378,None,382.74524480011314,382.7478261999786,None,382.74793810001574,382.7491719999816,382.7491838000715,382.75055360002443,,,,,,,,,,,,,,,,,,,,,,,,,,,,,,,,,,,,,,,,,,,,,,,2,2023-12-05_10h52.14.970,watkins1,2023.2.3,99.75629539599242,43,2023-12-05 10h52.23.165582 +0000,
,,,,,,,,,,,18,0,18,0,,,,,,,,,,,,,382.7544551999308,,,,,,,,,,,,382.7508386000991,383.2465369000565,,,[],[],,,,,,,,,,,,None,None,,,,,,,,,,Kette,neu,"['Kette', 'neu']",restudy,2,,,,,,382.7507726000622,382.7508109000046,"['Kiste', 'Tasse', 'Buch', 'Stift', 'Blume', 'Eimer', 'Flasche', 'Vase', 'Schlüssel', 'Trommel', 'Jacke', 'Hammer', 'Kamera', 'Schere', 'Ring', 'Kerze', 'Lampe', 'Telefon', 'Kette', 'Socke', 'Hut', 'Fahrrad', 'Würfel', 'Rucksack', 'Brille', 'Geige', 'Bürste', 'Uhr', 'Löffel', 'Tasche']",383.24654769990593,383.2490854000207,None,383.24920709989965,389.2509596000891,3,1.086060200119391,None,389.2512556000147,389.2537779000122,None,389.2538942999672,389.25506730005145,389.2550790000241,389.256109100068,,,,,,,,,,,,,,,,,,,,,,,,,,,,,,,,,,,,,,,,,,,,,,,2,2023-12-05_10h52.14.970,watkins1,2023.2.3,99.75629539599242,43,2023-12-05 10h52.23.165582 +0000,
,,,,,,,,,,,19,0,19,0,,,,,,,,,,,,,389.2603782999795,,,,,,,,,,,,389.25639220001176,389.75263760006055,,,[],[],,,,,,,,,,,,None,None,,,,,,,,,,Socke,flauschig,"['Socke', 'flauschig']",restudy,2,,,,,,389.25632619997486,389.2563646999188,"['Kiste', 'Tasse', 'Buch', 'Stift', 'Blume', 'Eimer', 'Flasche', 'Vase', 'Schlüssel', 'Trommel', 'Jacke', 'Hammer', 'Kamera', 'Schere', 'Ring', 'Kerze', 'Lampe', 'Telefon', 'Kette', 'Socke', 'Hut', 'Fahrrad', 'Würfel', 'Rucksack', 'Brille', 'Geige', 'Bürste', 'Uhr', 'Löffel', 'Tasche']",389.7526483000256,389.7551583000459,None,389.7552807999309,395.76105630001985,3,1.0437368000857532,None,395.76135869999416,395.76420160010457,None,395.7643170999363,395.76549290004186,395.7655046998989,395.76675989991054,,,,,,,,,,,,,,,,,,,,,,,,,,,,,,,,,,,,,,,,,,,,,,,2,2023-12-05_10h52.14.970,watkins1,2023.2.3,99.75629539599242,43,2023-12-05 10h52.23.165582 +0000,
,,,,,,,,,,,20,0,20,0,,,,,,,,,,,,,395.77043820009567,,,,,,,,,,,,395.7670450999867,396.2627111999318,,,[],[],,,,,,,,,,,,1.0624659000895917,None,,,,,Punkte,,,,,Hut,gepunktet,"['Hut', 'gepunktet']",test_sub,2,,,,,,395.7669784000609,395.7670173998922,"['Kiste', 'Tasse', 'Buch', 'Stift', 'Blume', 'Eimer', 'Flasche', 'Vase', 'Schlüssel', 'Trommel', 'Jacke', 'Hammer', 'Kamera', 'Schere', 'Ring', 'Kerze', 'Lampe', 'Telefon', 'Kette', 'Socke', 'Hut', 'Fahrrad', 'Würfel', 'Rucksack', 'Brille', 'Geige', 'Bürste', 'Uhr', 'Löffel', 'Tasche']",396.26272220001556,396.2653481999878,None,396.2654699999839,396.26677690004,None,,,396.26688540005125,396.2681805999018,None,396.2682888000272,396.26931659993716,396.2693292000331,402.2708807999734,0,,,,,,,,,,,,,,,,,,,,,,,,,,,,,,,,,,,,,,,,,,,,,,2,2023-12-05_10h52.14.970,watkins1,2023.2.3,99.75629539599242,43,2023-12-05 10h52.23.165582 +0000,
,,,,,,,,,,,21,0,21,0,,,,,,,,,,,,,402.28065020008944,,,,,,,,,,,,402.27116160001606,402.76280159992166,,,[],[],,,,,,,,,,,,None,None,,,,,,,,,,Fahrrad,flach,"['Fahrrad', 'flach']",restudy,2,,,,,,402.2710947000887,402.2711326999124,"['Kiste', 'Tasse', 'Buch', 'Stift', 'Blume', 'Eimer', 'Flasche', 'Vase', 'Schlüssel', 'Trommel', 'Jacke', 'Hammer', 'Kamera', 'Schere', 'Ring', 'Kerze', 'Lampe', 'Telefon', 'Kette', 'Socke', 'Hut', 'Fahrrad', 'Würfel', 'Rucksack', 'Brille', 'Geige', 'Bürste', 'Uhr', 'Löffel', 'Tasche']",402.76281249988824,402.76560080004856,None,402.7657230000477,408.7675530000124,1,1.1773771999869496,None,408.7678477000445,408.7705121000763,None,408.7706224999856,408.7718408999499,408.7718521000352,408.7733016998973,,,,,,,,,,,,,,,,,,,,,,,,,,,,,,,,,,,,,,,,,,,,,,,2,2023-12-05_10h52.14.970,watkins1,2023.2.3,99.75629539599242,43,2023-12-05 10h52.23.165582 +0000,
,,,,,,,,,,,22,0,22,0,,,,,,,,,,,,,408.77689419989474,,,,,,,,,,,,408.77357840002514,409.2693316000514,,,[],[],,,,,,,,,,,,0.8931326000019908,None,,,,,Sauberkeit,,,,,Würfel,sauber,"['Würfel', 'sauber']",test_sub,2,,,,,,408.7735144000035,408.77355200005695,"['Kiste', 'Tasse', 'Buch', 'Stift', 'Blume', 'Eimer', 'Flasche', 'Vase', 'Schlüssel', 'Trommel', 'Jacke', 'Hammer', 'Kamera', 'Schere', 'Ring', 'Kerze', 'Lampe', 'Telefon', 'Kette', 'Socke', 'Hut', 'Fahrrad', 'Würfel', 'Rucksack', 'Brille', 'Geige', 'Bürste', 'Uhr', 'Löffel', 'Tasche']",409.2693427000195,409.27199989999644,None,409.2721222001128,409.27355900011025,None,,,409.27366590010934,409.2752771000378,None,409.27538380003534,409.27656510006636,409.27657729992643,415.2809250000864,0,,,,,,,,,,,,,,,,,,,,,,,,,,,,,,,,,,,,,,,,,,,,,,2,2023-12-05_10h52.14.970,watkins1,2023.2.3,99.75629539599242,43,2023-12-05 10h52.23.165582 +0000,
,,,,,,,,,,,23,0,23,0,,,,,,,,,,,,,415.2906855000183,,,,,,,,,,,,415.28120409999974,415.77269609994255,,,[],[],,,,,,,,,,,,1.0259398000780493,None,,,,,Kurzheit,,,,,Rucksack,kurz,"['Rucksack', 'kurz']",test_sub,2,,,,,,415.2811378999613,415.28117579990067,"['Kiste', 'Tasse', 'Buch', 'Stift', 'Blume', 'Eimer', 'Flasche', 'Vase', 'Schlüssel', 'Trommel', 'Jacke', 'Hammer', 'Kamera', 'Schere', 'Ring', 'Kerze', 'Lampe', 'Telefon', 'Kette', 'Socke', 'Hut', 'Fahrrad', 'Würfel', 'Rucksack', 'Brille', 'Geige', 'Bürste', 'Uhr', 'Löffel', 'Tasche']",415.7727069000248,415.77573199989274,None,415.7758579000365,415.77848410001025,None,,,415.77859529992566,415.78121339995414,None,415.78132229996845,415.7826352000702,415.7826479000505,421.78893269994296,0,,,,,,,,,,,,,,,,,,,,,,,,,,,,,,,,,,,,,,,,,,,,,,2,2023-12-05_10h52.14.970,watkins1,2023.2.3,99.75629539599242,43,2023-12-05 10h52.23.165582 +0000,
,,,,,,,,,,,24,0,24,0,,,,,,,,,,,,,421.7987013000529,,,,,,,,,,,,421.78922150004655,422.28084439993836,,,[],[],,,,,,,,,,,,None,None,,,,,,,,,,Brille,groß,"['Brille', 'groß']",restudy,2,,,,,,421.7891518000979,421.789191900054,"['Kiste', 'Tasse', 'Buch', 'Stift', 'Blume', 'Eimer', 'Flasche', 'Vase', 'Schlüssel', 'Trommel', 'Jacke', 'Hammer', 'Kamera', 'Schere', 'Ring', 'Kerze', 'Lampe', 'Telefon', 'Kette', 'Socke', 'Hut', 'Fahrrad', 'Würfel', 'Rucksack', 'Brille', 'Geige', 'Bürste', 'Uhr', 'Löffel', 'Tasche']",422.28085580002517,422.2834226998966,None,422.28354740003124,428.2849369000178,2,1.6917282999493182,None,428.2852294999175,428.2878123000264,None,428.28792500006966,428.28913090005517,428.2891424000263,428.29049320006743,,,,,,,,,,,,,,,,,,,,,,,,,,,,,,,,,,,,,,,,,,,,,,,2,2023-12-05_10h52.14.970,watkins1,2023.2.3,99.75629539599242,43,2023-12-05 10h52.23.165582 +0000,
,,,,,,,,,,,25,0,25,0,,,,,,,,,,,,,428.29435850004666,,,,,,,,,,,,428.2907809999306,428.786300299922,,,[],[],,,,,,,,,,,,None,None,,,,,,,,,,Geige,zart,"['Geige', 'zart']",restudy,2,,,,,,428.29071410000324,428.29075290006585,"['Kiste', 'Tasse', 'Buch', 'Stift', 'Blume', 'Eimer', 'Flasche', 'Vase', 'Schlüssel', 'Trommel', 'Jacke', 'Hammer', 'Kamera', 'Schere', 'Ring', 'Kerze', 'Lampe', 'Telefon', 'Kette', 'Socke', 'Hut', 'Fahrrad', 'Würfel', 'Rucksack', 'Brille', 'Geige', 'Bürste', 'Uhr', 'Löffel', 'Tasche']",428.7863103998825,428.7888237000443,None,428.78894199989736,434.78955040010624,2,1.14632000005804,None,434.7898450999055,434.79238860006444,None,434.7924993999768,434.79365450004116,434.79366609989665,434.7947064000182,,,,,,,,,,,,,,,,,,,,,,,,,,,,,,,,,,,,,,,,,,,,,,,2,2023-12-05_10h52.14.970,watkins1,2023.2.3,99.75629539599242,43,2023-12-05 10h52.23.165582 +0000,
,,,,,,,,,,,26,0,26,0,,,,,,,,,,,,,434.7989755999297,,,,,,,,,,,,434.7949904999696,435.2911437000148,,,[],[],,,,,,,,,,,,None,None,,,,,,,,,,Bürste,matt,"['Bürste', 'matt']",restudy,2,,,,,,434.79492509993725,434.79496340011247,"['Kiste', 'Tasse', 'Buch', 'Stift', 'Blume', 'Eimer', 'Flasche', 'Vase', 'Schlüssel', 'Trommel', 'Jacke', 'Hammer', 'Kamera', 'Schere', 'Ring', 'Kerze', 'Lampe', 'Telefon', 'Kette', 'Socke', 'Hut', 'Fahrrad', 'Würfel', 'Rucksack', 'Brille', 'Geige', 'Bürste', 'Uhr', 'Löffel', 'Tasche']",435.29115439997986,435.29371510003693,None,435.2938391000498,441.2959040000569,2,1.2732470000628382,None,441.2962007999886,441.29877829994075,None,441.2988893999718,441.3000701998826,441.3000815999694,441.3011171000544,,,,,,,,,,,,,,,,,,,,,,,,,,,,,,,,,,,,,,,,,,,,,,,2,2023-12-05_10h52.14.970,watkins1,2023.2.3,99.75629539599242,43,2023-12-05 10h52.23.165582 +0000,
,,,,,,,,,,,27,0,27,0,,,,,,,,,,,,,441.30529149994254,,,,,,,,,,,,441.3013995999936,441.79744049999863,,,[],[],,,,,,,,,,,,0.972123600076884,None,,,,,Kälte,,,,,Uhr,kalt,"['Uhr', 'kalt']",test_sub,2,,,,,,441.30133319995366,441.3013716998976,"['Kiste', 'Tasse', 'Buch', 'Stift', 'Blume', 'Eimer', 'Flasche', 'Vase', 'Schlüssel', 'Trommel', 'Jacke', 'Hammer', 'Kamera', 'Schere', 'Ring', 'Kerze', 'Lampe', 'Telefon', 'Kette', 'Socke', 'Hut', 'Fahrrad', 'Würfel', 'Rucksack', 'Brille', 'Geige', 'Bürste', 'Uhr', 'Löffel', 'Tasche']",441.79745179996826,441.7998695001006,None,441.7999940998852,441.80129049997777,None,,,441.8013981000986,441.80269669997506,None,441.80280800000764,441.80416990001686,441.80418259999715,447.8075405000709,0,,,,,,,,,,,,,,,,,,,,,,,,,,,,,,,,,,,,,,,,,,,,,,2,2023-12-05_10h52.14.970,watkins1,2023.2.3,99.75629539599242,43,2023-12-05 10h52.23.165582 +0000,
,,,,,,,,,,,28,0,28,0,,,,,,,,,,,,,447.81725630001165,,,,,,,,,,,,447.8078213999979,448.2994005999062,,,[],[],,,,,,,,,,,,0.9448077999986708,None,,,,,Schwere,,,,,Löffel,schwer,"['Löffel', 'schwer']",test_sub,2,,,,,,447.8077523999382,447.80779260001145,"['Kiste', 'Tasse', 'Buch', 'Stift', 'Blume', 'Eimer', 'Flasche', 'Vase', 'Schlüssel', 'Trommel', 'Jacke', 'Hammer', 'Kamera', 'Schere', 'Ring', 'Kerze', 'Lampe', 'Telefon', 'Kette', 'Socke', 'Hut', 'Fahrrad', 'Würfel', 'Rucksack', 'Brille', 'Geige', 'Bürste', 'Uhr', 'Löffel', 'Tasche']",448.29941150010563,448.30199759989046,None,448.3021211999003,448.3045367000159,None,,,448.30464680003934,448.30706900008954,None,448.3071781001054,448.30835349997506,448.3083657999523,454.3140783000272,0,,,,,,,,,,,,,,,,,,,,,,,,,,,,,,,,,,,,,,,,,,,,,,2,2023-12-05_10h52.14.970,watkins1,2023.2.3,99.75629539599242,43,2023-12-05 10h52.23.165582 +0000,
,,,,,,,,,,,29,0,29,0,,,,,,,,,,,,,454.3239784000907,,,,,,,,,,,,454.31436090008356,454.8058780001011,,,[],[],,,,,,,,,,,,0.7950194000732154,None,,,,,Kratzigkeit,,,,,Tasche,kratzig,"['Tasche', 'kratzig']",test_sub,2,,,,,,454.3142933999188,454.31433219998144,"['Kiste', 'Tasse', 'Buch', 'Stift', 'Blume', 'Eimer', 'Flasche', 'Vase', 'Schlüssel', 'Trommel', 'Jacke', 'Hammer', 'Kamera', 'Schere', 'Ring', 'Kerze', 'Lampe', 'Telefon', 'Kette', 'Socke', 'Hut', 'Fahrrad', 'Würfel', 'Rucksack', 'Brille', 'Geige', 'Bürste', 'Uhr', 'Löffel', 'Tasche']",454.8058879999444,454.8087583000306,None,454.8088767998852,454.81168509996496,None,,,454.81179559999146,454.8143462999724,None,454.8144570000004,454.8156405999325,454.8156530999113,460.82269240007736,0,,,,,,,,,,,,,,,,,,,,,,,,,,,,,,,,,,,,,,,,,,,,,,2,2023-12-05_10h52.14.970,watkins1,2023.2.3,99.75629539599242,43,2023-12-05 10h52.23.165582 +0000,
,,,,,,,,,,,,,,,,,,,,,,,,,,,,,,,,,,,,,,,,,,,,,,,,,,,,,,,,,,,,,,,,,,,,,,,2,,,,,,,,,,,,,,,,,,,,,,,,,,,,,,,,,,,,,,,,,,,,,,,,,,,,,,,,,,,,,,,,,,,,,,2,2023-12-05_10h52.14.970,watkins1,2023.2.3,99.75629539599242,43,2023-12-05 10h52.23.165582 +0000,
(54 : 6) - 10 = 0 ,Incorrect,button_incorrect,,,,,,,,,,,,,0,0,0,5,,,,,,,,,480.9004303999245,,,,,,,,,,479.85357680008747,480.85736640007235,,,,,['button_incorrect'],"[4.331957600079477, 4.65339250001125]",,,,,,,,,,,,,,,,,,,,,,,,,,distractorTask,2,,,,,,,,,,,,,,,,,,,,,,,,,480.88336009997874,480.9004303999245,485.54174460005015,"[-0.26296296296296295, -0.28888888888888886]","[-0.39537037037037037, -0.3962962962962963]","[1, 1]","[0, 0]","[0, 0]","[4.331957600079477, 4.65339250001125]",['button_incorrect'],485.5424363000784,486.54528840002604,,,,,,,,,,,,,,,,,,,,,,,,,,,,,,,,,,2,2023-12-05_10h52.14.970,watkins1,2023.2.3,99.75629539599242,43,2023-12-05 10h52.23.165582 +0000,
(28 : 7) - 3 = 1 ,Correct,button_correct,,,,,,,,,,,,,0,1,1,0,,,,,,,,,486.55521899997257,,,,,,,,,,,,,,,,['button_correct'],[4.645948099903762],,,,,,,,,,,,,,,,,,,,,,,,,,distractorTask,2,,,,,,,,,,,,,,,,,,,,,,,,,486.5454828001093,486.55521899997257,491.1946705998853,[0.4111111111111111],[-0.38425925925925924],[1],[0],[0],[4.645948099903762],['button_correct'],491.1950550999027,492.19868299993686,,,,,,,,,,,,,,,,,,,,,,,,,,,,,,,,,,2,2023-12-05_10h52.14.970,watkins1,2023.2.3,99.75629539599242,43,2023-12-05 10h52.23.165582 +0000,
(40 : 5) + 8 = 15 ,Incorrect,button_incorrect,,,,,,,,,,,,,0,2,2,7,,,,,,,,,492.20871619996615,,,,,,,,,,,,,,,,['button_incorrect'],[5.8619780000299215],,,,,,,,,,,,,,,,,,,,,,,,,,distractorTask,2,,,,,,,,,,,,,,,,,,,,,,,,,492.19888329994865,492.20871619996615,498.06325119989924,[-0.27870370370370373],[-0.4074074074074074],[1],[0],[0],[5.8619780000299215],['button_incorrect'],498.06364220008254,499.06683219992556,,,,,,,,,,,,,,,,,,,,,,,,,,,,,,,,,,2,2023-12-05_10h52.14.970,watkins1,2023.2.3,99.75629539599242,43,2023-12-05 10h52.23.165582 +0000,
(7 x 6) + 9 = 48 ,Incorrect,button_incorrect,,,,,,,,,,,,,0,3,3,9,,,,,,,,,499.07682380010374,,,,,,,,,,,,,,,,['button_incorrect'],[2.858684199862182],,,,,,,,,,,,,,,,,,,,,,,,,,distractorTask,2,,,,,,,,,,,,,,,,,,,,,,,,,499.0670256000012,499.07682380010374,501.92894300003536,[-0.3314814814814815],[-0.3907407407407407],[1],[0],[0],[2.858684199862182],['button_incorrect'],501.92933010007255,502.93236309988424,,,,,,,,,,,,,,,,,,,,,,,,,,,,,,,,,,2,2023-12-05_10h52.14.970,watkins1,2023.2.3,99.75629539599242,43,2023-12-05 10h52.23.165582 +0000,
(6 x 3) + 10 = 27 ,Incorrect,button_incorrect,,,,,,,,,,,,,0,4,4,8,,,,,,,,,502.942317500012,,,,,,,,,,,,,,,,['button_incorrect'],[2.3483733001630753],,,,,,,,,,,,,,,,,,,,,,,,,,distractorTask,2,,,,,,,,,,,,,,,,,,,,,,,,,502.93256049999036,502.942317500012,505.28269560006447,[-0.32685185185185184],[-0.39537037037037037],[1],[0],[0],[2.3483733001630753],['button_incorrect'],505.2830799999647,506.28697600006126,,,,,,,,,,,,,,,,,,,,,,,,,,,,,,,,,,2,2023-12-05_10h52.14.970,watkins1,2023.2.3,99.75629539599242,43,2023-12-05 10h52.23.165582 +0000,
(25 : 5) + 5 = 9 ,Incorrect,button_incorrect,,,,,,,,,,,,,0,5,5,6,,,,,,,,,506.296952100005,,,,,,,,,,,,,,,,['button_incorrect'],[2.18764130002819],,,,,,,,,,,,,,,,,,,,,,,,,,distractorTask,2,,,,,,,,,,,,,,,,,,,,,,,,,506.2871703999117,506.296952100005,508.47652320005,[-0.3148148148148148],[-0.375],[1],[0],[0],[2.18764130002819],['button_incorrect'],508.4769043000415,509.47995009995066,,,,,,,,,,,,,,,,,,,,,,,,,,,,,,,,,,2,2023-12-05_10h52.14.970,watkins1,2023.2.3,99.75629539599242,43,2023-12-05 10h52.23.165582 +0000,
(4 : 2) + 4 = 6 ,Correct,button_correct,,,,,,,,,,,,,0,6,6,1,,,,,,,,,509.4898765999824,,,,,,,,,,,,,,,,['button_correct'],[1.5452215000987053],,,,,,,,,,,,,,,,,,,,,,,,,,distractorTask,2,,,,,,,,,,,,,,,,,,,,,,,,,509.4801439999137,509.4898765999824,511.0270551999565,[0.3296296296296296],[-0.3861111111111111],[1],[0],[0],[1.5452215000987053],['button_correct'],511.02743489993736,512.0306108999066,,,,,,,,,,,,,,,,,,,,,,,,,,,,,,,,,,2,2023-12-05_10h52.14.970,watkins1,2023.2.3,99.75629539599242,43,2023-12-05 10h52.23.165582 +0000,
(2 x 5) + 3 = 13 ,Correct,button_correct,,,,,,,,,,,,,0,7,7,2,,,,,,,,,512.0405790999066,,,,,,,,,,,,,,,,['button_correct'],[1.7758730000350624],,,,,,,,,,,,,,,,,,,,,,,,,,distractorTask,2,,,,,,,,,,,,,,,,,,,,,,,,,512.0308052001055,512.0405790999066,513.8083649999462,[0.36944444444444446],[-0.375],[1],[0],[0],[1.7758730000350624],['button_correct'],513.8087460000534,514.8118271999992,,,,,,,,,,,,,,,,,,,,,,,,,,,,,,,,,,2,2023-12-05_10h52.14.970,watkins1,2023.2.3,99.75629539599242,43,2023-12-05 10h52.23.165582 +0000,
(9 x 5) - 9 = 36 ,Correct,button_correct,,,,,,,,,,,,,0,8,8,4,,,,,,,,,514.8219129999634,,,,,,,,,,,,,,,,['button_correct'],[3.5832926998846233],,,,,,,,,,,,,,,,,,,,,,,,,,distractorTask,2,,,,,,,,,,,,,,,,,,,,,,,,,514.8120238000993,514.8219129999634,518.3970003998838,[0.29907407407407405],[-0.38055555555555554],[1],[0],[0],[3.5832926998846233],['button_correct'],518.3973828000017,519.400323000038,,,,,,,,,,,,,,,,,,,,,,,,,,,,,,,,,,2,2023-12-05_10h52.14.970,watkins1,2023.2.3,99.75629539599242,43,2023-12-05 10h52.23.165582 +0000,
(80 : 10) + 9 = 17 ,Correct,button_correct,,,,,,,,,,,,,0,9,9,3,,,,,,,,,519.4103451000992,,,,,,,,,,,,,,,,['button_correct'],[1.806117800064385],,,,,,,,,,,,,,,,,,,,,,,,,,distractorTask,2,,,,,,,,,,,,,,,,,,,,,,,,,519.4005189000163,519.4103451000992,521.2086062999442,[0.36666666666666664],[-0.38055555555555554],[1],[0],[0],[1.806117800064385],['button_correct'],521.208988300059,522.2121806000359,,,,,,,,,,,,,,,,,,,,,,,,,,,,,,,,,,2,2023-12-05_10h52.14.970,watkins1,2023.2.3,99.75629539599242,43,2023-12-05 10h52.23.165582 +0000,
,,,,,,,,,,,,,,,,,,,,,,,,,,,,,,,,,,,,,,,,,,,,,,,,,,,,,,,,,,,,,,,,,,,,,,,2,,,,,,,,,,,,,,,,,,,,,,,,,,,,,,,,,,,,,,,,,,,,,,,,,,,,,,,,,,,,,,,,,,,,,,2,2023-12-05_10h52.14.970,watkins1,2023.2.3,99.75629539599242,43,2023-12-05 10h52.23.165582 +0000,
,,,,,,,,,,,,,,,,,,,0,0,0,0,,,,,533.4059625000227,,,,,,,,,,,,,,,,Brille,11.373750700149685,,,,,,,,,,,,8.02198849990964,None,,,,,,,,,,,,,freeRecallSub,2,,,,,,,,,,,,,,,,,,,,,,,,,,,,,,,,,,,,,533.3974252000917,533.4059625000227,533.4059625000227,544.7826564998832,return,11.373750700149685,None,Brille,[0.027777777777777776],[0.049074074074074076],[1],[0],[0],[2.358264100039378],[],,,,,,,,,,,,,,,,,,,2,2023-12-05_10h52.14.970,watkins1,2023.2.3,99.75629539599242,43,2023-12-05 10h52.23.165582 +0000,
,,,,,,,,,,,,,,,,,,,1,0,1,0,,,,,544.7951297999825,,,,,,,,,,,,,,,,Fahhrad,4.736581200035289,,,,,,,,,,,,0.6353637999854982,None,,,,,,,,,,,,,freeRecallSub,2,,,,,,,,,,,,,,,,,,,,,,,,,,,,,,,,,,,,,544.7844306000043,544.7951297999825,544.7951297999825,549.5366412000731,return,4.736581200035289,None,Fahhrad,[],[],[],[],[],[],[],,,,,,,,,,,,,,,,,,,2,2023-12-05_10h52.14.970,watkins1,2023.2.3,99.75629539599242,43,2023-12-05 10h52.23.165582 +0000,
,,,,,,,,,,,,,,,,,,,2,0,2,0,,,,,549.5477511000354,,,,,,,,,,,,,,,,Eimer,6.367901700083166,,,,,,,,,,,,0.7236137001309544,None,,,,,,,,,,,,,freeRecallSub,2,,,,,,,,,,,,,,,,,,,,,,,,,,,,,,,,,,,,,549.537900700001,549.5477511000354,549.5477511000354,555.925553200068,return,6.367901700083166,None,Eimer,[],[],[],[],[],[],[],,,,,,,,,,,,,,,,,,,2,2023-12-05_10h52.14.970,watkins1,2023.2.3,99.75629539599242,43,2023-12-05 10h52.23.165582 +0000,
,,,,,,,,,,,,,,,,,,,3,0,3,0,,,,,555.9363851998933,,,,,,,,,,,,,,,,Hund,3.28317299997434,,,,,,,,,,,,0.5721819000318646,None,,,,,,,,,,,,,freeRecallSub,2,,,,,,,,,,,,,,,,,,,,,,,,,,,,,,,,,,,,,555.9267949000932,555.9363851998933,555.9363851998933,559.2203301000409,return,3.28317299997434,None,Hund,[],[],[],[],[],[],[],,,,,,,,,,,,,,,,,,,2,2023-12-05_10h52.14.970,watkins1,2023.2.3,99.75629539599242,43,2023-12-05 10h52.23.165582 +0000,
,,,,,,,,,,,,,,,,,,,4,0,4,0,,,,,559.2314941999502,,,,,,,,,,,,,,,,Katze,1.1401765998452902,,,,,,,,,,,,0.25187189993448555,None,,,,,,,,,,,,,freeRecallSub,2,,,,,,,,,,,,,,,,,,,,,,,,,,,,,,,,,,,,,559.2215722000692,559.2314941999502,559.2314941999502,560.3771156999283,return,1.1401765998452902,None,Katze,[],[],[],[],[],[],[],,,,,,,,,,,,,,,,,,,2,2023-12-05_10h52.14.970,watkins1,2023.2.3,99.75629539599242,43,2023-12-05 10h52.23.165582 +0000,
,,,,,,,,,,,,,,,,,,,5,0,5,0,,,,,560.3885834999382,,,,,,,,,,,,,,,,Kamera,10.487067499896511,,,,,,,,,,,,7.090047300094739,None,,,,,,,,,,,,,freeRecallSub,2,,,,,,,,,,,,,,,,,,,,,,,,,,,,,,,,,,,,,560.3783770999871,560.3885834999382,560.3885834999382,570.8825064001139,return,10.487067499896511,None,Kamera,[],[],[],[],[],[],[],,,,,,,,,,,,,,,,,,,2,2023-12-05_10h52.14.970,watkins1,2023.2.3,99.75629539599242,43,2023-12-05 10h52.23.165582 +0000,
,,,,,,,,,,,,,,,,,,,6,0,6,0,,,,,570.8936358001083,,,,,,,,,,,,,,,,Socken,5.509977399837226,,,,,,,,,,,,4.147454299964011,None,,,,,,,,,,,,,freeRecallSub,2,,,,,,,,,,,,,,,,,,,,,,,,,,,,,,,,,,,,,570.8837351999246,570.8936358001083,570.8936358001083,576.406881300034,return,5.509977399837226,None,Socken,[],[],[],[],[],[],[],,,,,,,,,,,,,,,,,,,2,2023-12-05_10h52.14.970,watkins1,2023.2.3,99.75629539599242,43,2023-12-05 10h52.23.165582 +0000,
,,,,,,,,,,,,,,,,,,,7,0,7,0,,,,,576.4188892999664,,,,,,,,,,,,,,,,Bürste,4.712752599967644,,,,,,,,,,,,2.924560399958864,None,,,,,,,,,,,,,freeRecallSub,2,,,,,,,,,,,,,,,,,,,,,,,,,,,,,,,,,,,,,576.4081272999756,576.4188892999664,576.4188892999664,581.1399930999614,return,4.712752599967644,None,Bürste,[],[],[],[],[],[],[],,,,,,,,,,,,,,,,,,,2,2023-12-05_10h52.14.970,watkins1,2023.2.3,99.75629539599242,43,2023-12-05 10h52.23.165582 +0000,
,,,,,,,,,,,,,,,,,,,8,0,8,0,,,,,581.1520616000053,,,,,,,,,,,,,,,,Flasche,7.427550199907273,,,,,,,,,,,,3.9680665999185294,None,,,,,,,,,,,,,freeRecallSub,2,,,,,,,,,,,,,,,,,,,,,,,,,,,,,,,,,,,,,581.14124180004,581.1520616000053,581.1520616000053,588.5836320999078,return,7.427550199907273,None,Flasche,[],[],[],[],[],[],[],,,,,,,,,,,,,,,,,,,2,2023-12-05_10h52.14.970,watkins1,2023.2.3,99.75629539599242,43,2023-12-05 10h52.23.165582 +0000,
,,,,,,,,,,,,,,,,,,,9,0,9,0,,,,,588.5956470998935,,,,,,,,,,,,,,,,Jacke,11.855889400001615,,,,,,,,,,,,8.587435399880633,None,,,,,,,,,,,,,freeRecallSub,2,,,,,,,,,,,,,,,,,,,,,,,,,,,,,,,,,,,,,588.5848940999713,588.5956470998935,588.5956470998935,600.4564674999565,return,11.855889400001615,None,Jacke,[],[],[],[],[],[],[],,,,,,,,,,,,,,,,,,,2,2023-12-05_10h52.14.970,watkins1,2023.2.3,99.75629539599242,43,2023-12-05 10h52.23.165582 +0000,
,,,,,,,,,,,,,,,,,,,10,0,10,0,,,,,600.4690503999591,,,,,,,,,,,,,,,,Tasche,7.638565000146627,,,,,,,,,,,,4.7027463999111205,None,,,,,,,,,,,,,freeRecallSub,2,,,,,,,,,,,,,,,,,,,,,,,,,,,,,,,,,,,,,600.4577484999318,600.4690503999591,600.4690503999591,608.1128463000059,return,7.638565000146627,None,Tasche,[],[],[],[],[],[],[],,,,,,,,,,,,,,,,,,,2,2023-12-05_10h52.14.970,watkins1,2023.2.3,99.75629539599242,43,2023-12-05 10h52.23.165582 +0000,
,,,,,,,,,,,,,,,,,,,11,0,11,0,,,,,608.1258654000703,,,,,,,,,,,,,,,,,[],,,,,,,,,,,,None,None,,,,,,,,,,,,,freeRecallSub,2,,,,,,,,,,,,,,,,,,,,,,,,,,,,,,,,,,,,,608.114099000115,608.1258654000703,608.1258654000703,620.459060800029,None,,,,[0.35648148148148145],[-0.412962962962963],[1],[0],[0],[12.339773300103843],"['button_continue', 'continue_text']",,,,,,,,,,,,,,,,,,,2,2023-12-05_10h52.14.970,watkins1,2023.2.3,99.75629539599242,43,2023-12-05 10h52.23.165582 +0000,
,,,,,,,,,,,,,,,,,,,,,,,,,,,,,,,,,,,,,,,,,,,,,,,,,,,,,,,,,,,,,,,,,,,,,,,2,,,,,,,,,,,,,,,,,,,,,,,,,,,,,,,,,,,,,,,,,,,,,,,,,,,,,,,,,,,,,,,,,,,,,,2,2023-12-05_10h52.14.970,watkins1,2023.2.3,99.75629539599242,43,2023-12-05 10h52.23.165582 +0000,
,,,,,,,,,,,,,,,,,,,,,,,0,0,0,0,628.9447002001107,,,,,,,,,,,,635.5754549000412,636.0743897000793,,,,6.61882340000011,,,,,,,,,,,,None,None,,,,,,,,,,Löffel,,,cuedRecallAdj,2,,,,,,,,,,,,,,,,,,,,,,,,0,,,,,,,,,,,,,,,,,,,,,,,,,,,,628.9356943001039,628.9447002001107,628.9447002001107,635.5722346000839,schwer,return,6.61882340000011,None,635.5726288000587,635.5819512999151,635.5819512999151,635.5753041999415,,None,,,,,2,2023-12-05_10h52.14.970,watkins1,2023.2.3,99.75629539599242,43,2023-12-05 10h52.23.165582 +0000,
,,,,,,,,,,,,,,,,,,,,,,,1,0,1,0,636.0843370000366,,,,,,,,,,,,639.5316554000601,640.0300745998975,,,,3.439204700058326,,,,,,,,,,,,None,None,,,,,,,,,,Kamera,,,cuedRecallAdj,2,,,,,,,,,,,,,,,,,,,,,,,,0,,,,,,,,,,,,,,,,,,,,,,,,,,,,636.0746398000047,636.0843370000366,636.0843370000366,639.5285815000534,schmutzig,return,3.439204700058326,None,639.528847400099,639.538239199901,639.538239199901,639.531554199988,,None,,,,,2,2023-12-05_10h52.14.970,watkins1,2023.2.3,99.75629539599242,43,2023-12-05 10h52.23.165582 +0000,
,,,,,,,,,,,,,,,,,,,,,,,2,0,2,0,640.0400658000726,,,,,,,,,,,,643.5779915999155,644.0766000000294,,,,3.5314009999856353,,,,,,,,,,,,None,None,,,,,,,,,,Tasse,,,cuedRecallAdj,2,,,,,,,,,,,,,,,,,,,,,,,,0,,,,,,,,,,,,,,,,,,,,,,,,,,,,640.0303211000282,640.0400658000726,640.0400658000726,643.5750112999231,dunkel,return,3.5314009999856353,None,643.5752745000646,643.5845570999663,643.5845570999663,643.5778914999682,,None,,,,,2,2023-12-05_10h52.14.970,watkins1,2023.2.3,99.75629539599242,43,2023-12-05 10h52.23.165582 +0000,
,,,,,,,,,,,,,,,,,,,,,,,3,0,3,0,644.0865410000551,,,,,,,,,,,,646.2083503999747,646.707190199988,,,,2.1089834000449628,,,,,,,,,,,,None,None,,,,,,,,,,Bürste,,,cuedRecallAdj,2,,,,,,,,,,,,,,,,,,,,,,,,0,,,,,,,,,,,,,,,,,,,,,,,,,,,,644.0768494000658,644.0865410000551,644.0865410000551,646.2054453000892,matt,return,2.1089834000449628,None,646.2057105000131,646.2151738998946,646.2151738998946,646.2082495999057,,None,,,,,2,2023-12-05_10h52.14.970,watkins1,2023.2.3,99.75629539599242,43,2023-12-05 10h52.23.165582 +0000,
,,,,,,,,,,,,,,,,,,,,,,,4,0,4,0,646.7170951999724,,,,,,,,,,,,650.4760370999575,650.974683099892,,,,3.750356199918315,,,,,,,,,,,,None,None,,,,,,,,,,Würfel,,,cuedRecallAdj,2,,,,,,,,,,,,,,,,,,,,,,,,0,,,,,,,,,,,,,,,,,,,,,,,,,,,,646.7074337999802,646.7170951999724,646.7170951999724,650.4729595999233,dreckig,return,3.750356199918315,None,650.4732276001014,650.4824840999208,650.4824840999208,650.475935399998,,None,,,,,2,2023-12-05_10h52.14.970,watkins1,2023.2.3,99.75629539599242,43,2023-12-05 10h52.23.165582 +0000,
,,,,,,,,,,,,,,,,,,,,,,,5,0,5,0,650.9846181001049,,,,,,,,,,,,652.4843540999573,652.9831828000024,,,,1.49086879985407,,,,,,,,,,,,None,None,,,,,,,,,,Kette,,,cuedRecallAdj,2,,,,,,,,,,,,,,,,,,,,,,,,0,,,,,,,,,,,,,,,,,,,,,,,,,,,,650.974937299965,650.9846181001049,650.9846181001049,652.4815195999108,neu,return,1.49086879985407,None,652.4817888999823,652.4909842999186,652.4909842999186,652.4842528998852,,None,,,,,2,2023-12-05_10h52.14.970,watkins1,2023.2.3,99.75629539599242,43,2023-12-05 10h52.23.165582 +0000,
,,,,,,,,,,,,,,,,,,,,,,,6,0,6,0,652.9930823000614,,,,,,,,,,,,656.4403913000133,656.9390702999663,,,,3.442374899983406,,,,,,,,,,,,None,None,,,,,,,,,,Schere,,,cuedRecallAdj,2,,,,,,,,,,,,,,,,,,,,,,,,0,,,,,,,,,,,,,,,,,,,,,,,,,,,,652.9834334000479,652.9930823000614,652.9930823000614,656.4373530000448,hübsch,return,3.442374899983406,None,656.4376185999718,656.4470037999563,656.4470037999563,656.4402906000614,,None,,,,,2,2023-12-05_10h52.14.970,watkins1,2023.2.3,99.75629539599242,43,2023-12-05 10h52.23.165582 +0000,
,,,,,,,,,,,,,,,,,,,,,,,7,0,7,0,656.9490177000407,,,,,,,,,,,,659.2917359001003,659.7905935999006,,,,2.33440629998222,,,,,,,,,,,,None,None,,,,,,,,,,Telefon,,,cuedRecallAdj,2,,,,,,,,,,,,,,,,,,,,,,,,0,,,,,,,,,,,,,,,,,,,,,,,,,,,,656.9393166999798,656.9490177000407,656.9490177000407,659.2888374999166,hohl,return,2.33440629998222,None,659.2891005999409,659.2984871000517,659.2984871000517,659.2916349999141,,None,,,,,2,2023-12-05_10h52.14.970,watkins1,2023.2.3,99.75629539599242,43,2023-12-05 10h52.23.165582 +0000,
,,,,,,,,,,,,,,,,,,,,,,,8,0,8,0,659.800544400001,,,,,,,,,,,,663.2679892000742,663.7670402000658,,,,3.4588134998921305,,,,,,,,,,,,None,None,,,,,,,,,,Vase,,,cuedRecallAdj,2,,,,,,,,,,,,,,,,,,,,,,,,0,,,,,,,,,,,,,,,,,,,,,,,,,,,,659.7908346999902,659.800544400001,659.800544400001,663.2651402999181,glatt,return,3.4588134998921305,None,663.2654061000794,663.2746353000402,663.2746353000402,663.2678871001117,,None,,,,,2,2023-12-05_10h52.14.970,watkins1,2023.2.3,99.75629539599242,43,2023-12-05 10h52.23.165582 +0000,
,,,,,,,,,,,,,,,,,,,,,,,9,0,9,0,663.7769496000838,,,,,,,,,,,,668.2384089000989,668.7370923000854,,,,4.4505526998545974,,,,,,,,,,,,None,None,,,,,,,,,,Schlüssel,,,cuedRecallAdj,2,,,,,,,,,,,,,,,,,,,,,,,,0,,,,,,,,,,,,,,,,,,,,,,,,,,,,663.7672840000596,663.7769496000838,663.7769496000838,668.235320799984,biegsam,return,4.4505526998545974,None,668.2355879000388,668.2450431000907,668.2450431000907,668.238306999905,,None,,,,,2,2023-12-05_10h52.14.970,watkins1,2023.2.3,99.75629539599242,43,2023-12-05 10h52.23.165582 +0000,
,,,,,,,,,,,,,,,,,,,,,,,10,0,10,0,668.7470412999392,,,,,,,,,,,,672.4150427998975,672.9142189000268,,,,3.6563840999733657,,,,,,,,,,,,None,None,,,,,,,,,,Uhr,,,cuedRecallAdj,2,,,,,,,,,,,,,,,,,,,,,,,,0,,,,,,,,,,,,,,,,,,,,,,,,,,,,668.7373369000852,668.7470412999392,668.7470412999392,672.4123613000847,kalt,return,3.6563840999733657,None,672.4126248001121,672.422043300001,672.422043300001,672.4149434000719,,None,,,,,2,2023-12-05_10h52.14.970,watkins1,2023.2.3,99.75629539599242,43,2023-12-05 10h52.23.165582 +0000,
,,,,,,,,,,,,,,,,,,,,,,,11,0,11,0,672.9241055999883,,,,,,,,,,,,682.6873651000205,683.1860692999326,,,,9.751325599849224,,,,,,,,,,,,None,None,,,,,,,,,,Lampe,,,cuedRecallAdj,2,,,,,,,,,,,,,,,,,,,,,,,,0,,,,,,,,,,,,,,,,,,,,,,,,,,,,672.9144808999263,672.9241055999883,672.9241055999883,682.6843439999502,groß,return,9.751325599849224,None,682.6846070000902,682.694071700098,682.694071700098,682.6872630999424,,None,,,,,2,2023-12-05_10h52.14.970,watkins1,2023.2.3,99.75629539599242,43,2023-12-05 10h52.23.165582 +0000,
,,,,,,,,,,,,,,,,,,,,,,,12,0,12,0,683.1961153000593,,,,,,,,,,,,687.5576585999224,688.056558500044,,,,4.351267899852246,,,,,,,,,,,,None,None,,,,,,,,,,Kiste,,,cuedRecallAdj,2,,,,,,,,,,,,,,,,,,,,,,,,0,,,,,,,,,,,,,,,,,,,,,,,,,,,,683.1863148000557,683.1961153000593,683.1961153000593,687.5547072999179,teuer,return,4.351267899852246,None,687.5549751000945,687.5644195999485,687.5644195999485,687.5575570999645,,None,,,,,2,2023-12-05_10h52.14.970,watkins1,2023.2.3,99.75629539599242,43,2023-12-05 10h52.23.165582 +0000,
,,,,,,,,,,,,,,,,,,,,,,,13,0,13,0,688.0665017999709,,,,,,,,,,,,693.9539870000444,694.4524058999959,,,,5.880889599910006,,,,,,,,,,,,None,None,,,,,,,,,,Rucksack,,,cuedRecallAdj,2,,,,,,,,,,,,,,,,,,,,,,,,0,,,,,,,,,,,,,,,,,,,,,,,,,,,,688.056805399945,688.0665017999709,688.0665017999709,693.9509276999161,schwer,return,5.880889599910006,None,693.9511945999693,693.9604549000505,693.9604549000505,693.9538841999602,,None,,,,,2,2023-12-05_10h52.14.970,watkins1,2023.2.3,99.75629539599242,43,2023-12-05 10h52.23.165582 +0000,
,,,,,,,,,,,,,,,,,,,,,,,14,0,14,0,694.4623575001024,,,,,,,,,,,,700.3403638999444,700.838918399997,,,,5.869048599852249,,,,,,,,,,,,None,None,,,,,,,,,,Flasche,,,cuedRecallAdj,2,,,,,,,,,,,,,,,,,,,,,,,,0,,,,,,,,,,,,,,,,,,,,,,,,,,,,694.4526561000384,694.4623575001024,694.4623575001024,700.3372899000533,lang,return,5.869048599852249,None,700.3375766000245,700.3467806999106,700.3467806999106,700.3402629001066,,None,,,,,2,2023-12-05_10h52.14.970,watkins1,2023.2.3,99.75629539599242,43,2023-12-05 10h52.23.165582 +0000,
,,,,,,,,,,,,,,,,,,,,,,,15,0,15,0,700.8488725000061,,,,,,,,,,,,707.0075556999072,707.5059523999225,,,,6.154588099801913,,,,,,,,,,,,None,None,,,,,,,,,,Tasche,,,cuedRecallAdj,2,,,,,,,,,,,,,,,,,,,,,,,,0,,,,,,,,,,,,,,,,,,,,,,,,,,,,700.8391569999512,700.8488725000061,700.8488725000061,707.0044311999809,kratzig,return,6.154588099801913,None,707.0046981000341,707.0137742001098,707.0137742001098,707.0074543999508,,None,,,,,2,2023-12-05_10h52.14.970,watkins1,2023.2.3,99.75629539599242,43,2023-12-05 10h52.23.165582 +0000,
,,,,,,,,,,,,,,,,,,,,,,,16,0,16,0,707.5158575999085,,,,,,,,,,,,711.9768103999086,712.4661956001073,,,,4.455429500201717,,,,,,,,,,,,None,None,,,,,,,,,,Hammer,,,cuedRecallAdj,2,,,,,,,,,,,,,,,,,,,,,,,,0,,,,,,,,,,,,,,,,,,,,,,,,,,,,707.5062031000853,707.5158575999085,707.5158575999085,711.97455179994,,return,4.455429500201717,None,711.9748199000023,711.9841529999394,711.9841529999394,711.9767070999369,,None,,,,,2,2023-12-05_10h52.14.970,watkins1,2023.2.3,99.75629539599242,43,2023-12-05 10h52.23.165582 +0000,
,,,,,,,,,,,,,,,,,,,,,,,17,0,17,0,712.4761449999642,,,,,,,,,,,,714.5164516998921,715.0063352999277,,,,2.031308999983594,,,,,,,,,,,,None,None,,,,,,,,,,Buch,,,cuedRecallAdj,2,,,,,,,,,,,,,,,,,,,,,,,,0,,,,,,,,,,,,,,,,,,,,,,,,,,,,712.4664390999824,712.4761449999642,712.4761449999642,714.514659400098,,return,2.031308999983594,None,714.5149234000128,714.5243899000343,714.5243899000343,714.5163507000543,,None,,,,,2,2023-12-05_10h52.14.970,watkins1,2023.2.3,99.75629539599242,43,2023-12-05 10h52.23.165582 +0000,
,,,,,,,,,,,,,,,,,,,,,,,18,0,18,0,715.0162476000842,,,,,,,,,,,,718.1925351999234,718.6912988000549,,,,3.171117499936372,,,,,,,,,,,,None,None,,,,,,,,,,Blume,,,cuedRecallAdj,2,,,,,,,,,,,,,,,,,,,,,,,,0,,,,,,,,,,,,,,,,,,,,,,,,,,,,715.0065794999246,715.0162476000842,715.0162476000842,718.1895743000787,kaputt,return,3.171117499936372,None,718.189837400103,718.1991324999835,718.1991324999835,718.192432800075,,None,,,,,2,2023-12-05_10h52.14.970,watkins1,2023.2.3,99.75629539599242,43,2023-12-05 10h52.23.165582 +0000,
,,,,,,,,,,,,,,,,,,,,,,,19,0,19,0,718.7012493000366,,,,,,,,,,,,722.971822099993,723.4706123999786,,,,4.262079800013453,,,,,,,,,,,,None,None,,,,,,,,,,Ring,,,cuedRecallAdj,2,,,,,,,,,,,,,,,,,,,,,,,,0,,,,,,,,,,,,,,,,,,,,,,,,,,,,718.6915470999666,718.7012493000366,718.7012493000366,722.9688031000551,durchsichtig,return,4.262079800013453,None,722.9690652999561,722.9784484000411,722.9784484000411,722.9717204999179,,None,,,,,2,2023-12-05_10h52.14.970,watkins1,2023.2.3,99.75629539599242,43,2023-12-05 10h52.23.165582 +0000,
,,,,,,,,,,,,,,,,,,,,,,,20,0,20,0,723.4805576000363,,,,,,,,,,,,725.4813443000894,725.9706840999424,,,,1.9947762000374496,,,,,,,,,,,,None,None,,,,,,,,,,Trommel,,,cuedRecallAdj,2,,,,,,,,,,,,,,,,,,,,,,,,0,,,,,,,,,,,,,,,,,,,,,,,,,,,,723.4708525000606,723.4805576000363,723.4805576000363,725.4790753999259,,return,1.9947762000374496,None,725.4793418000918,725.4886177999433,725.4886177999433,725.4812437000219,,None,,,,,2,2023-12-05_10h52.14.970,watkins1,2023.2.3,99.75629539599242,43,2023-12-05 10h52.23.165582 +0000,
,,,,,,,,,,,,,,,,,,,,,,,21,0,21,0,725.9806433999911,,,,,,,,,,,,728.8053299000021,729.3041719999164,,,,2.8146714998874813,,,,,,,,,,,,None,None,,,,,,,,,,Brille,,,cuedRecallAdj,2,,,,,,,,,,,,,,,,,,,,,,,,0,,,,,,,,,,,,,,,,,,,,,,,,,,,,725.9709308999591,725.9806433999911,725.9806433999911,728.8024881000165,groß,return,2.8146714998874813,None,728.8027538000606,728.8122231999878,728.8122231999878,728.8052296999376,,None,,,,,2,2023-12-05_10h52.14.970,watkins1,2023.2.3,99.75629539599242,43,2023-12-05 10h52.23.165582 +0000,
,,,,,,,,,,,,,,,,,,,,,,,22,0,22,0,729.3140686999541,,,,,,,,,,,,737.9028892999049,738.4016177000012,,,,8.577186699956656,,,,,,,,,,,,None,None,,,,,,,,,,Eimer,,,cuedRecallAdj,2,,,,,,,,,,,,,,,,,,,,,,,,0,,,,,,,,,,,,,,,,,,,,,,,,,,,,729.304417999927,729.3140686999541,729.3140686999541,737.8999101999216,robust,return,8.577186699956656,None,737.9001732000615,737.9096289000008,737.9096289000008,737.902788599953,,None,,,,,2,2023-12-05_10h52.14.970,watkins1,2023.2.3,99.75629539599242,43,2023-12-05 10h52.23.165582 +0000,
,,,,,,,,,,,,,,,,,,,,,,,23,0,23,0,738.4116615001112,,,,,,,,,,,,740.5735599999316,741.0724339000881,,,,2.151595199946314,,,,,,,,,,,,None,None,,,,,,,,,,Geige,,,cuedRecallAdj,2,,,,,,,,,,,,,,,,,,,,,,,,0,,,,,,,,,,,,,,,,,,,,,,,,,,,,738.4018637998961,738.4116615001112,738.4116615001112,740.5706921999808,zart,return,2.151595199946314,None,740.5709561000112,740.5804139000829,740.5804139000829,740.5734562000725,,None,,,,,2,2023-12-05_10h52.14.970,watkins1,2023.2.3,99.75629539599242,43,2023-12-05 10h52.23.165582 +0000,
,,,,,,,,,,,,,,,,,,,,,,,24,0,24,0,741.082478400087,,,,,,,,,,,,742.5610839999281,743.0503793999087,,,,1.4728437999729067,,,,,,,,,,,,None,None,,,,,,,,,,Hut,,,cuedRecallAdj,2,,,,,,,,,,,,,,,,,,,,,,,,0,,,,,,,,,,,,,,,,,,,,,,,,,,,,741.0726850999054,741.082478400087,741.082478400087,742.5588817000389,,return,1.4728437999729067,None,742.559167600004,742.5684237999376,742.5684237999376,742.560976699926,,None,,,,,2,2023-12-05_10h52.14.970,watkins1,2023.2.3,99.75629539599242,43,2023-12-05 10h52.23.165582 +0000,
,,,,,,,,,,,,,,,,,,,,,,,25,0,25,0,743.0604336000979,,,,,,,,,,,,749.1584288000595,749.6571935000829,,,,6.086849099956453,,,,,,,,,,,,None,None,,,,,,,,,,Socke,,,cuedRecallAdj,2,,,,,,,,,,,,,,,,,,,,,,,,0,,,,,,,,,,,,,,,,,,,,,,,,,,,,743.0506241000257,743.0604336000979,743.0604336000979,749.1553708999418,flauschig,return,6.086849099956453,None,749.15563319996,749.1650926999282,749.1650926999282,749.1583267999813,,None,,,,,2,2023-12-05_10h52.14.970,watkins1,2023.2.3,99.75629539599242,43,2023-12-05 10h52.23.165582 +0000,
,,,,,,,,,,,,,,,,,,,,,,,26,0,26,0,749.6671325999778,,,,,,,,,,,,753.5465530999936,754.0449256999418,,,,3.872137099970132,,,,,,,,,,,,None,None,,,,,,,,,,Jacke,,,cuedRecallAdj,2,,,,,,,,,,,,,,,,,,,,,,,,0,,,,,,,,,,,,,,,,,,,,,,,,,,,,749.6574345000554,749.6671325999778,749.6671325999778,753.5434288000688,praktisch,return,3.872137099970132,None,753.5436905000824,753.5529630000237,753.5529630000237,753.5464514000341,,None,,,,,2,2023-12-05_10h52.14.970,watkins1,2023.2.3,99.75629539599242,43,2023-12-05 10h52.23.165582 +0000,
,,,,,,,,,,,,,,,,,,,,,,,27,0,27,0,754.0548264000099,,,,,,,,,,,,756.8791378000751,757.368420700077,,,,2.8203863999806345,,,,,,,,,,,,None,None,,,,,,,,,,Kerze,,,cuedRecallAdj,2,,,,,,,,,,,,,,,,,,,,,,,,0,,,,,,,,,,,,,,,,,,,,,,,,,,,,754.0451680999249,754.0548264000099,754.0548264000099,756.8768945001066,,return,2.8203863999806345,None,756.8771583999041,756.8864466000814,756.8864466000814,756.8790359999985,,None,,,,,2,2023-12-05_10h52.14.970,watkins1,2023.2.3,99.75629539599242,43,2023-12-05 10h52.23.165582 +0000,
,,,,,,,,,,,,,,,,,,,,,,,28,0,28,0,757.3784982999787,,,,,,,,,,,,761.3379472000524,761.8366586999036,,,,3.9527479000389576,,,,,,,,,,,,None,None,,,,,,,,,,Fahrrad,,,cuedRecallAdj,2,,,,,,,,,,,,,,,,,,,,,,,,0,,,,,,,,,,,,,,,,,,,,,,,,,,,,757.3686645999551,757.3784982999787,757.3784982999787,761.3349683000706,flach,return,3.9527479000389576,None,761.3352365999017,761.3446508999914,761.3446508999914,761.3378449000884,,None,,,,,2,2023-12-05_10h52.14.970,watkins1,2023.2.3,99.75629539599242,43,2023-12-05 10h52.23.165582 +0000,
,,,,,,,,,,,,,,,,,,,,,,,29,0,29,0,761.8466058999766,,,,,,,,,,,,763.7669214000925,764.2564248999115,,,,1.908719199942425,,,,,,,,,,,,None,None,,,,,,,,,,Stift,,,cuedRecallAdj,2,,,,,,,,,,,,,,,,,,,,,,,,0,,,,,,,,,,,,,,,,,,,,,,,,,,,,761.8369054999202,761.8466058999766,761.8466058999766,763.7647112999111,,return,1.908719199942425,None,763.7649737999309,763.7743822999764,763.7743822999764,763.7668214000296,,None,,,,,2,2023-12-05_10h52.14.970,watkins1,2023.2.3,99.75629539599242,43,2023-12-05 10h52.23.165582 +0000,
,,,,,,,,,,,,,,,,,,,,,,,,,,,,,,,,,,,,,,,,,,,,,,,,,,,,,,,,,,,,,,,,,,,,,,,2,,,,,,,,,,,,,,,,,,,,,,,,,,,,,,,,,,,,,,,,,,,,,,,,,,,,,,,,,,,,,,,,,,764.2731773001142,q,676.5367511999793,None,2,2023-12-05_10h52.14.970,watkins1,2023.2.3,99.75629539599242,43,2023-12-05 10h52.23.165582 +0000,
