Equation,CorrectResponse,Correctbutton,trials_7.thisRepN,trials_7.thisTrialN,trials_7.thisN,trials_7.thisIndex,trials.thisRepN,trials.thisTrialN,trials.thisN,trials.thisIndex,trials_3.thisRepN,trials_3.thisTrialN,trials_3.thisN,trials_3.thisIndex,trials_2.thisRepN,trials_2.thisTrialN,trials_2.thisN,trials_2.thisIndex,trials_4.thisRepN,trials_4.thisTrialN,trials_4.thisN,trials_4.thisIndex,trials_5.thisRepN,trials_5.thisTrialN,trials_5.thisN,trials_5.thisIndex,thisRow.t,notes,code_marius.started,code_marius.stopped,welcome.started,welcome.stopped,instruction_study.started,instruction_study.stopped,fixationcross.started,fixationcross.stopped,blanc.started,blanc.stopped,study_control_probe.started,study_control_probe.stopped,responseKey,responseTime,scale_answer_2.keys,study_control_probe_2.started,study_control_probe_2.stopped,scale_answer_3.keys,scale_answer_3.rt,scale_answer_3.duration,blanc_2.started,blanc_2.stopped,test_attr_probe.started,test_attr_probe.stopped,recalled_attr,firstKeyTime,secondWordTime,blanc_3.started,blanc_3.stopped,test_sub_probe.started,test_sub_probe.stopped,recalled_sub,instruction_probe_end.started,instruction_probe_end.stopped,study.started,study.stopped,substantive,adjective,wordpair,task,condition,liste_sub_phase1,liste_adj_phase1,scale_answer.keys,scale_answer.rt,scale_answer.duration,code_defineWordsInit.started,code_defineWordsInit.stopped,liste_sub_phase2,study_control.started,study_control.stopped,scale_answer_4.keys,scale_answer_4.rt,scale_answer_4.duration,restudy_same.started,restudy_same.stopped,scale_answer_5.keys,restudy_different.started,restudy_different.stopped,scale_answer_6.keys,test_attr.started,test_attr.stopped,test_sub.started,test_sub.stopped,scale_answer_6.rt,scale_answer_6.duration,distractortask.started,equation_text.started,distractortask.stopped,mouse_answer.x,mouse_answer.y,mouse_answer.leftButton,mouse_answer.midButton,mouse_answer.rightButton,mouse_answer.time,mouse_answer.clicked_name,feedback_distractortask.started,feedback_distractortask.stopped,free_recall.started,text_enter.started,key_resp.started,free_recall.stopped,key_resp.keys,key_resp.rt,key_resp.duration,free_recalled_sub,mouse_continue.x,mouse_continue.y,mouse_continue.leftButton,mouse_continue.midButton,mouse_continue.rightButton,mouse_continue.time,mouse_continue.clicked_name,cued_recall.started,text_enter_2.started,correct,key_continue.started,cued_recall.stopped,recalled_attr1,key_continue.keys,key_continue.rt,key_continue.duration,cued_recall_2.started,text_enter_3.started,key_continue_2.started,cued_recall_2.stopped,recalled_attr2,key_continue_2.keys,key_continue_2.rt,key_continue_2.duration,key_resp_8.started,key_resp_8.keys,key_resp_8.rt,key_resp_8.duration,condition,date,expName,psychopyVersion,frameRate,participant,expStart,
,,,,,,,,,,,,,,,,,,,,,,,,,,,,,0.12007980002090335,0.12016450008377433,0.1201728000305593,10.320433600107208,,,,,,,,,,,,,,,,,,,,,,,,,,,,,,,,,,,,,1,,,,,,,,,,,,,,,,,,,,,,,,,,,,,,,,,,,,,,,,,,,,,,,,,,,,,,,,,,,,,,,,,,,,,,,,,,1,2023-12-04_08h35.12.146,watkins1,2023.2.3,99.700698684139,37,2023-12-04 08h35.20.601926 +0000,
,,,,,,,,,,,,,,,,,,,,,,,,,,,,,,,,,10.320483500137925,55.26797390007414,,,,,,,,,,,,,,,,,,,,,,,,,,,,,,,,,,,1,,,,,,,,,,,,,,,,,,,,,,,,,,,,,,,,,,,,,,,,,,,,,,,,,,,,,,,,,,,,,,,,,,,,,,,,,,1,2023-12-04_08h35.12.146,watkins1,2023.2.3,99.700698684139,37,2023-12-04 08h35.20.601926 +0000,
,,,0,0,0,0,,,,,,,,,,,,,,,,,,,,,56.28167170006782,,,,,,,,55.26799070020206,56.271739500109106,62.765671000117436,63.256968199973926,56.76389870001003,62.765481300186366,2,3.0540841999463737,None,63.256979800062254,69.26586170005612,2,3.0540841999463737,None,69.26615500007756,69.26617870014161,69.26618580007926,69.26626810012385,,None,None,69.26642930018716,69.2664506000001,69.26645750016905,69.2665298001375,,,,,,,,,,1,,,,,,,,,,,,,,,,,,,,,,,,,,,,,,,,,,,,,,,,,,,,,,,,,,,,,,,,,,,,,,,,,,,,,,,,,,1,2023-12-04_08h35.12.146,watkins1,2023.2.3,99.700698684139,37,2023-12-04 08h35.20.601926 +0000,
,,,,,,,,,,,,,,,,,,,,,,,,,,,,,,,,,,,,,,,,,,,,,,,,,,,,,,,,,,,,,69.26664150017314,77.14591520000249,,,,,,,1,,,,,,,,,,,,,,,,,,,,,,,,,,,,,,,,,,,,,,,,,,,,,,,,,,,,,,,,,,,,,,,,,,,,,,,,,,1,2023-12-04_08h35.12.146,watkins1,2023.2.3,99.700698684139,37,2023-12-04 08h35.20.601926 +0000,
,,,,,,,0,0,0,0,,,,,,,,,,,,,,,,,78.15943920006976,,,,,,,,77.14593140012585,78.14945570006967,78.1498970000539,78.64150010002777,,,3,2.0073045000899583,,,,,,,,,,,,,,,,,,,,,78.64151159999892,84.64247329998761,Stift,neu,"['Stift', 'neu']",control,1,"['Stift', 'Blume', 'Vase', 'Kiste', 'Flasche', 'Lampe', 'Tasche', 'Uhr', 'Kette', 'Würfel', 'Jacke', 'Geige', 'Tasse', 'Hammer', 'Brille', 'Hut', 'Kerze', 'Socke', 'Fahrrad', 'Trommel', 'Bürste', 'Schlüssel']",['neu'],3,2.0073045000899583,None,,,,,,,,,,,,,,,,,,,,,,,,,,,,,,,,,,,,,,,,,,,,,,,,,,,,,,,,,,,,,,,,,,,,,1,2023-12-04_08h35.12.146,watkins1,2023.2.3,99.700698684139,37,2023-12-04 08h35.20.601926 +0000,
,,,,,,,1,0,1,0,,,,,,,,,,,,,,,,,84.65185650018975,,,,,,,,,,84.64307730016299,85.13401310006157,,,1,4.141297399997711,,,,,,,,,,,,,,,,,,,,,85.1340236000251,91.14230270008557,Blume,schlicht,"['Blume', 'schlicht']",control,1,"['Stift', 'Blume', 'Vase', 'Kiste', 'Flasche', 'Lampe', 'Tasche', 'Uhr', 'Kette', 'Würfel', 'Jacke', 'Geige', 'Tasse', 'Hammer', 'Brille', 'Hut', 'Kerze', 'Socke', 'Fahrrad', 'Trommel', 'Bürste', 'Schlüssel']","['neu', 'schlicht']",1,4.141297399997711,None,,,,,,,,,,,,,,,,,,,,,,,,,,,,,,,,,,,,,,,,,,,,,,,,,,,,,,,,,,,,,,,,,,,,,1,2023-12-04_08h35.12.146,watkins1,2023.2.3,99.700698684139,37,2023-12-04 08h35.20.601926 +0000,
,,,,,,,2,0,2,0,,,,,,,,,,,,,,,,,91.15169800003059,,,,,,,,,,91.14277290017344,91.63379600015469,,,1,2.3133598999120295,,,,,,,,,,,,,,,,,,,,,91.6338071001228,97.6404444000218,Vase,kratzig,"['Vase', 'kratzig']",restudy_diff,1,"['Stift', 'Blume', 'Vase', 'Kiste', 'Flasche', 'Lampe', 'Tasche', 'Uhr', 'Kette', 'Würfel', 'Jacke', 'Geige', 'Tasse', 'Hammer', 'Brille', 'Hut', 'Kerze', 'Socke', 'Fahrrad', 'Trommel', 'Bürste', 'Schlüssel']","['neu', 'schlicht', 'kratzig']",1,2.3133598999120295,None,,,,,,,,,,,,,,,,,,,,,,,,,,,,,,,,,,,,,,,,,,,,,,,,,,,,,,,,,,,,,,,,,,,,,1,2023-12-04_08h35.12.146,watkins1,2023.2.3,99.700698684139,37,2023-12-04 08h35.20.601926 +0000,
,,,,,,,3,0,3,0,,,,,,,,,,,,,,,,,97.64986560004763,,,,,,,,,,97.64092770009302,98.13284970005043,,,2,3.1441897999029607,,,,,,,,,,,,,,,,,,,,,98.13286020001397,104.1348963000346,Kiste,matt,"['Kiste', 'matt']",restudy_diff,1,"['Stift', 'Blume', 'Vase', 'Kiste', 'Flasche', 'Lampe', 'Tasche', 'Uhr', 'Kette', 'Würfel', 'Jacke', 'Geige', 'Tasse', 'Hammer', 'Brille', 'Hut', 'Kerze', 'Socke', 'Fahrrad', 'Trommel', 'Bürste', 'Schlüssel']","['neu', 'schlicht', 'kratzig', 'matt']",2,3.1441897999029607,None,,,,,,,,,,,,,,,,,,,,,,,,,,,,,,,,,,,,,,,,,,,,,,,,,,,,,,,,,,,,,,,,,,,,,1,2023-12-04_08h35.12.146,watkins1,2023.2.3,99.700698684139,37,2023-12-04 08h35.20.601926 +0000,
,,,,,,,4,0,4,0,,,,,,,,,,,,,,,,,104.14442800008692,,,,,,,,,,104.13538060011342,104.62657229998149,,,3,5.5863385000266135,,,,,,,,,,,,,,,,,,,,,104.62658350006677,110.62971790018491,Flasche,nass,"['Flasche', 'nass']",restudy_diff,1,"['Stift', 'Blume', 'Vase', 'Kiste', 'Flasche', 'Lampe', 'Tasche', 'Uhr', 'Kette', 'Würfel', 'Jacke', 'Geige', 'Tasse', 'Hammer', 'Brille', 'Hut', 'Kerze', 'Socke', 'Fahrrad', 'Trommel', 'Bürste', 'Schlüssel']","['neu', 'schlicht', 'kratzig', 'matt', 'nass']",3,5.5863385000266135,None,,,,,,,,,,,,,,,,,,,,,,,,,,,,,,,,,,,,,,,,,,,,,,,,,,,,,,,,,,,,,,,,,,,,,1,2023-12-04_08h35.12.146,watkins1,2023.2.3,99.700698684139,37,2023-12-04 08h35.20.601926 +0000,
,,,,,,,5,0,5,0,,,,,,,,,,,,,,,,,110.63913480006158,,,,,,,,,,110.6301951999776,111.12121880007908,,,3,1.3947751000523567,,,,,,,,,,,,,,,,,,,,,111.12122920015827,117.12960860016756,Lampe,bunt,"['Lampe', 'bunt']",control,1,"['Stift', 'Blume', 'Vase', 'Kiste', 'Flasche', 'Lampe', 'Tasche', 'Uhr', 'Kette', 'Würfel', 'Jacke', 'Geige', 'Tasse', 'Hammer', 'Brille', 'Hut', 'Kerze', 'Socke', 'Fahrrad', 'Trommel', 'Bürste', 'Schlüssel']","['neu', 'schlicht', 'kratzig', 'matt', 'nass', 'bunt']",3,1.3947751000523567,None,,,,,,,,,,,,,,,,,,,,,,,,,,,,,,,,,,,,,,,,,,,,,,,,,,,,,,,,,,,,,,,,,,,,,1,2023-12-04_08h35.12.146,watkins1,2023.2.3,99.700698684139,37,2023-12-04 08h35.20.601926 +0000,
,,,,,,,6,0,6,0,,,,,,,,,,,,,,,,,117.13898510020226,,,,,,,,,,117.13008460006677,117.62116640014574,,,3,2.2156436999794096,,,,,,,,,,,,,,,,,,,,,117.62117719999515,123.62337930011563,Tasche,gepunktet,"['Tasche', 'gepunktet']",restudy_diff,1,"['Stift', 'Blume', 'Vase', 'Kiste', 'Flasche', 'Lampe', 'Tasche', 'Uhr', 'Kette', 'Würfel', 'Jacke', 'Geige', 'Tasse', 'Hammer', 'Brille', 'Hut', 'Kerze', 'Socke', 'Fahrrad', 'Trommel', 'Bürste', 'Schlüssel']","['neu', 'schlicht', 'kratzig', 'matt', 'nass', 'bunt', 'gepunktet']",3,2.2156436999794096,None,,,,,,,,,,,,,,,,,,,,,,,,,,,,,,,,,,,,,,,,,,,,,,,,,,,,,,,,,,,,,,,,,,,,,1,2023-12-04_08h35.12.146,watkins1,2023.2.3,99.700698684139,37,2023-12-04 08h35.20.601926 +0000,
,,,,,,,7,0,7,0,,,,,,,,,,,,,,,,,123.6327895000577,,,,,,,,,,123.62385890004225,124.11481559998356,,,3,1.3372774000745267,,,,,,,,,,,,,,,,,,,,,124.11482660006732,130.12180040008388,Uhr,hässlich,"['Uhr', 'hässlich']",restudy_diff,1,"['Stift', 'Blume', 'Vase', 'Kiste', 'Flasche', 'Lampe', 'Tasche', 'Uhr', 'Kette', 'Würfel', 'Jacke', 'Geige', 'Tasse', 'Hammer', 'Brille', 'Hut', 'Kerze', 'Socke', 'Fahrrad', 'Trommel', 'Bürste', 'Schlüssel']","['neu', 'schlicht', 'kratzig', 'matt', 'nass', 'bunt', 'gepunktet', 'hässlich']",3,1.3372774000745267,None,,,,,,,,,,,,,,,,,,,,,,,,,,,,,,,,,,,,,,,,,,,,,,,,,,,,,,,,,,,,,,,,,,,,,1,2023-12-04_08h35.12.146,watkins1,2023.2.3,99.700698684139,37,2023-12-04 08h35.20.601926 +0000,
,,,,,,,8,0,8,0,,,,,,,,,,,,,,,,,130.1313428999856,,,,,,,,,,130.12227630009875,130.61331280018203,,,3,3.7841423999052495,,,,,,,,,,,,,,,,,,,,,130.6133235001471,136.62373890005983,Kette,praktisch,"['Kette', 'praktisch']",restudy_diff,1,"['Stift', 'Blume', 'Vase', 'Kiste', 'Flasche', 'Lampe', 'Tasche', 'Uhr', 'Kette', 'Würfel', 'Jacke', 'Geige', 'Tasse', 'Hammer', 'Brille', 'Hut', 'Kerze', 'Socke', 'Fahrrad', 'Trommel', 'Bürste', 'Schlüssel']","['neu', 'schlicht', 'kratzig', 'matt', 'nass', 'bunt', 'gepunktet', 'hässlich', 'praktisch']",3,3.7841423999052495,None,,,,,,,,,,,,,,,,,,,,,,,,,,,,,,,,,,,,,,,,,,,,,,,,,,,,,,,,,,,,,,,,,,,,,1,2023-12-04_08h35.12.146,watkins1,2023.2.3,99.700698684139,37,2023-12-04 08h35.20.601926 +0000,
,,,,,,,9,0,9,0,,,,,,,,,,,,,,,,,136.6331657001283,,,,,,,,,,136.62421130016446,137.1151907001622,,,2,4.945016900077462,,,,,,,,,,,,,,,,,,,,,137.1152015000116,143.11792060011066,Würfel,klobig,"['Würfel', 'klobig']",restudy_diff,1,"['Stift', 'Blume', 'Vase', 'Kiste', 'Flasche', 'Lampe', 'Tasche', 'Uhr', 'Kette', 'Würfel', 'Jacke', 'Geige', 'Tasse', 'Hammer', 'Brille', 'Hut', 'Kerze', 'Socke', 'Fahrrad', 'Trommel', 'Bürste', 'Schlüssel']","['neu', 'schlicht', 'kratzig', 'matt', 'nass', 'bunt', 'gepunktet', 'hässlich', 'praktisch', 'klobig']",2,4.945016900077462,None,,,,,,,,,,,,,,,,,,,,,,,,,,,,,,,,,,,,,,,,,,,,,,,,,,,,,,,,,,,,,,,,,,,,,1,2023-12-04_08h35.12.146,watkins1,2023.2.3,99.700698684139,37,2023-12-04 08h35.20.601926 +0000,
,,,,,,,10,0,10,0,,,,,,,,,,,,,,,,,143.12735970015638,,,,,,,,,,143.1183981001377,143.60957640013658,,,3,1.514578799949959,,,,,,,,,,,,,,,,,,,,,143.60958719998598,149.61535460012965,Jacke,dunkel,"['Jacke', 'dunkel']",control,1,"['Stift', 'Blume', 'Vase', 'Kiste', 'Flasche', 'Lampe', 'Tasche', 'Uhr', 'Kette', 'Würfel', 'Jacke', 'Geige', 'Tasse', 'Hammer', 'Brille', 'Hut', 'Kerze', 'Socke', 'Fahrrad', 'Trommel', 'Bürste', 'Schlüssel']","['neu', 'schlicht', 'kratzig', 'matt', 'nass', 'bunt', 'gepunktet', 'hässlich', 'praktisch', 'klobig', 'dunkel']",3,1.514578799949959,None,,,,,,,,,,,,,,,,,,,,,,,,,,,,,,,,,,,,,,,,,,,,,,,,,,,,,,,,,,,,,,,,,,,,,1,2023-12-04_08h35.12.146,watkins1,2023.2.3,99.700698684139,37,2023-12-04 08h35.20.601926 +0000,
,,,,,,,11,0,11,0,,,,,,,,,,,,,,,,,149.62465570005588,,,,,,,,,,149.61582700000145,150.10669410019182,,,1,1.801897699944675,,,,,,,,,,,,,,,,,,,,,150.10670480015688,156.11034650006332,Geige,krumm,"['Geige', 'krumm']",restudy_diff,1,"['Stift', 'Blume', 'Vase', 'Kiste', 'Flasche', 'Lampe', 'Tasche', 'Uhr', 'Kette', 'Würfel', 'Jacke', 'Geige', 'Tasse', 'Hammer', 'Brille', 'Hut', 'Kerze', 'Socke', 'Fahrrad', 'Trommel', 'Bürste', 'Schlüssel']","['neu', 'schlicht', 'kratzig', 'matt', 'nass', 'bunt', 'gepunktet', 'hässlich', 'praktisch', 'klobig', 'dunkel', 'krumm']",1,1.801897699944675,None,,,,,,,,,,,,,,,,,,,,,,,,,,,,,,,,,,,,,,,,,,,,,,,,,,,,,,,,,,,,,,,,,,,,,1,2023-12-04_08h35.12.146,watkins1,2023.2.3,99.700698684139,37,2023-12-04 08h35.20.601926 +0000,
,,,,,,,12,0,12,0,,,,,,,,,,,,,,,,,156.11972930002958,,,,,,,,,,156.11081760004163,156.6018497000914,,,3,2.4104901999235153,,,,,,,,,,,,,,,,,,,,,156.60186050017364,162.60325430007651,Tasse,nachhaltig,"['Tasse', 'nachhaltig']",restudy_diff,1,"['Stift', 'Blume', 'Vase', 'Kiste', 'Flasche', 'Lampe', 'Tasche', 'Uhr', 'Kette', 'Würfel', 'Jacke', 'Geige', 'Tasse', 'Hammer', 'Brille', 'Hut', 'Kerze', 'Socke', 'Fahrrad', 'Trommel', 'Bürste', 'Schlüssel']","['neu', 'schlicht', 'kratzig', 'matt', 'nass', 'bunt', 'gepunktet', 'hässlich', 'praktisch', 'klobig', 'dunkel', 'krumm', 'nachhaltig']",3,2.4104901999235153,None,,,,,,,,,,,,,,,,,,,,,,,,,,,,,,,,,,,,,,,,,,,,,,,,,,,,,,,,,,,,,,,,,,,,,1,2023-12-04_08h35.12.146,watkins1,2023.2.3,99.700698684139,37,2023-12-04 08h35.20.601926 +0000,
,,,,,,,13,0,13,0,,,,,,,,,,,,,,,,,162.61268989997916,,,,,,,,,,162.6037337000016,163.09470430016518,,,1,2.877291100099683,,,,,,,,,,,,,,,,,,,,,163.0947146001272,169.10490979999304,Hammer,verspielt,"['Hammer', 'verspielt']",restudy_diff,1,"['Stift', 'Blume', 'Vase', 'Kiste', 'Flasche', 'Lampe', 'Tasche', 'Uhr', 'Kette', 'Würfel', 'Jacke', 'Geige', 'Tasse', 'Hammer', 'Brille', 'Hut', 'Kerze', 'Socke', 'Fahrrad', 'Trommel', 'Bürste', 'Schlüssel']","['neu', 'schlicht', 'kratzig', 'matt', 'nass', 'bunt', 'gepunktet', 'hässlich', 'praktisch', 'klobig', 'dunkel', 'krumm', 'nachhaltig', 'verspielt']",1,2.877291100099683,None,,,,,,,,,,,,,,,,,,,,,,,,,,,,,,,,,,,,,,,,,,,,,,,,,,,,,,,,,,,,,,,,,,,,,1,2023-12-04_08h35.12.146,watkins1,2023.2.3,99.700698684139,37,2023-12-04 08h35.20.601926 +0000,
,,,,,,,14,0,14,0,,,,,,,,,,,,,,,,,169.1142959999852,,,,,,,,,,169.10537660005502,169.59657370019704,,,3,1.5759880000259727,,,,,,,,,,,,,,,,,,,,,169.59658450004645,175.59822410019115,Brille,groß,"['Brille', 'groß']",restudy_diff,1,"['Stift', 'Blume', 'Vase', 'Kiste', 'Flasche', 'Lampe', 'Tasche', 'Uhr', 'Kette', 'Würfel', 'Jacke', 'Geige', 'Tasse', 'Hammer', 'Brille', 'Hut', 'Kerze', 'Socke', 'Fahrrad', 'Trommel', 'Bürste', 'Schlüssel']","['neu', 'schlicht', 'kratzig', 'matt', 'nass', 'bunt', 'gepunktet', 'hässlich', 'praktisch', 'klobig', 'dunkel', 'krumm', 'nachhaltig', 'verspielt', 'groß']",3,1.5759880000259727,None,,,,,,,,,,,,,,,,,,,,,,,,,,,,,,,,,,,,,,,,,,,,,,,,,,,,,,,,,,,,,,,,,,,,,1,2023-12-04_08h35.12.146,watkins1,2023.2.3,99.700698684139,37,2023-12-04 08h35.20.601926 +0000,
,,,,,,,15,0,15,0,,,,,,,,,,,,,,,,,175.60760500002652,,,,,,,,,,175.59870450012386,176.0896461000666,,,1,2.156155299860984,,,,,,,,,,,,,,,,,,,,,176.08965660003014,182.0932277000975,Hut,gut,"['Hut', 'gut']",restudy_diff,1,"['Stift', 'Blume', 'Vase', 'Kiste', 'Flasche', 'Lampe', 'Tasche', 'Uhr', 'Kette', 'Würfel', 'Jacke', 'Geige', 'Tasse', 'Hammer', 'Brille', 'Hut', 'Kerze', 'Socke', 'Fahrrad', 'Trommel', 'Bürste', 'Schlüssel']","['neu', 'schlicht', 'kratzig', 'matt', 'nass', 'bunt', 'gepunktet', 'hässlich', 'praktisch', 'klobig', 'dunkel', 'krumm', 'nachhaltig', 'verspielt', 'groß', 'gut']",1,2.156155299860984,None,,,,,,,,,,,,,,,,,,,,,,,,,,,,,,,,,,,,,,,,,,,,,,,,,,,,,,,,,,,,,,,,,,,,,1,2023-12-04_08h35.12.146,watkins1,2023.2.3,99.700698684139,37,2023-12-04 08h35.20.601926 +0000,
,,,,,,,16,0,16,0,,,,,,,,,,,,,,,,,182.10264390008524,,,,,,,,,,182.09370080009103,182.58471990004182,,,1,1.5245068999938667,,,,,,,,,,,,,,,,,,,,,182.58473060000688,188.587291700067,Kerze,durchsichtig,"['Kerze', 'durchsichtig']",control,1,"['Stift', 'Blume', 'Vase', 'Kiste', 'Flasche', 'Lampe', 'Tasche', 'Uhr', 'Kette', 'Würfel', 'Jacke', 'Geige', 'Tasse', 'Hammer', 'Brille', 'Hut', 'Kerze', 'Socke', 'Fahrrad', 'Trommel', 'Bürste', 'Schlüssel']","['neu', 'schlicht', 'kratzig', 'matt', 'nass', 'bunt', 'gepunktet', 'hässlich', 'praktisch', 'klobig', 'dunkel', 'krumm', 'nachhaltig', 'verspielt', 'groß', 'gut', 'durchsichtig']",1,1.5245068999938667,None,,,,,,,,,,,,,,,,,,,,,,,,,,,,,,,,,,,,,,,,,,,,,,,,,,,,,,,,,,,,,,,,,,,,,1,2023-12-04_08h35.12.146,watkins1,2023.2.3,99.700698684139,37,2023-12-04 08h35.20.601926 +0000,
,,,,,,,17,0,17,0,,,,,,,,,,,,,,,,,188.59656330011785,,,,,,,,,,188.5877815000713,189.07859910000116,,,3,2.094461299944669,,,,,,,,,,,,,,,,,,,,,189.07860980019905,195.0791656000074,Socke,sportlich,"['Socke', 'sportlich']",restudy_diff,1,"['Stift', 'Blume', 'Vase', 'Kiste', 'Flasche', 'Lampe', 'Tasche', 'Uhr', 'Kette', 'Würfel', 'Jacke', 'Geige', 'Tasse', 'Hammer', 'Brille', 'Hut', 'Kerze', 'Socke', 'Fahrrad', 'Trommel', 'Bürste', 'Schlüssel']","['neu', 'schlicht', 'kratzig', 'matt', 'nass', 'bunt', 'gepunktet', 'hässlich', 'praktisch', 'klobig', 'dunkel', 'krumm', 'nachhaltig', 'verspielt', 'groß', 'gut', 'durchsichtig', 'sportlich']",3,2.094461299944669,None,,,,,,,,,,,,,,,,,,,,,,,,,,,,,,,,,,,,,,,,,,,,,,,,,,,,,,,,,,,,,,,,,,,,,1,2023-12-04_08h35.12.146,watkins1,2023.2.3,99.700698684139,37,2023-12-04 08h35.20.601926 +0000,
,,,,,,,18,0,18,0,,,,,,,,,,,,,,,,,195.08861230011098,,,,,,,,,,195.07964540016837,195.57074520015158,,,3,1.8827321999706328,,,,,,,,,,,,,,,,,,,,,195.5707562000025,201.57164099998772,Fahrrad,sauber,"['Fahrrad', 'sauber']",control,1,"['Stift', 'Blume', 'Vase', 'Kiste', 'Flasche', 'Lampe', 'Tasche', 'Uhr', 'Kette', 'Würfel', 'Jacke', 'Geige', 'Tasse', 'Hammer', 'Brille', 'Hut', 'Kerze', 'Socke', 'Fahrrad', 'Trommel', 'Bürste', 'Schlüssel']","['neu', 'schlicht', 'kratzig', 'matt', 'nass', 'bunt', 'gepunktet', 'hässlich', 'praktisch', 'klobig', 'dunkel', 'krumm', 'nachhaltig', 'verspielt', 'groß', 'gut', 'durchsichtig', 'sportlich', 'sauber']",3,1.8827321999706328,None,,,,,,,,,,,,,,,,,,,,,,,,,,,,,,,,,,,,,,,,,,,,,,,,,,,,,,,,,,,,,,,,,,,,,1,2023-12-04_08h35.12.146,watkins1,2023.2.3,99.700698684139,37,2023-12-04 08h35.20.601926 +0000,
,,,,,,,19,0,19,0,,,,,,,,,,,,,,,,,201.5811195001006,,,,,,,,,,201.57213910017163,202.06322870007716,,,1,2.6062386999838054,,,,,,,,,,,,,,,,,,,,,202.06323910015635,208.06386570003815,Trommel,glänzend,"['Trommel', 'glänzend']",control,1,"['Stift', 'Blume', 'Vase', 'Kiste', 'Flasche', 'Lampe', 'Tasche', 'Uhr', 'Kette', 'Würfel', 'Jacke', 'Geige', 'Tasse', 'Hammer', 'Brille', 'Hut', 'Kerze', 'Socke', 'Fahrrad', 'Trommel', 'Bürste', 'Schlüssel']","['neu', 'schlicht', 'kratzig', 'matt', 'nass', 'bunt', 'gepunktet', 'hässlich', 'praktisch', 'klobig', 'dunkel', 'krumm', 'nachhaltig', 'verspielt', 'groß', 'gut', 'durchsichtig', 'sportlich', 'sauber', 'glänzend']",1,2.6062386999838054,None,,,,,,,,,,,,,,,,,,,,,,,,,,,,,,,,,,,,,,,,,,,,,,,,,,,,,,,,,,,,,,,,,,,,,1,2023-12-04_08h35.12.146,watkins1,2023.2.3,99.700698684139,37,2023-12-04 08h35.20.601926 +0000,
,,,,,,,20,0,20,0,,,,,,,,,,,,,,,,,208.0732853000518,,,,,,,,,,208.06433950015344,208.55526880011894,,,1,4.681670099962503,,,,,,,,,,,,,,,,,,,,,208.5552801999729,214.56017430010252,Bürste,gestreift,"['Bürste', 'gestreift']",restudy_diff,1,"['Stift', 'Blume', 'Vase', 'Kiste', 'Flasche', 'Lampe', 'Tasche', 'Uhr', 'Kette', 'Würfel', 'Jacke', 'Geige', 'Tasse', 'Hammer', 'Brille', 'Hut', 'Kerze', 'Socke', 'Fahrrad', 'Trommel', 'Bürste', 'Schlüssel']","['neu', 'schlicht', 'kratzig', 'matt', 'nass', 'bunt', 'gepunktet', 'hässlich', 'praktisch', 'klobig', 'dunkel', 'krumm', 'nachhaltig', 'verspielt', 'groß', 'gut', 'durchsichtig', 'sportlich', 'sauber', 'glänzend', 'gestreift']",1,4.681670099962503,None,,,,,,,,,,,,,,,,,,,,,,,,,,,,,,,,,,,,,,,,,,,,,,,,,,,,,,,,,,,,,,,,,,,,,1,2023-12-04_08h35.12.146,watkins1,2023.2.3,99.700698684139,37,2023-12-04 08h35.20.601926 +0000,
,,,,,,,21,0,21,0,,,,,,,,,,,,,,,,,214.56959550012834,,,,,,,,,,214.56065500015393,215.05162200005725,,,1,3.3696248000487685,,,,,,,,,,,,,,,,,,,,,215.05163240013644,221.061861500144,Schlüssel,schmutzig,"['Schlüssel', 'schmutzig']",restudy_diff,1,"['Stift', 'Blume', 'Vase', 'Kiste', 'Flasche', 'Lampe', 'Tasche', 'Uhr', 'Kette', 'Würfel', 'Jacke', 'Geige', 'Tasse', 'Hammer', 'Brille', 'Hut', 'Kerze', 'Socke', 'Fahrrad', 'Trommel', 'Bürste', 'Schlüssel']","['neu', 'schlicht', 'kratzig', 'matt', 'nass', 'bunt', 'gepunktet', 'hässlich', 'praktisch', 'klobig', 'dunkel', 'krumm', 'nachhaltig', 'verspielt', 'groß', 'gut', 'durchsichtig', 'sportlich', 'sauber', 'glänzend', 'gestreift', 'schmutzig']",1,3.3696248000487685,None,,,,,,,,,,,,,,,,,,,,,,,,,,,,,,,,,,,,,,,,,,,,,,,,,,,,,,,,,,,,,,,,,,,,,1,2023-12-04_08h35.12.146,watkins1,2023.2.3,99.700698684139,37,2023-12-04 08h35.20.601926 +0000,
,,,,,,,,,,,0,0,0,0,,,,,,,,,,,,,221.07114930008538,,,,,,,,,,221.06267180014402,221.55335310008377,,,[],[],,,,,,,,,,,,None,None,,,,,,,,,,Eimer,lang,"['Eimer', 'lang']",control,1,,,,,,221.0625929001253,221.06264630006626,"['Eimer', 'Schere', 'Würfel', 'Socke', 'Bürste', 'Geige', 'Kette', 'Hammer', 'Kamera', 'Telefon', 'Schlüssel', 'Flasche', 'Ring', 'Tasche', 'Uhr', 'Buch', 'Vase', 'Rucksack', 'Brille', 'Hut', 'Tasse', 'Löffel', 'Kiste']",221.5533655001782,227.55608250014484,1,3.0265353999566287,None,227.55647780001163,227.55901020020247,None,227.55915980017744,227.56161039997824,None,227.56175890006125,227.56292470009066,227.56293690018356,227.56397190014832,,,,,,,,,,,,,,,,,,,,,,,,,,,,,,,,,,,,,,,,,,,,,,,,,,,1,2023-12-04_08h35.12.146,watkins1,2023.2.3,99.700698684139,37,2023-12-04 08h35.20.601926 +0000,
,,,,,,,,,,,1,0,1,0,,,,,,,,,,,,,227.56764680007473,,,,,,,,,,227.56423999997787,228.06038610008545,,,[],[],,,,,,,,,,,,None,None,,,,,,,,,,Schere,schwer,"['Schere', 'schwer']",control,1,,,,,,227.5641753000673,227.56421480001882,"['Eimer', 'Schere', 'Würfel', 'Socke', 'Bürste', 'Geige', 'Kette', 'Hammer', 'Kamera', 'Telefon', 'Schlüssel', 'Flasche', 'Ring', 'Tasche', 'Uhr', 'Buch', 'Vase', 'Rucksack', 'Brille', 'Hut', 'Tasse', 'Löffel', 'Kiste']",228.06039740005508,234.06120080011897,2,3.141453299904242,None,234.06148030003533,234.064210700104,None,234.06431800010614,234.06691720010713,None,234.0670216002036,234.0682386001572,234.0682510000188,234.0694502000697,,,,,,,,,,,,,,,,,,,,,,,,,,,,,,,,,,,,,,,,,,,,,,,,,,,1,2023-12-04_08h35.12.146,watkins1,2023.2.3,99.700698684139,37,2023-12-04 08h35.20.601926 +0000,
,,,,,,,,,,,2,0,2,0,,,,,,,,,,,,,234.07306030020118,,,,,,,,,,234.06972120003775,234.56647870014422,,,1,4.842821300029755,,,,,,,,,,,,None,None,,,,,,,,,,Würfel,rustikal,"['Würfel', 'rustikal']",restudy_diff,1,,,,,,234.06965680001304,234.06969590019435,"['Eimer', 'Schere', 'Würfel', 'Socke', 'Bürste', 'Geige', 'Kette', 'Hammer', 'Kamera', 'Telefon', 'Schlüssel', 'Flasche', 'Ring', 'Tasche', 'Uhr', 'Buch', 'Vase', 'Rucksack', 'Brille', 'Hut', 'Tasse', 'Löffel', 'Kiste']",234.5664904001169,234.5682765999809,None,,,234.56839750008658,234.56986480019987,None,234.5699705001898,240.5754679001402,1,240.5758257000707,240.57717900001444,240.57719129999168,240.5784350000322,4.842821300029755,None,,,,,,,,,,,,,,,,,,,,,,,,,,,,,,,,,,,,,,,,,,,,,,,,,1,2023-12-04_08h35.12.146,watkins1,2023.2.3,99.700698684139,37,2023-12-04 08h35.20.601926 +0000,
,,,,,,,,,,,3,0,3,0,,,,,,,,,,,,,240.58490270003676,,,,,,,,,,240.57870830013417,241.07685620011762,,,3,2.7071947001386434,,,,,,,,,,,,None,None,,,,,,,,,,Socke,dick,"['Socke', 'dick']",restudy_diff,1,,,,,,240.57864230009727,240.57868080004118,"['Eimer', 'Schere', 'Würfel', 'Socke', 'Bürste', 'Geige', 'Kette', 'Hammer', 'Kamera', 'Telefon', 'Schlüssel', 'Flasche', 'Ring', 'Tasche', 'Uhr', 'Buch', 'Vase', 'Rucksack', 'Brille', 'Hut', 'Tasse', 'Löffel', 'Kiste']",241.07686770008877,241.07961650006473,None,,,241.07973600015976,241.08231610013172,None,241.0824200999923,247.08793640020303,3,247.08820680016652,247.08954640012234,247.08955830009654,247.09061260009184,2.7071947001386434,None,,,,,,,,,,,,,,,,,,,,,,,,,,,,,,,,,,,,,,,,,,,,,,,,,1,2023-12-04_08h35.12.146,watkins1,2023.2.3,99.700698684139,37,2023-12-04 08h35.20.601926 +0000,
,,,,,,,,,,,4,0,4,0,,,,,,,,,,,,,247.10983770014718,,,,,,,,,,247.09087940002792,247.58192690019496,,,2,3.8495612000115216,,,,,,,,,,,,None,None,,,,,,,,,,Bürste,hübsch,"['Bürste', 'hübsch']",restudy_diff,1,,,,,,247.09081460000016,247.0908531001769,"['Eimer', 'Schere', 'Würfel', 'Socke', 'Bürste', 'Geige', 'Kette', 'Hammer', 'Kamera', 'Telefon', 'Schlüssel', 'Flasche', 'Ring', 'Tasche', 'Uhr', 'Buch', 'Vase', 'Rucksack', 'Brille', 'Hut', 'Tasse', 'Löffel', 'Kiste']",247.58193850005046,247.58452160004526,None,,,247.58463970012963,247.5871041000355,None,247.58721320005134,253.5979554001242,2,253.59823720017448,253.59957489999942,253.59958710009232,253.60079140006565,3.8495612000115216,None,,,,,,,,,,,,,,,,,,,,,,,,,,,,,,,,,,,,,,,,,,,,,,,,,1,2023-12-04_08h35.12.146,watkins1,2023.2.3,99.700698684139,37,2023-12-04 08h35.20.601926 +0000,
,,,,,,,,,,,5,0,5,0,,,,,,,,,,,,,253.6072690000292,,,,,,,,,,253.60106770019047,254.09939330001362,,,1,5.0120012001134455,,,,,,,,,,,,None,None,,,,,,,,,,Geige,lustig,"['Geige', 'lustig']",restudy_diff,1,,,,,,253.60100090014748,253.60103929997422,"['Eimer', 'Schere', 'Würfel', 'Socke', 'Bürste', 'Geige', 'Kette', 'Hammer', 'Kamera', 'Telefon', 'Schlüssel', 'Flasche', 'Ring', 'Tasche', 'Uhr', 'Buch', 'Vase', 'Rucksack', 'Brille', 'Hut', 'Tasse', 'Löffel', 'Kiste']",254.09940479998477,254.10210620006546,None,,,254.1022249001544,254.1047769000288,None,254.10488030011766,260.11525000003166,1,260.11553409998305,260.1168683001306,260.1168804001063,260.118092500139,5.0120012001134455,None,,,,,,,,,,,,,,,,,,,,,,,,,,,,,,,,,,,,,,,,,,,,,,,,,1,2023-12-04_08h35.12.146,watkins1,2023.2.3,99.700698684139,37,2023-12-04 08h35.20.601926 +0000,
,,,,,,,,,,,6,0,6,0,,,,,,,,,,,,,260.1246202001348,,,,,,,,,,260.1183617000934,260.61673430004157,,,2,3.6309328998904675,,,,,,,,,,,,None,None,,,,,,,,,,Kette,niedlich,"['Kette', 'niedlich']",restudy_diff,1,,,,,,260.11829710006714,260.11833590012975,"['Eimer', 'Schere', 'Würfel', 'Socke', 'Bürste', 'Geige', 'Kette', 'Hammer', 'Kamera', 'Telefon', 'Schlüssel', 'Flasche', 'Ring', 'Tasche', 'Uhr', 'Buch', 'Vase', 'Rucksack', 'Brille', 'Hut', 'Tasse', 'Löffel', 'Kiste']",260.6167454000097,260.61947840009816,None,,,260.61959830019623,260.6221491000615,None,260.6222547001671,266.6274041000288,2,266.62768320017494,266.6289852000773,266.6290031000972,266.63030530000106,3.6309328998904675,None,,,,,,,,,,,,,,,,,,,,,,,,,,,,,,,,,,,,,,,,,,,,,,,,,1,2023-12-04_08h35.12.146,watkins1,2023.2.3,99.700698684139,37,2023-12-04 08h35.20.601926 +0000,
,,,,,,,,,,,7,0,7,0,,,,,,,,,,,,,266.63673230004497,,,,,,,,,,266.6305949999951,267.12890790007077,,,3,4.870814699912444,,,,,,,,,,,,None,None,,,,,,,,,,Hammer,kaputt,"['Hammer', 'kaputt']",restudy_diff,1,,,,,,266.63052530004643,266.63056720001623,"['Eimer', 'Schere', 'Würfel', 'Socke', 'Bürste', 'Geige', 'Kette', 'Hammer', 'Kamera', 'Telefon', 'Schlüssel', 'Flasche', 'Ring', 'Tasche', 'Uhr', 'Buch', 'Vase', 'Rucksack', 'Brille', 'Hut', 'Tasse', 'Löffel', 'Kiste']",267.12891880003735,267.1316882001702,None,,,267.13180860015564,267.1344811001327,None,267.13458750001155,273.1442026000004,3,273.14448070013896,273.14581050002016,273.1458229999989,273.14703270001337,4.870814699912444,None,,,,,,,,,,,,,,,,,,,,,,,,,,,,,,,,,,,,,,,,,,,,,,,,,1,2023-12-04_08h35.12.146,watkins1,2023.2.3,99.700698684139,37,2023-12-04 08h35.20.601926 +0000,
,,,,,,,,,,,8,0,8,0,,,,,,,,,,,,,273.15361790009774,,,,,,,,,,273.1473024999723,273.6457981001586,,,[],[],,,,,,,,,,,,None,None,,,,,,,,,,Kamera,kurz,"['Kamera', 'kurz']",control,1,,,,,,273.1472376000602,273.1472761000041,"['Eimer', 'Schere', 'Würfel', 'Socke', 'Bürste', 'Geige', 'Kette', 'Hammer', 'Kamera', 'Telefon', 'Schlüssel', 'Flasche', 'Ring', 'Tasche', 'Uhr', 'Buch', 'Vase', 'Rucksack', 'Brille', 'Hut', 'Tasse', 'Löffel', 'Kiste']",273.6458086001221,279.652010000078,1,5.183907500002533,None,279.6522868000902,279.6548322001472,None,279.6549373001326,279.6574572001118,None,279.6575611999724,279.6587535000872,279.65876530017704,279.6598174001556,,,,,,,,,,,,,,,,,,,,,,,,,,,,,,,,,,,,,,,,,,,,,,,,,,,1,2023-12-04_08h35.12.146,watkins1,2023.2.3,99.700698684139,37,2023-12-04 08h35.20.601926 +0000,
,,,,,,,,,,,9,0,9,0,,,,,,,,,,,,,279.66346210008487,,,,,,,,,,279.66008680011146,280.15646750014275,,,[],[],,,,,,,,,,,,None,None,,,,,,,,,,Telefon,breit,"['Telefon', 'breit']",control,1,,,,,,279.6600223002024,279.6600621000398,"['Eimer', 'Schere', 'Würfel', 'Socke', 'Bürste', 'Geige', 'Kette', 'Hammer', 'Kamera', 'Telefon', 'Schlüssel', 'Flasche', 'Ring', 'Tasche', 'Uhr', 'Buch', 'Vase', 'Rucksack', 'Brille', 'Hut', 'Tasse', 'Löffel', 'Kiste']",280.1564782001078,286.16180300014094,1,4.928834500024095,None,286.1620952000376,286.16478420002386,None,286.1648933000397,286.1675480999984,None,286.1676531000994,286.1688642001245,286.1688761000987,286.170037999982,,,,,,,,,,,,,,,,,,,,,,,,,,,,,,,,,,,,,,,,,,,,,,,,,,,1,2023-12-04_08h35.12.146,watkins1,2023.2.3,99.700698684139,37,2023-12-04 08h35.20.601926 +0000,
,,,,,,,,,,,10,0,10,0,,,,,,,,,,,,,286.17365550016984,,,,,,,,,,286.1703082001768,286.66704710014164,,,1,4.518301300005987,,,,,,,,,,,,None,None,,,,,,,,,,Schlüssel,flach,"['Schlüssel', 'flach']",restudy_diff,1,,,,,,286.17024440015666,286.17028370010667,"['Eimer', 'Schere', 'Würfel', 'Socke', 'Bürste', 'Geige', 'Kette', 'Hammer', 'Kamera', 'Telefon', 'Schlüssel', 'Flasche', 'Ring', 'Tasche', 'Uhr', 'Buch', 'Vase', 'Rucksack', 'Brille', 'Hut', 'Tasse', 'Löffel', 'Kiste']",286.66705970000476,286.6687357001938,None,,,286.6688544000499,286.6704498999752,None,286.67111170012504,292.6747771000955,1,292.67505800002255,292.6765205000993,292.67653280007653,292.67768570012413,4.518301300005987,None,,,,,,,,,,,,,,,,,,,,,,,,,,,,,,,,,,,,,,,,,,,,,,,,,1,2023-12-04_08h35.12.146,watkins1,2023.2.3,99.700698684139,37,2023-12-04 08h35.20.601926 +0000,
,,,,,,,,,,,11,0,11,0,,,,,,,,,,,,,292.6843135000672,,,,,,,,,,292.6779567000922,293.1763085001148,,,3,1.4319472999777645,,,,,,,,,,,,None,None,,,,,,,,,,Flasche,teuer,"['Flasche', 'teuer']",restudy_diff,1,,,,,,292.6778918001801,292.6779302000068,"['Eimer', 'Schere', 'Würfel', 'Socke', 'Bürste', 'Geige', 'Kette', 'Hammer', 'Kamera', 'Telefon', 'Schlüssel', 'Flasche', 'Ring', 'Tasche', 'Uhr', 'Buch', 'Vase', 'Rucksack', 'Brille', 'Hut', 'Tasse', 'Löffel', 'Kiste']",293.1763192000799,293.1789718000218,None,,,293.17908690008335,293.1816259000916,None,293.18173000006936,299.1876042999793,3,299.1878899000585,299.18953630002216,299.1895488000009,299.19070240017027,1.4319472999777645,None,,,,,,,,,,,,,,,,,,,,,,,,,,,,,,,,,,,,,,,,,,,,,,,,,1,2023-12-04_08h35.12.146,watkins1,2023.2.3,99.700698684139,37,2023-12-04 08h35.20.601926 +0000,
,,,,,,,,,,,12,0,12,0,,,,,,,,,,,,,299.1969893001951,,,,,,,,,,299.19097610004246,299.6891801999882,,,[],[],,,,,,,,,,,,None,None,,,,,,,,,,Ring,robust,"['Ring', 'robust']",control,1,,,,,,299.1909084999934,299.19094800017774,"['Eimer', 'Schere', 'Würfel', 'Socke', 'Bürste', 'Geige', 'Kette', 'Hammer', 'Kamera', 'Telefon', 'Schlüssel', 'Flasche', 'Ring', 'Tasche', 'Uhr', 'Buch', 'Vase', 'Rucksack', 'Brille', 'Hut', 'Tasse', 'Löffel', 'Kiste']",299.6891911001876,305.69318000017665,3,3.779639899963513,None,305.6934680000413,305.69605130003765,None,305.69615850015543,305.69858530000784,None,305.6986936000176,305.69975270004943,305.6997642000206,305.7010902001057,,,,,,,,,,,,,,,,,,,,,,,,,,,,,,,,,,,,,,,,,,,,,,,,,,,1,2023-12-04_08h35.12.146,watkins1,2023.2.3,99.700698684139,37,2023-12-04 08h35.20.601926 +0000,
,,,,,,,,,,,13,0,13,0,,,,,,,,,,,,,305.7043318999931,,,,,,,,,,305.7013616000768,306.1977947000414,,,2,4.844119400018826,,,,,,,,,,,,None,None,,,,,,,,,,Tasche,flauschig,"['Tasche', 'flauschig']",restudy_diff,1,,,,,,305.7012979001738,305.7013372001238,"['Eimer', 'Schere', 'Würfel', 'Socke', 'Bürste', 'Geige', 'Kette', 'Hammer', 'Kamera', 'Telefon', 'Schlüssel', 'Flasche', 'Ring', 'Tasche', 'Uhr', 'Buch', 'Vase', 'Rucksack', 'Brille', 'Hut', 'Tasse', 'Löffel', 'Kiste']",306.19780550012365,306.1993937001098,None,,,306.199510200182,306.2009807000868,None,306.2010821001604,312.2070559000131,2,312.2073389000725,312.2086581001058,312.2086703001987,312.2099431999959,4.844119400018826,None,,,,,,,,,,,,,,,,,,,,,,,,,,,,,,,,,,,,,,,,,,,,,,,,,1,2023-12-04_08h35.12.146,watkins1,2023.2.3,99.700698684139,37,2023-12-04 08h35.20.601926 +0000,
,,,,,,,,,,,14,0,14,0,,,,,,,,,,,,,312.2164049001876,,,,,,,,,,312.2102159000933,312.70886710006744,,,2,2.69943829998374,,,,,,,,,,,,None,None,,,,,,,,,,Uhr,zart,"['Uhr', 'zart']",restudy_diff,1,,,,,,312.21014830004424,312.2101873999927,"['Eimer', 'Schere', 'Würfel', 'Socke', 'Bürste', 'Geige', 'Kette', 'Hammer', 'Kamera', 'Telefon', 'Schlüssel', 'Flasche', 'Ring', 'Tasche', 'Uhr', 'Buch', 'Vase', 'Rucksack', 'Brille', 'Hut', 'Tasse', 'Löffel', 'Kiste']",312.7088786000386,312.71152760018595,None,,,312.71164710004814,312.71413010009564,None,312.7142335001845,318.72129530017264,2,318.7215731001925,318.7227253001183,318.72273729997687,318.72379530011676,2.69943829998374,None,,,,,,,,,,,,,,,,,,,,,,,,,,,,,,,,,,,,,,,,,,,,,,,,,1,2023-12-04_08h35.12.146,watkins1,2023.2.3,99.700698684139,37,2023-12-04 08h35.20.601926 +0000,
,,,,,,,,,,,15,0,15,0,,,,,,,,,,,,,318.73072400013916,,,,,,,,,,318.7240627000574,319.22278040018864,,,[],[],,,,,,,,,,,,None,None,,,,,,,,,,Buch,elegant,"['Buch', 'elegant']",control,1,,,,,,318.72399810003117,318.7240365999751,"['Eimer', 'Schere', 'Würfel', 'Socke', 'Bürste', 'Geige', 'Kette', 'Hammer', 'Kamera', 'Telefon', 'Schlüssel', 'Flasche', 'Ring', 'Tasche', 'Uhr', 'Buch', 'Vase', 'Rucksack', 'Brille', 'Hut', 'Tasse', 'Löffel', 'Kiste']",319.22279140003957,325.2289599000942,1,3.3906117000151426,None,325.22923659998924,325.23186040017754,None,325.23197440011427,325.2344311000779,None,325.23453510017134,325.23559610010125,325.2356081001926,325.2368084001355,,,,,,,,,,,,,,,,,,,,,,,,,,,,,,,,,,,,,,,,,,,,,,,,,,,1,2023-12-04_08h35.12.146,watkins1,2023.2.3,99.700698684139,37,2023-12-04 08h35.20.601926 +0000,
,,,,,,,,,,,16,0,16,0,,,,,,,,,,,,,325.24050429998897,,,,,,,,,,325.2370823000092,325.73343370016664,,,3,2.4444065999705344,,,,,,,,,,,,None,None,,,,,,,,,,Vase,blass,"['Vase', 'blass']",restudy_diff,1,,,,,,325.2370190001093,325.237058600178,"['Eimer', 'Schere', 'Würfel', 'Socke', 'Bürste', 'Geige', 'Kette', 'Hammer', 'Kamera', 'Telefon', 'Schlüssel', 'Flasche', 'Ring', 'Tasche', 'Uhr', 'Buch', 'Vase', 'Rucksack', 'Brille', 'Hut', 'Tasse', 'Löffel', 'Kiste']",325.73344560014084,325.73492990015075,None,,,325.73504860000685,325.73678230005316,None,325.7368898000568,331.73883659997955,3,331.7391135999933,331.74029069999233,331.7403030002024,331.7414745001588,2.4444065999705344,None,,,,,,,,,,,,,,,,,,,,,,,,,,,,,,,,,,,,,,,,,,,,,,,,,1,2023-12-04_08h35.12.146,watkins1,2023.2.3,99.700698684139,37,2023-12-04 08h35.20.601926 +0000,
,,,,,,,,,,,17,0,17,0,,,,,,,,,,,,,331.74837819999084,,,,,,,,,,331.74174620001577,332.24041089997627,,,[],[],,,,,,,,,,,,None,None,,,,,,,,,,Rucksack,strahlend,"['Rucksack', 'strahlend']",control,1,,,,,,331.741679900093,331.7417185001541,"['Eimer', 'Schere', 'Würfel', 'Socke', 'Bürste', 'Geige', 'Kette', 'Hammer', 'Kamera', 'Telefon', 'Schlüssel', 'Flasche', 'Ring', 'Tasche', 'Uhr', 'Buch', 'Vase', 'Rucksack', 'Brille', 'Hut', 'Tasse', 'Löffel', 'Kiste']",332.24042140017264,338.24222440016456,1,2.3009629000443965,None,338.24251710018143,338.24543880019337,None,338.2455453001894,338.24822479998693,None,338.24832700006664,338.249563400168,338.249575200025,338.25082880002446,,,,,,,,,,,,,,,,,,,,,,,,,,,,,,,,,,,,,,,,,,,,,,,,,,,1,2023-12-04_08h35.12.146,watkins1,2023.2.3,99.700698684139,37,2023-12-04 08h35.20.601926 +0000,
,,,,,,,,,,,18,0,18,0,,,,,,,,,,,,,338.25446990015917,,,,,,,,,,338.25109950010665,338.7480474000331,,,1,2.3424382000230253,,,,,,,,,,,,None,None,,,,,,,,,,Brille,hohl,"['Brille', 'hohl']",restudy_diff,1,,,,,,338.251035500085,338.25107540003955,"['Eimer', 'Schere', 'Würfel', 'Socke', 'Bürste', 'Geige', 'Kette', 'Hammer', 'Kamera', 'Telefon', 'Schlüssel', 'Flasche', 'Ring', 'Tasche', 'Uhr', 'Buch', 'Vase', 'Rucksack', 'Brille', 'Hut', 'Tasse', 'Löffel', 'Kiste']",338.74805809999816,338.7496517000254,None,,,338.749768699985,338.7512161000632,None,338.7513190000318,344.7569306001533,1,344.75720800017007,344.7585476001259,344.75855979998596,344.75961910001934,2.3424382000230253,None,,,,,,,,,,,,,,,,,,,,,,,,,,,,,,,,,,,,,,,,,,,,,,,,,1,2023-12-04_08h35.12.146,watkins1,2023.2.3,99.700698684139,37,2023-12-04 08h35.20.601926 +0000,
,,,,,,,,,,,19,0,19,0,,,,,,,,,,,,,344.7664245001506,,,,,,,,,,344.75989049999043,345.2585189000238,,,1,2.5502858001273125,,,,,,,,,,,,None,None,,,,,,,,,,Hut,glatt,"['Hut', 'glatt']",restudy_diff,1,,,,,,344.7598257001955,344.7598647000268,"['Eimer', 'Schere', 'Würfel', 'Socke', 'Bürste', 'Geige', 'Kette', 'Hammer', 'Kamera', 'Telefon', 'Schlüssel', 'Flasche', 'Ring', 'Tasche', 'Uhr', 'Buch', 'Vase', 'Rucksack', 'Brille', 'Hut', 'Tasse', 'Löffel', 'Kiste']",345.2585299999919,345.26092380005866,None,,,345.26104100001976,345.26330460002646,None,345.2634072001092,351.2681444999762,1,351.2684263000265,351.2696407001931,351.2696526001673,351.2708104001358,2.5502858001273125,None,,,,,,,,,,,,,,,,,,,,,,,,,,,,,,,,,,,,,,,,,,,,,,,,,1,2023-12-04_08h35.12.146,watkins1,2023.2.3,99.700698684139,37,2023-12-04 08h35.20.601926 +0000,
,,,,,,,,,,,20,0,20,0,,,,,,,,,,,,,351.2775570000522,,,,,,,,,,351.27107550017536,351.7699506999925,,,[],[],,,,,,,,,,,,None,None,,,,,,,,,,Tasse,kalt,"['Tasse', 'kalt']",restudy_diff,1,,,,,,351.2710122000426,351.2710500000976,"['Eimer', 'Schere', 'Würfel', 'Socke', 'Bürste', 'Geige', 'Kette', 'Hammer', 'Kamera', 'Telefon', 'Schlüssel', 'Flasche', 'Ring', 'Tasche', 'Uhr', 'Buch', 'Vase', 'Rucksack', 'Brille', 'Hut', 'Tasse', 'Löffel', 'Kiste']",351.7699615000747,351.77262940001674,None,,,351.77274819999,351.7752465000376,None,351.77535330015235,357.7806648002006,None,357.78079790016636,357.7821129001677,357.7821250001434,357.78317950014025,,,,,,,,,,,,,,,,,,,,,,,,,,,,,,,,,,,,,,,,,,,,,,,,,,,1,2023-12-04_08h35.12.146,watkins1,2023.2.3,99.700698684139,37,2023-12-04 08h35.20.601926 +0000,
,,,,,,,,,,,21,0,21,0,,,,,,,,,,,,,357.7901067000348,,,,,,,,,,357.7834549001418,358.28216870012693,,,[],[],,,,,,,,,,,,None,None,,,,,,,,,,Löffel,winzig,"['Löffel', 'winzig']",control,1,,,,,,357.7833913001232,357.78342940006405,"['Eimer', 'Schere', 'Würfel', 'Socke', 'Bürste', 'Geige', 'Kette', 'Hammer', 'Kamera', 'Telefon', 'Schlüssel', 'Flasche', 'Ring', 'Tasche', 'Uhr', 'Buch', 'Vase', 'Rucksack', 'Brille', 'Hut', 'Tasse', 'Löffel', 'Kiste']",358.28218000009656,364.28752040001564,1,3.8739368999376893,None,364.2877937001176,364.290521300165,None,364.2906271000393,364.293165900046,None,364.2932696000207,364.29444240010343,364.29445380019024,364.2956215001177,,,,,,,,,,,,,,,,,,,,,,,,,,,,,,,,,,,,,,,,,,,,,,,,,,,1,2023-12-04_08h35.12.146,watkins1,2023.2.3,99.700698684139,37,2023-12-04 08h35.20.601926 +0000,
,,,,,,,,,,,22,0,22,0,,,,,,,,,,,,,364.29927020007744,,,,,,,,,,364.2958921000827,364.79286230006255,,,3,3.9216148999985307,,,,,,,,,,,,None,None,,,,,,,,,,Kiste,biegsam,"['Kiste', 'biegsam']",restudy_diff,1,,,,,,364.2958249000367,364.29586790013127,"['Eimer', 'Schere', 'Würfel', 'Socke', 'Bürste', 'Geige', 'Kette', 'Hammer', 'Kamera', 'Telefon', 'Schlüssel', 'Flasche', 'Ring', 'Tasche', 'Uhr', 'Buch', 'Vase', 'Rucksack', 'Brille', 'Hut', 'Tasse', 'Löffel', 'Kiste']",364.79287350014783,364.7944583001081,None,,,364.7945765000768,364.7960301002022,None,364.7961333000567,370.8059260000009,3,370.80620640004054,370.80751319997944,370.807525300188,370.8087423001416,3.9216148999985307,None,,,,,,,,,,,,,,,,,,,,,,,,,,,,,,,,,,,,,,,,,,,,,,,,,1,2023-12-04_08h35.12.146,watkins1,2023.2.3,99.700698684139,37,2023-12-04 08h35.20.601926 +0000,
,,,,,,,,,,,,,,,,,,,,,,,,,,,,,,,,,,,,,,,,,,,,,,,,,,,,,,,,,,,,,,,,,,,,,1,,,,,,,,,,,,,,,,,,,,,,,,,,,,,,,,,,,,,,,,,,,,,,,,,,,,,,,,,,,,,,,,,,,,,,,,,,1,2023-12-04_08h35.12.146,watkins1,2023.2.3,99.700698684139,37,2023-12-04 08h35.20.601926 +0000,
(9 x 5) - 9 = 36 ,Correct,button_correct,,,,,,,,,,,,,0,0,0,4,,,,,,,,,412.99975299998187,,,,,,,,411.9355824000668,412.9395320001058,,,,,['button_correct'],[10.103941000066698],,,,,,,,,,,,,,,,,,,,,,,,,,distractorTask,1,,,,,,,,,,,,,,,,,,,,,,,,,,412.98303680005483,412.99975299998187,423.0973044000566,[0.3388888888888889],[-0.40925925925925927],[1],[0],[0],[10.103941000066698],['button_correct'],423.0980167000089,424.10117739997804,,,,,,,,,,,,,,,,,,,,,,,,,,,,,,,,,,,,,1,2023-12-04_08h35.12.146,watkins1,2023.2.3,99.700698684139,37,2023-12-04 08h35.20.601926 +0000,
(6 x 3) + 10 = 27 ,Incorrect,button_incorrect,,,,,,,,,,,,,0,1,1,8,,,,,,,,,424.11113140010275,,,,,,,,,,,,,,['button_incorrect'],"[6.001942800125107, 6.534349100198597]",,,,,,,,,,,,,,,,,,,,,,,,,,distractorTask,1,,,,,,,,,,,,,,,,,,,,,,,,,,424.10137640009634,424.11113140010275,430.63920470001176,"[-0.2740740740740741, -0.2861111111111111]","[-0.3962962962962963, -0.4009259259259259]","[1, 1]","[0, 0]","[0, 0]","[6.001942800125107, 6.534349100198597]",['button_incorrect'],430.6396127000917,431.6438385001384,,,,,,,,,,,,,,,,,,,,,,,,,,,,,,,,,,,,,1,2023-12-04_08h35.12.146,watkins1,2023.2.3,99.700698684139,37,2023-12-04 08h35.20.601926 +0000,
(2 x 5) + 3 = 13 ,Correct,button_correct,,,,,,,,,,,,,0,2,2,2,,,,,,,,,431.65292190015316,,,,,,,,,,,,,,['button_correct'],[3.100494100013748],,,,,,,,,,,,,,,,,,,,,,,,,,distractorTask,1,,,,,,,,,,,,,,,,,,,,,,,,,,431.64403020008467,431.65292190015316,434.74625050020404,[0.325],[-0.3888888888888889],[1],[0],[0],[3.100494100013748],['button_correct'],434.7466357999947,435.74989180010743,,,,,,,,,,,,,,,,,,,,,,,,,,,,,,,,,,,,,1,2023-12-04_08h35.12.146,watkins1,2023.2.3,99.700698684139,37,2023-12-04 08h35.20.601926 +0000,
(4 : 2) + 4 = 6 ,Correct,button_correct,,,,,,,,,,,,,0,3,3,1,,,,,,,,,435.75993679999374,,,,,,,,,,,,,,['button_correct'],[3.210963699966669],,,,,,,,,,,,,,,,,,,,,,,,,,distractorTask,1,,,,,,,,,,,,,,,,,,,,,,,,,,435.75008320016786,435.75993679999374,438.9635968999937,[0.32314814814814813],[-0.38981481481481484],[1],[0],[0],[3.210963699966669],['button_correct'],438.96398650016636,439.96742830006406,,,,,,,,,,,,,,,,,,,,,,,,,,,,,,,,,,,,,1,2023-12-04_08h35.12.146,watkins1,2023.2.3,99.700698684139,37,2023-12-04 08h35.20.601926 +0000,
(28 : 7) - 3 = 1 ,Correct,button_correct,,,,,,,,,,,,,0,4,4,0,,,,,,,,,439.9774272001814,,,,,,,,,,,,,,['button_correct'],[4.556843899888918],,,,,,,,,,,,,,,,,,,,,,,,,,distractorTask,1,,,,,,,,,,,,,,,,,,,,,,,,,,439.9676205001306,439.9774272001814,444.5272262999788,[0.32222222222222224],[-0.38981481481481484],[1],[0],[0],[4.556843899888918],['button_correct'],444.52761170011945,445.5309506000485,,,,,,,,,,,,,,,,,,,,,,,,,,,,,,,,,,,,,1,2023-12-04_08h35.12.146,watkins1,2023.2.3,99.700698684139,37,2023-12-04 08h35.20.601926 +0000,
(54 : 6) - 10 = 0 ,Incorrect,button_incorrect,,,,,,,,,,,,,0,5,5,5,,,,,,,,,445.5409300001338,,,,,,,,,,,,,,['button_incorrect'],[5.933219600003213],,,,,,,,,,,,,,,,,,,,,,,,,,distractorTask,1,,,,,,,,,,,,,,,,,,,,,,,,,,445.5311402999796,445.5409300001338,451.4661242000293,[-0.3074074074074074],[-0.38981481481481484],[1],[0],[0],[5.933219600003213],['button_incorrect'],451.46650670003146,452.46994630014524,,,,,,,,,,,,,,,,,,,,,,,,,,,,,,,,,,,,,1,2023-12-04_08h35.12.146,watkins1,2023.2.3,99.700698684139,37,2023-12-04 08h35.20.601926 +0000,
(80 : 10) + 9 = 17 ,Correct,button_correct,,,,,,,,,,,,,0,6,6,3,,,,,,,,,452.4798916000873,,,,,,,,,,,,,,['button_correct'],[4.9088997999206185],,,,,,,,,,,,,,,,,,,,,,,,,,distractorTask,1,,,,,,,,,,,,,,,,,,,,,,,,,,452.47014260012656,452.4798916000873,457.38093090010807,[0.32222222222222224],[-0.3814814814814815],[1],[0],[0],[4.9088997999206185],['button_correct'],457.3813277001027,458.38469830015674,,,,,,,,,,,,,,,,,,,,,,,,,,,,,,,,,,,,,1,2023-12-04_08h35.12.146,watkins1,2023.2.3,99.700698684139,37,2023-12-04 08h35.20.601926 +0000,
(40 : 5) + 8 = 15 ,Incorrect,button_incorrect,,,,,,,,,,,,,0,7,7,7,,,,,,,,,458.39468120015226,,,,,,,,,,,,,,['button_incorrect'],[3.483193499967456],,,,,,,,,,,,,,,,,,,,,,,,,,distractorTask,1,,,,,,,,,,,,,,,,,,,,,,,,,,458.3848921000026,458.39468120015226,461.8698721001856,[-0.4027777777777778],[-0.39351851851851855],[1],[0],[0],[3.483193499967456],['button_incorrect'],461.8702542001847,462.87347160000354,,,,,,,,,,,,,,,,,,,,,,,,,,,,,,,,,,,,,1,2023-12-04_08h35.12.146,watkins1,2023.2.3,99.700698684139,37,2023-12-04 08h35.20.601926 +0000,
(7 x 6) + 9 = 48 ,Incorrect,button_incorrect,,,,,,,,,,,,,0,8,8,9,,,,,,,,,462.88340950012207,,,,,,,,,,,,,,['button_incorrect'],[6.2450067000463605],,,,,,,,,,,,,,,,,,,,,,,,,,distractorTask,1,,,,,,,,,,,,,,,,,,,,,,,,,,462.87366310018115,462.88340950012207,469.1203970001079,[-0.3824074074074074],[-0.39166666666666666],[1],[0],[0],[6.2450067000463605],['button_incorrect'],469.12078550015576,470.1241129001137,,,,,,,,,,,,,,,,,,,,,,,,,,,,,,,,,,,,,1,2023-12-04_08h35.12.146,watkins1,2023.2.3,99.700698684139,37,2023-12-04 08h35.20.601926 +0000,
(25 : 5) + 5 = 9 ,Incorrect,button_incorrect,,,,,,,,,,,,,0,9,9,6,,,,,,,,,470.13405820005573,,,,,,,,,,,,,,['button_incorrect'],[3.41265119984746],,,,,,,,,,,,,,,,,,,,,,,,,,distractorTask,1,,,,,,,,,,,,,,,,,,,,,,,,,,470.1243090000935,470.13405820005573,473.5387132000178,[-0.4083333333333333],[-0.40185185185185185],[1],[0],[0],[3.41265119984746],['button_incorrect'],473.53910479997285,474.5424630001653,,,,,,,,,,,,,,,,,,,,,,,,,,,,,,,,,,,,,1,2023-12-04_08h35.12.146,watkins1,2023.2.3,99.700698684139,37,2023-12-04 08h35.20.601926 +0000,
,,,,,,,,,,,,,,,,,,,,,,,,,,,,,,,,,,,,,,,,,,,,,,,,,,,,,,,,,,,,,,,,,,,,,1,,,,,,,,,,,,,,,,,,,,,,,,,,,,,,,,,,,,,,,,,,,,,,,,,,,,,,,,,,,,,,,,,,,,,,,,,,1,2023-12-04_08h35.12.146,watkins1,2023.2.3,99.700698684139,37,2023-12-04 08h35.20.601926 +0000,
,,,,,,,,,,,,,,,,,,,0,0,0,0,,,,,489.7820853001904,,,,,,,,,,,,,,Tasche,9.899853399954736,,,,,,,,,,,,6.84818229987286,None,,,,,,,,,,,,,freeRecallSub,1,,,,,,,,,,,,,,,,,,,,,,,,,,,,,,,,,,,,,,489.7736151001882,489.7820853001904,489.7820853001904,499.6840531001799,return,9.899853399954736,None,Tasche,"[-0.019444444444444445, -0.03148148148148148]","[0.07592592592592592, 0.06296296296296296]","[1, 1]","[0, 0]","[0, 0]","[3.543765499955043, 4.216624799882993]",[],,,,,,,,,,,,,,,,,,,,,,1,2023-12-04_08h35.12.146,watkins1,2023.2.3,99.700698684139,37,2023-12-04 08h35.20.601926 +0000,
,,,,,,,,,,,,,,,,,,,1,0,1,0,,,,,499.6965619002003,,,,,,,,,,,,,,Vase,2.6733692998532206,,,,,,,,,,,,0.9362653999123722,None,,,,,,,,,,,,,freeRecallSub,1,,,,,,,,,,,,,,,,,,,,,,,,,,,,,,,,,,,,,,499.6858916999772,499.6965619002003,499.6965619002003,502.37930819997564,return,2.6733692998532206,None,Vase,[],[],[],[],[],[],[],,,,,,,,,,,,,,,,,,,,,,1,2023-12-04_08h35.12.146,watkins1,2023.2.3,99.700698684139,37,2023-12-04 08h35.20.601926 +0000,
,,,,,,,,,,,,,,,,,,,2,0,2,0,,,,,502.39024790003896,,,,,,,,,,,,,,Hammer,4.443689999869093,,,,,,,,,,,,1.9681071999948472,None,,,,,,,,,,,,,freeRecallSub,1,,,,,,,,,,,,,,,,,,,,,,,,,,,,,,,,,,,,,,502.3805943999905,502.39024790003896,502.39024790003896,506.8394973000977,return,4.443689999869093,None,Hammer,[],[],[],[],[],[],[],,,,,,,,,,,,,,,,,,,,,,1,2023-12-04_08h35.12.146,watkins1,2023.2.3,99.700698684139,37,2023-12-04 08h35.20.601926 +0000,
,,,,,,,,,,,,,,,,,,,3,0,3,0,,,,,506.8505057001021,,,,,,,,,,,,,,Lampe,2.3754292998928577,,,,,,,,,,,,0.5121768999379128,None,,,,,,,,,,,,,freeRecallSub,1,,,,,,,,,,,,,,,,,,,,,,,,,,,,,,,,,,,,,,506.8407706001308,506.8505057001021,506.8505057001021,509.2309461000841,return,2.3754292998928577,None,Lampe,[],[],[],[],[],[],[],,,,,,,,,,,,,,,,,,,,,,1,2023-12-04_08h35.12.146,watkins1,2023.2.3,99.700698684139,37,2023-12-04 08h35.20.601926 +0000,
,,,,,,,,,,,,,,,,,,,4,0,4,0,,,,,509.242404300021,,,,,,,,,,,,,,Brille,2.2234143998939544,,,,,,,,,,,,0.29232620005495846,None,,,,,,,,,,,,,freeRecallSub,1,,,,,,,,,,,,,,,,,,,,,,,,,,,,,,,,,,,,,,509.2322237000335,509.242404300021,509.242404300021,511.47270729998127,return,2.2234143998939544,None,Brille,[],[],[],[],[],[],[],,,,,,,,,,,,,,,,,,,,,,1,2023-12-04_08h35.12.146,watkins1,2023.2.3,99.700698684139,37,2023-12-04 08h35.20.601926 +0000,
,,,,,,,,,,,,,,,,,,,5,0,5,0,,,,,511.48414460010827,,,,,,,,,,,,,,Geige,6.861793800024316,,,,,,,,,,,,3.9675837999675423,None,,,,,,,,,,,,,freeRecallSub,1,,,,,,,,,,,,,,,,,,,,,,,,,,,,,,,,,,,,,,511.4739670001436,511.48414460010827,511.48414460010827,518.3538800000679,return,6.861793800024316,None,Geige,[],[],[],[],[],[],[],,,,,,,,,,,,,,,,,,,,,,1,2023-12-04_08h35.12.146,watkins1,2023.2.3,99.700698684139,37,2023-12-04 08h35.20.601926 +0000,
,,,,,,,,,,,,,,,,,,,6,0,6,0,,,,,518.3651205000933,,,,,,,,,,,,,,Hut,14.012875699903816,,,,,,,,,,,,12.644781599985436,None,,,,,,,,,,,,,freeRecallSub,1,,,,,,,,,,,,,,,,,,,,,,,,,,,,,,,,,,,,,,518.3551567001268,518.3651205000933,518.3651205000933,532.3859261001926,return,14.012875699903816,None,Hut,[],[],[],[],[],[],[],,,,,,,,,,,,,,,,,,,,,,1,2023-12-04_08h35.12.146,watkins1,2023.2.3,99.700698684139,37,2023-12-04 08h35.20.601926 +0000,
,,,,,,,,,,,,,,,,,,,7,0,7,0,,,,,532.3978671000805,,,,,,,,,,,,,,Socke,30.523954499978572,,,,,,,,,,,,28.1595026999712,None,,,,,,,,,,,,,freeRecallSub,1,,,,,,,,,,,,,,,,,,,,,,,,,,,,,,,,,,,,,,532.3871939000674,532.3978671000805,532.3978671000805,562.9268379001878,return,30.523954499978572,None,Socke,[],[],[],[],[],[],[],,,,,,,,,,,,,,,,,,,,,,1,2023-12-04_08h35.12.146,watkins1,2023.2.3,99.700698684139,37,2023-12-04 08h35.20.601926 +0000,
,,,,,,,,,,,,,,,,,,,8,0,8,0,,,,,562.9392169001512,,,,,,,,,,,,,,Jacke,3.5345683998893946,,,,,,,,,,,,1.830121299950406,None,,,,,,,,,,,,,freeRecallSub,1,,,,,,,,,,,,,,,,,,,,,,,,,,,,,,,,,,,,,,562.9283432001248,562.9392169001512,562.9392169001512,566.4758040001616,return,3.5345683998893946,None,Jacke,[],[],[],[],[],[],[],,,,,,,,,,,,,,,,,,,,,,1,2023-12-04_08h35.12.146,watkins1,2023.2.3,99.700698684139,37,2023-12-04 08h35.20.601926 +0000,
,,,,,,,,,,,,,,,,,,,9,0,9,0,,,,,566.4882818001788,,,,,,,,,,,,,,Flasche,28.241520900046453,,,,,,,,,,,,13.941209899960086,None,,,,,,,,,,,,,freeRecallSub,1,,,,,,,,,,,,,,,,,,,,,,,,,,,,,,,,,,,,,,566.4770949000958,566.4882818001788,566.4882818001788,594.738862800179,return,28.241520900046453,None,Flasche,[],[],[],[],[],[],[],,,,,,,,,,,,,,,,,,,,,,1,2023-12-04_08h35.12.146,watkins1,2023.2.3,99.700698684139,37,2023-12-04 08h35.20.601926 +0000,
,,,,,,,,,,,,,,,,,,,10,0,10,0,,,,,594.7514325000811,,,,,,,,,,,,,,Uhr,36.55436150007881,,,,,,,,,,,,34.76879700017162,None,,,,,,,,,,,,,freeRecallSub,1,,,,,,,,,,,,,,,,,,,,,,,,,,,,,,,,,,,,,,594.7401459000539,594.7514325000811,594.7514325000811,631.3064319000114,return,36.55436150007881,None,Uhr,[],[],[],[],[],[],[],,,,,,,,,,,,,,,,,,,,,,1,2023-12-04_08h35.12.146,watkins1,2023.2.3,99.700698684139,37,2023-12-04 08h35.20.601926 +0000,
,,,,,,,,,,,,,,,,,,,11,0,11,0,,,,,631.3192472001538,,,,,,,,,,,,,,Kiste,16.250461400020868,,,,,,,,,,,,14.303357600001618,None,,,,,,,,,,,,,freeRecallSub,1,,,,,,,,,,,,,,,,,,,,,,,,,,,,,,,,,,,,,,631.307744000107,631.3192472001538,631.3192472001538,647.5792549001053,return,16.250461400020868,None,Kiste,[],[],[],[],[],[],[],,,,,,,,,,,,,,,,,,,,,,1,2023-12-04_08h35.12.146,watkins1,2023.2.3,99.700698684139,37,2023-12-04 08h35.20.601926 +0000,
,,,,,,,,,,,,,,,,,,,12,0,12,0,,,,,647.5922323002014,,,,,,,,,,,,,,Kamera,20.401536299847066,,,,,,,,,,,,17.677682100096717,None,,,,,,,,,,,,,freeRecallSub,1,,,,,,,,,,,,,,,,,,,,,,,,,,,,,,,,,,,,,,647.580522299977,647.5922323002014,647.5922323002014,667.9998331000097,return,20.401536299847066,None,Kamera,[],[],[],[],[],[],[],,,,,,,,,,,,,,,,,,,,,,1,2023-12-04_08h35.12.146,watkins1,2023.2.3,99.700698684139,37,2023-12-04 08h35.20.601926 +0000,
,,,,,,,,,,,,,,,,,,,13,0,13,0,,,,,668.0129798999988,,,,,,,,,,,,,,,[],,,,,,,,,,,,None,None,,,,,,,,,,,,,freeRecallSub,1,,,,,,,,,,,,,,,,,,,,,,,,,,,,,,,,,,,,,,668.0011041001417,668.0129798999988,668.0129798999988,677.2750775001477,None,,,,[0.2953703703703704],[-0.41759259259259257],[1],[0],[0],[9.268713700119406],['button_continue'],,,,,,,,,,,,,,,,,,,,,,1,2023-12-04_08h35.12.146,watkins1,2023.2.3,99.700698684139,37,2023-12-04 08h35.20.601926 +0000,
,,,,,,,,,,,,,,,,,,,,,,,,,,,,,,,,,,,,,,,,,,,,,,,,,,,,,,,,,,,,,,,,,,,,,1,,,,,,,,,,,,,,,,,,,,,,,,,,,,,,,,,,,,,,,,,,,,,,,,,,,,,,,,,,,,,,,,,,,,,,,,,,1,2023-12-04_08h35.12.146,watkins1,2023.2.3,99.700698684139,37,2023-12-04 08h35.20.601926 +0000,
,,,,,,,,,,,,,,,,,,,,,,,0,0,0,0,699.1808149002027,,,,,,,,,,737.1694295001216,737.6606694001239,,,,24.948937499895692,,,,,,,,,,,,13.033211099915206,None,,,,,,,,,,Tasche,,,cuedRecallAdj,1,,,,,,,,,,,,,,,,,,,,,,,,,,,,,,,,,,,,,,,,,,,,,,,,,,,,,699.1715577000286,699.1808149002027,0,699.1808149002027,724.1349355999846,flauschig,return,24.948937499895692,None,724.135352600133,724.1444602000993,724.1444602000993,737.1690332000144,,return,13.017126099905,None,,,,,1,2023-12-04_08h35.12.146,watkins1,2023.2.3,99.700698684139,37,2023-12-04 08h35.20.601926 +0000,
,,,,,,,,,,,,,,,,,,,,,,,1,0,1,0,737.6706189000979,,,,,,,,,,746.4270919000264,746.9187648000661,,,rustikal,5.179086399963126,,,,,,,,,,,,0.9632171001285315,None,,,,,,,,,,Würfel,,,cuedRecallAdj,1,,,,,,,,,,,,,,,,,,,,,,,,,,,,,,,,,,,,,,,,,,,,,,,,,,,,,737.6609174001496,737.6706189000979,0,737.6706189000979,742.8526210000273,klobig,return,5.179086399963126,None,742.8528884002008,742.862170400098,742.862170400098,746.4268205000553,rustikal,return,3.5555430001113564,None,,,,,1,2023-12-04_08h35.12.146,watkins1,2023.2.3,99.700698684139,37,2023-12-04 08h35.20.601926 +0000,
,,,,,,,,,,,,,,,,,,,,,,,2,0,2,0,746.9286884001922,,,,,,,,,,753.7389328000136,754.2294252000283,,,gepunktet,3.0249278000555933,,,,,,,,,,,,0.7523968000896275,None,,,,,,,,,,Tasse,,,cuedRecallAdj,1,,,,,,,,,,,,,,,,,,,,,,,,,,,,,,,,,,,,,,,,,,,,,,,,,,,,,746.9190128000919,746.9286884001922,0,746.9286884001922,749.9621190000325,kalt,return,3.0249278000555933,None,749.9623846001923,749.9718351999763,749.9718351999763,753.7386634000577,gepunktet,return,3.766108199954033,None,,,,,1,2023-12-04_08h35.12.146,watkins1,2023.2.3,99.700698684139,37,2023-12-04 08h35.20.601926 +0000,
,,,,,,,,,,,,,,,,,,,,,,,3,0,3,0,754.2404903001152,,,,,,,,,,761.7216408001259,762.213169200113,,,hohl,3.0411781000439078,,,,,,,,,,,,1.8167211001273245,None,,,,,,,,,,Brille,,,cuedRecallAdj,1,,,,,,,,,,,,,,,,,,,,,,,,,,,,,,,,,,,,,,,,,,,,,,,,,,,,,754.2296690000221,754.2404903001152,0,754.2404903001152,757.2831657000352,groß,return,3.0411781000439078,None,757.2834312000778,757.292619400192,757.292619400192,761.7213743000757,hohl,return,4.42101199994795,None,,,,,1,2023-12-04_08h35.12.146,watkins1,2023.2.3,99.700698684139,37,2023-12-04 08h35.20.601926 +0000,
,,,,,,,,,,,,,,,,,,,,,,,4,0,4,0,762.2231185000855,,,,,,,,,,767.3981502000242,767.8967457001563,,,,5.170437099877745,,,,,,,,,,,,None,None,,,,,,,,,,Ring,,,cuedRecallAdj,1,,,,,,,,,,,,,,,,,,,,,,,,,,,,,,,,,,,,,,,,,,,,,,,,,,,,,762.2134122001007,762.2231185000855,0,762.2231185000855,767.3949462000746,robust,return,5.170437099877745,None,767.3952115001157,767.4045113001484,767.4045113001484,767.3980474001728,,None,,,,,,,1,2023-12-04_08h35.12.146,watkins1,2023.2.3,99.700698684139,37,2023-12-04 08h35.20.601926 +0000,
,,,,,,,,,,,,,,,,,,,,,,,5,0,5,0,767.9066693000495,,,,,,,,,,775.177743999986,775.6693687001243,,,niedlich,4.199019900057465,,,,,,,,,,,,0.6521217999979854,None,,,,,,,,,,Kette,,,cuedRecallAdj,1,,,,,,,,,,,,,,,,,,,,,,,,,,,,,,,,,,,,,,,,,,,,,,,,,,,,,767.8969862000085,767.9066693000495,0,767.9066693000495,772.1148883001879,praktisch,return,4.199019900057465,None,772.1151533999946,772.1246113001835,772.1246113001835,775.1774759001564,niedlich,return,3.045034399954602,None,,,,,1,2023-12-04_08h35.12.146,watkins1,2023.2.3,99.700698684139,37,2023-12-04 08h35.20.601926 +0000,
,,,,,,,,,,,,,,,,,,,,,,,6,0,6,0,775.6792774000205,,,,,,,,,,783.161591600161,783.6534655001014,,,blass,5.06634939997457,,,,,,,,,,,,0.9638046999461949,None,,,,,,,,,,Vase,,,cuedRecallAdj,1,,,,,,,,,,,,,,,,,,,,,,,,,,,,,,,,,,,,,,,,,,,,,,,,,,,,,775.6696150000207,775.6792774000205,0,775.6792774000205,780.7507870001718,kratzig,return,5.06634939997457,None,780.7510478000622,780.7603389001451,780.7603389001451,783.1613297001459,blass,return,2.3932445999234915,None,,,,,1,2023-12-04_08h35.12.146,watkins1,2023.2.3,99.700698684139,37,2023-12-04 08h35.20.601926 +0000,
,,,,,,,,,,,,,,,,,,,,,,,7,0,7,0,783.6634188001044,,,,,,,,,,790.796489899978,791.2950865000021,,,,7.122136899968609,,,,,,,,,,,,None,None,,,,,,,,,,Buch,,,cuedRecallAdj,1,,,,,,,,,,,,,,,,,,,,,,,,,,,,,,,,,,,,,,,,,,,,,,,,,,,,,783.6537097000983,783.6634188001044,0,783.6634188001044,790.7932765001897,elegant,return,7.122136899968609,None,790.793542200001,790.8029428999871,790.8029428999871,790.7963877001312,,None,,,,,,,1,2023-12-04_08h35.12.146,watkins1,2023.2.3,99.700698684139,37,2023-12-04 08h35.20.601926 +0000,
,,,,,,,,,,,,,,,,,,,,,,,8,0,8,0,791.3050246001221,,,,,,,,,,797.6321487000678,798.1233497001231,,,biegsam,2.8485256999265403,,,,,,,,,,,,0.5013792999088764,None,,,,,,,,,,Kiste,,,cuedRecallAdj,1,,,,,,,,,,,,,,,,,,,,,,,,,,,,,,,,,,,,,,,,,,,,,,,,,,,,,791.2953257001936,791.3050246001221,0,791.3050246001221,794.1573116001673,matt,return,2.8485256999265403,None,794.1575976000167,794.1668166001327,794.1668166001327,797.6318791999947,biegsam,return,3.458862599916756,None,,,,,1,2023-12-04_08h35.12.146,watkins1,2023.2.3,99.700698684139,37,2023-12-04 08h35.20.601926 +0000,
,,,,,,,,,,,,,,,,,,,,,,,9,0,9,0,798.1334097001236,,,,,,,,,,803.0143652001861,803.5059269000776,,,teuer,2.564160600071773,,,,,,,,,,,,0.8831287999637425,None,,,,,,,,,,Flasche,,,cuedRecallAdj,1,,,,,,,,,,,,,,,,,,,,,,,,,,,,,,,,,,,,,,,,,,,,,,,,,,,,,798.1235948000103,798.1334097001236,0,798.1334097001236,800.7044023000635,nass,return,2.564160600071773,None,800.7046700001229,800.7139018001035,800.7139018001035,803.0140955001116,teuer,return,2.2955925001297146,None,,,,,1,2023-12-04_08h35.12.146,watkins1,2023.2.3,99.700698684139,37,2023-12-04 08h35.20.601926 +0000,
,,,,,,,,,,,,,,,,,,,,,,,10,0,10,0,803.5158553000074,,,,,,,,,,812.4736799001694,812.9653063002042,,,kaputt,4.237921399995685,,,,,,,,,,,,2.9709493000991642,None,,,,,,,,,,Hammer,,,cuedRecallAdj,1,,,,,,,,,,,,,,,,,,,,,,,,,,,,,,,,,,,,,,,,,,,,,,,,,,,,,803.5061757999938,803.5158553000074,0,803.5158553000074,807.7547154000495,verspielt,return,4.237921399995685,None,807.7549811999779,807.7634588000365,807.7634588000365,812.4734081001952,kaputt,return,4.702143099857494,None,,,,,1,2023-12-04_08h35.12.146,watkins1,2023.2.3,99.700698684139,37,2023-12-04 08h35.20.601926 +0000,
,,,,,,,,,,,,,,,,,,,,,,,11,0,11,0,812.9752564001828,,,,,,,,,,819.8477549999952,820.3460058001801,,,,6.8662547001149505,,,,,,,,,,,,None,None,,,,,,,,,,Löffel,,,cuedRecallAdj,1,,,,,,,,,,,,,,,,,,,,,,,,,,,,,,,,,,,,,,,,,,,,,,,,,,,,,812.9655506000854,812.9752564001828,0,812.9752564001828,819.8443980000447,winzig,return,6.8662547001149505,None,819.8446665001102,819.8539351001382,819.8539351001382,819.8476527000312,,None,,,,,,,1,2023-12-04_08h35.12.146,watkins1,2023.2.3,99.700698684139,37,2023-12-04 08h35.20.601926 +0000,
,,,,,,,,,,,,,,,,,,,,,,,12,0,12,0,820.3559597001877,,,,,,,,,,826.7936069001444,827.2852376000956,,,dick,3.7495808999519795,,,,,,,,,,,,1.4956410999875516,None,,,,,,,,,,Socke,,,cuedRecallAdj,1,,,,,,,,,,,,,,,,,,,,,,,,,,,,,,,,,,,,,,,,,,,,,,,,,,,,,820.3462510001846,820.3559597001877,0,820.3559597001877,824.1121827000752,sportlich,return,3.7495808999519795,None,824.1124541000463,824.121643200051,824.121643200051,826.79333770019,dick,return,2.663943399908021,None,,,,,1,2023-12-04_08h35.12.146,watkins1,2023.2.3,99.700698684139,37,2023-12-04 08h35.20.601926 +0000,
,,,,,,,,,,,,,,,,,,,,,,,13,0,13,0,827.2951849000528,,,,,,,,,,853.3665938000195,853.8654336000327,,,,26.06629079999402,,,,,,,,,,,,None,None,,,,,,,,,,Kamera,,,cuedRecallAdj,1,,,,,,,,,,,,,,,,,,,,,,,,,,,,,,,,,,,,,,,,,,,,,,,,,,,,,827.285482400097,827.2951849000528,0,827.2951849000528,853.3639687001705,,return,26.06629079999402,None,853.364236399997,853.3735022000037,853.3735022000037,853.3664913000539,,None,,,,,,,1,2023-12-04_08h35.12.146,watkins1,2023.2.3,99.700698684139,37,2023-12-04 08h35.20.601926 +0000,
,,,,,,,,,,,,,,,,,,,,,,,14,0,14,0,853.8753672000021,,,,,,,,,,859.5103637999855,860.001754200086,,,glatt,2.7582088001072407,,,,,,,,,,,,1.3147024000063539,None,,,,,,,,,,Hut,,,cuedRecallAdj,1,,,,,,,,,,,,,,,,,,,,,,,,,,,,,,,,,,,,,,,,,,,,,,,,,,,,,853.8656846000813,853.8753672000021,0,853.8753672000021,856.6375372000039,gut,return,2.7582088001072407,None,856.6378027000464,856.6471965999808,856.6471965999808,859.5100742001086,glatt,return,2.8584084999747574,None,,,,,1,2023-12-04_08h35.12.146,watkins1,2023.2.3,99.700698684139,37,2023-12-04 08h35.20.601926 +0000,
,,,,,,,,,,,,,,,,,,,,,,,15,0,15,0,860.0117031000555,,,,,,,,,,861.8125064000487,862.3113385001197,,,,1.7897731000557542,,,,,,,,,,,,None,None,,,,,,,,,,Stift,,,cuedRecallAdj,1,,,,,,,,,,,,,,,,,,,,,,,,,,,,,,,,,,,,,,,,,,,,,,,,,,,,,860.0019998999778,860.0117031000555,0,860.0117031000555,861.8093715000432,neu,return,1.7897731000557542,None,861.8096365001984,861.8192251999862,861.8192251999862,861.8124049999751,,None,,,,,,,1,2023-12-04_08h35.12.146,watkins1,2023.2.3,99.700698684139,37,2023-12-04 08h35.20.601926 +0000,
,,,,,,,,,,,,,,,,,,,,,,,16,0,16,0,862.321283900179,,,,,,,,,,878.3490143001545,878.8404099000618,,,,4.696286800084636,,,,,,,,,,,,11.326704100007191,None,,,,,,,,,,Geige,,,cuedRecallAdj,1,,,,,,,,,,,,,,,,,,,,,,,,,,,,,,,,,,,,,,,,,,,,,,,,,,,,,862.3115815001074,862.321283900179,0,862.321283900179,867.0213272999972,krumm,return,4.696286800084636,None,867.0215953001752,867.030842400156,867.030842400156,878.3487453002017,,return,11.31471149995923,None,,,,,1,2023-12-04_08h35.12.146,watkins1,2023.2.3,99.700698684139,37,2023-12-04 08h35.20.601926 +0000,
,,,,,,,,,,,,,,,,,,,,,,,17,0,17,0,878.8503064000979,,,,,,,,,,885.0095266001299,885.5081160000991,,,,6.151213499950245,,,,,,,,,,,,None,None,,,,,,,,,,Rucksack,,,cuedRecallAdj,1,,,,,,,,,,,,,,,,,,,,,,,,,,,,,,,,,,,,,,,,,,,,,,,,,,,,,878.8406498001423,878.8503064000979,0,878.8503064000979,885.0063760001212,strahlend,return,6.151213499950245,None,885.0066418000497,885.0159917001147,885.0159917001147,885.0094235001598,,None,,,,,,,1,2023-12-04_08h35.12.146,watkins1,2023.2.3,99.700698684139,37,2023-12-04 08h35.20.601926 +0000,
,,,,,,,,,,,,,,,,,,,,,,,18,0,18,0,885.5180695999879,,,,,,,,,,892.4575738999993,892.949189200066,,,flach,3.9234635001048446,,,,,,,,,,,,1.6061087001580745,None,,,,,,,,,,Schlüssel,,,cuedRecallAdj,1,,,,,,,,,,,,,,,,,,,,,,,,,,,,,,,,,,,,,,,,,,,,,,,,,,,,,885.508366300026,885.5180695999879,0,885.5180695999879,889.4448793001939,schmutzig,return,3.9234635001048446,None,889.4451365000568,889.4544610001612,889.4544610001612,892.4573047000449,flach,return,2.995078699896112,None,,,,,1,2023-12-04_08h35.12.146,watkins1,2023.2.3,99.700698684139,37,2023-12-04 08h35.20.601926 +0000,
,,,,,,,,,,,,,,,,,,,,,,,19,0,19,0,892.959136400139,,,,,,,,,,895.1717615001835,895.6703998001758,,,,2.202461700187996,,,,,,,,,,,,None,None,,,,,,,,,,Eimer,,,cuedRecallAdj,1,,,,,,,,,,,,,,,,,,,,,,,,,,,,,,,,,,,,,,,,,,,,,,,,,,,,,892.9494312000461,892.959136400139,0,892.959136400139,895.1685909000225,lang,return,2.202461700187996,None,895.1688585001975,895.1784086001571,895.1784086001571,895.1716573999729,,None,,,,,,,1,2023-12-04_08h35.12.146,watkins1,2023.2.3,99.700698684139,37,2023-12-04 08h35.20.601926 +0000,
,,,,,,,,,,,,,,,,,,,,,,,20,0,20,0,895.6803419999778,,,,,,,,,,898.3853543000296,898.8836762001738,,,,2.6972018000669777,,,,,,,,,,,,None,None,,,,,,,,,,Schere,,,cuedRecallAdj,1,,,,,,,,,,,,,,,,,,,,,,,,,,,,,,,,,,,,,,,,,,,,,,,,,,,,,895.6706460001878,895.6803419999778,0,895.6803419999778,898.3821342000738,schwer,return,2.6972018000669777,None,898.3824030000251,898.3916573000606,898.3916573000606,898.3852519001812,,None,,,,,,,1,2023-12-04_08h35.12.146,watkins1,2023.2.3,99.700698684139,37,2023-12-04 08h35.20.601926 +0000,
,,,,,,,,,,,,,,,,,,,,,,,21,0,21,0,898.8937270999886,,,,,,,,,,901.2669161001686,901.7655828001443,,,,2.3637705000583082,,,,,,,,,,,,None,None,,,,,,,,,,Telefon,,,cuedRecallAdj,1,,,,,,,,,,,,,,,,,,,,,,,,,,,,,,,,,,,,,,,,,,,,,,,,,,,,,898.8839242001995,898.8937270999886,0,898.8937270999886,901.2638904000632,breit,return,2.3637705000583082,None,901.2641569001134,901.2734970999882,901.2734970999882,901.2668132002,,None,,,,,,,1,2023-12-04_08h35.12.146,watkins1,2023.2.3,99.700698684139,37,2023-12-04 08h35.20.601926 +0000,
,,,,,,,,,,,,,,,,,,,,,,,22,0,22,0,901.7755331001244,,,,,,,,,,905.3335333000869,905.8323360001668,,,,3.545864999992773,,,,,,,,,,,,None,None,,,,,,,,,,Fahrrad,,,cuedRecallAdj,1,,,,,,,,,,,,,,,,,,,,,,,,,,,,,,,,,,,,,,,,,,,,,,,,,,,,,901.765826200135,901.7755331001244,0,901.7755331001244,905.3304970001336,sauber,return,3.545864999992773,None,905.3307642000727,905.3403225000948,905.3403225000948,905.3334305000026,,None,,,,,,,1,2023-12-04_08h35.12.146,watkins1,2023.2.3,99.700698684139,37,2023-12-04 08h35.20.601926 +0000,
,,,,,,,,,,,,,,,,,,,,,,,23,0,23,0,905.8422868000343,,,,,,,,,,908.9989256002009,909.4976111000869,,,,3.1512523000128567,,,,,,,,,,,,None,None,,,,,,,,,,Blume,,,cuedRecallAdj,1,,,,,,,,,,,,,,,,,,,,,,,,,,,,,,,,,,,,,,,,,,,,,,,,,,,,,905.8325772001408,905.8422868000343,0,905.8422868000343,908.9958645000588,schlicht,return,3.1512523000128567,None,908.9961304999888,909.005410999991,909.005410999991,908.9988208999857,,None,,,,,,,1,2023-12-04_08h35.12.146,watkins1,2023.2.3,99.700698684139,37,2023-12-04 08h35.20.601926 +0000,
,,,,,,,,,,,,,,,,,,,,,,,24,0,24,0,909.5075746001676,,,,,,,,,,911.9009830001742,912.3995099000167,,,,2.389893400017172,,,,,,,,,,,,None,None,,,,,,,,,,Lampe,,,cuedRecallAdj,1,,,,,,,,,,,,,,,,,,,,,,,,,,,,,,,,,,,,,,,,,,,,,,,,,,,,,909.4978571999818,909.5075746001676,0,909.5075746001676,911.8979774999898,bunt,return,2.389893400017172,None,911.8982650001999,911.9074119001161,911.9074119001161,911.9008746000472,,None,,,,,,,1,2023-12-04_08h35.12.146,watkins1,2023.2.3,99.700698684139,37,2023-12-04 08h35.20.601926 +0000,
,,,,,,,,,,,,,,,,,,,,,,,25,0,25,0,912.4094512001611,,,,,,,,,,914.9036020999774,915.4020973001607,,,,2.4880754998885095,,,,,,,,,,,,None,None,,,,,,,,,,Jacke,,,cuedRecallAdj,1,,,,,,,,,,,,,,,,,,,,,,,,,,,,,,,,,,,,,,,,,,,,,,,,,,,,,912.3997531000059,912.4094512001611,0,912.4094512001611,914.900610400131,dunkel,return,2.4880754998885095,None,914.9008752000518,914.9099642001092,914.9099642001092,914.9035002000164,,None,,,,,,,1,2023-12-04_08h35.12.146,watkins1,2023.2.3,99.700698684139,37,2023-12-04 08h35.20.601926 +0000,
,,,,,,,,,,,,,,,,,,,,,,,26,0,26,0,915.4120364000555,,,,,,,,,,933.9395550000481,934.4311880001333,,,,3.6293334998190403,,,,,,,,,,,,14.891230100067332,None,,,,,,,,,,Uhr,,,cuedRecallAdj,1,,,,,,,,,,,,,,,,,,,,,,,,,,,,,,,,,,,,,,,,,,,,,,,,,,,,,915.4023433001712,915.4120364000555,0,915.4120364000555,919.0474982000887,hässlich,return,3.6293334998190403,None,919.0477684000507,919.0570294000208,919.0570294000208,933.9392901000101,,return,14.872386800125241,None,,,,,1,2023-12-04_08h35.12.146,watkins1,2023.2.3,99.700698684139,37,2023-12-04 08h35.20.601926 +0000,
,,,,,,,,,,,,,,,,,,,,,,,27,0,27,0,934.4411385999992,,,,,,,,,,940.1190447001718,940.6172174001113,,,,5.6722551002167165,,,,,,,,,,,,None,None,,,,,,,,,,Kerze,,,cuedRecallAdj,1,,,,,,,,,,,,,,,,,,,,,,,,,,,,,,,,,,,,,,,,,,,,,,,,,,,,,934.4314300001133,934.4411385999992,0,934.4411385999992,940.1155995000154,durchsichtig,return,5.6722551002167165,None,940.1158659001812,940.1251172001939,940.1251172001939,940.1189404001925,,None,,,,,,,1,2023-12-04_08h35.12.146,watkins1,2023.2.3,99.700698684139,37,2023-12-04 08h35.20.601926 +0000,
,,,,,,,,,,,,,,,,,,,,,,,28,0,28,0,940.6272679001559,,,,,,,,,,966.3755948999897,966.8669653001707,,,schön,8.902088399976492,,,,,,,,,,,,14.79093259992078,None,,,,,,,,,,Bürste,,,cuedRecallAdj,1,,,,,,,,,,,,,,,,,,,,,,,,,,,,,,,,,,,,,,,,,,,,,,,,,,,,,940.6174624001142,940.6272679001559,0,940.6272679001559,949.5345900000539,gestreift,return,8.902088399976492,None,949.5348551999778,949.5441034000833,949.5441034000833,966.3753244001418,schön,return,16.825463599991053,None,,,,,1,2023-12-04_08h35.12.146,watkins1,2023.2.3,99.700698684139,37,2023-12-04 08h35.20.601926 +0000,
,,,,,,,,,,,,,,,,,,,,,,,29,0,29,0,966.8769231999759,,,,,,,,,,970.7878340000752,971.28548890003,,,,3.9004341000691056,,,,,,,,,,,,None,None,,,,,,,,,,Trommel,,,cuedRecallAdj,1,,,,,,,,,,,,,,,,,,,,,,,,,,,,,,,,,,,,,,,,,,,,,,,,,,,,,966.8672096000519,966.8769231999759,0,966.8769231999759,970.7843907000497,glänzend,return,3.9004341000691056,None,970.7846508000512,970.7933366000652,970.7933366000652,970.7876968001947,,None,,,,,,,1,2023-12-04_08h35.12.146,watkins1,2023.2.3,99.700698684139,37,2023-12-04 08h35.20.601926 +0000,
,,,,,,,,,,,,,,,,,,,,,,,,,,,,,,,,,,,,,,,,,,,,,,,,,,,,,,,,,,,,,,,,,,,,,1,,,,,,,,,,,,,,,,,,,,,,,,,,,,,,,,,,,,,,,,,,,,,,,,,,,,,,,,,,,,,,,,,,,,,,971.3020941000432,q,1510.289771700045,None,1,2023-12-04_08h35.12.146,watkins1,2023.2.3,99.700698684139,37,2023-12-04 08h35.20.601926 +0000,
