Equation,CorrectResponse,Correctbutton,trials_7.thisRepN,trials_7.thisTrialN,trials_7.thisN,trials_7.thisIndex,trials.thisRepN,trials.thisTrialN,trials.thisN,trials.thisIndex,trials_3.thisRepN,trials_3.thisTrialN,trials_3.thisN,trials_3.thisIndex,trials_2.thisRepN,trials_2.thisTrialN,trials_2.thisN,trials_2.thisIndex,trials_4.thisRepN,trials_4.thisTrialN,trials_4.thisN,trials_4.thisIndex,trials_5.thisRepN,trials_5.thisTrialN,trials_5.thisN,trials_5.thisIndex,thisRow.t,notes,code_marius.started,code_marius.stopped,welcome.started,welcome.stopped,instruction_study.started,instruction_study.stopped,fixationcross.started,fixationcross.stopped,blanc.started,blanc.stopped,study_control_probe.started,study_control_probe.stopped,responseKey,responseTime,scale_answer_2.keys,study_control_probe_2.started,study_control_probe_2.stopped,scale_answer_3.keys,scale_answer_3.rt,scale_answer_3.duration,blanc_2.started,blanc_2.stopped,test_attr_probe.started,test_attr_probe.stopped,recalled_attr,firstKeyTime,secondWordTime,blanc_3.started,blanc_3.stopped,test_sub_probe.started,test_sub_probe.stopped,recalled_sub,instruction_probe_end.started,instruction_probe_end.stopped,study.started,study.stopped,substantive,adjective,wordpair,task,condition,liste_sub_phase1,liste_adj_phase1,scale_answer.keys,scale_answer.rt,scale_answer.duration,code_defineWordsInit.started,code_defineWordsInit.stopped,liste_sub_phase2,study_control.started,study_control.stopped,scale_answer_4.keys,restudy_same.started,restudy_same.stopped,scale_answer_5.keys,restudy_different.started,restudy_different.stopped,scale_answer_6.keys,scale_answer_6.rt,scale_answer_6.duration,test_attr.started,test_attr.stopped,test_sub.started,test_sub.stopped,scale_answer_4.rt,scale_answer_4.duration,distractortask.started,equation_text.started,distractortask.stopped,mouse_answer.x,mouse_answer.y,mouse_answer.leftButton,mouse_answer.midButton,mouse_answer.rightButton,mouse_answer.time,mouse_answer.clicked_name,feedback_distractortask.started,feedback_distractortask.stopped,free_recall.started,text_enter.started,key_resp.started,free_recall.stopped,key_resp.keys,key_resp.rt,key_resp.duration,free_recalled_sub,mouse_continue.x,mouse_continue.y,mouse_continue.leftButton,mouse_continue.midButton,mouse_continue.rightButton,mouse_continue.time,mouse_continue.clicked_name,cued_recall.started,text_enter_2.started,correct,key_continue.started,cued_recall.stopped,recalled_attr1,key_continue.keys,key_continue.rt,key_continue.duration,cued_recall_2.started,text_enter_3.started,key_continue_2.started,cued_recall_2.stopped,recalled_attr2,key_continue_2.keys,key_continue_2.rt,key_continue_2.duration,key_resp_8.started,key_resp_8.keys,key_resp_8.rt,key_resp_8.duration,condition,date,expName,psychopyVersion,frameRate,participant,expStart,
,,,,,,,,,,,,,,,,,,,,,,,,,,,,,0.11270239995792508,0.11276599997654557,0.11277440004050732,12.828161200042814,,,,,,,,,,,,,,,,,,,,,,,,,,,,,,,,,,,,,1,,,,,,,,,,,,,,,,,,,,,,,,,,,,,,,,,,,,,,,,,,,,,,,,,,,,,,,,,,,,,,,,,,,,,,,,,,1,2023-12-12_14h33.29.007,watkins1,2023.2.3,99.75261340018018,63,2023-12-12 14h33.37.863316 +0000,
,,,,,,,,,,,,,,,,,,,,,,,,,,,,,,,,,12.82820999994874,45.282856500241905,,,,,,,,,,,,,,,,,,,,,,,,,,,,,,,,,,,1,,,,,,,,,,,,,,,,,,,,,,,,,,,,,,,,,,,,,,,,,,,,,,,,,,,,,,,,,,,,,,,,,,,,,,,,,,1,2023-12-12_14h33.29.007,watkins1,2023.2.3,99.75261340018018,63,2023-12-12 14h33.37.863316 +0000,
,,,0,0,0,0,,,,,,,,,,,,,,,,,,,,,46.29637650027871,,,,,,,,45.28287289990112,46.28637279989198,52.82072259997949,53.31567749986425,46.778395200148225,52.820548799820244,3,2.523886800277978,None,53.31568819982931,59.31868760008365,3,2.523886800277978,None,59.31897909985855,59.319002100266516,59.31900889985263,59.31908700009808,,None,None,59.319244199898094,59.319263299927115,59.31926999986172,59.31934010004625,,,,,,,,,,1,,,,,,,,,,,,,,,,,,,,,,,,,,,,,,,,,,,,,,,,,,,,,,,,,,,,,,,,,,,,,,,,,,,,,,,,,,1,2023-12-12_14h33.29.007,watkins1,2023.2.3,99.75261340018018,63,2023-12-12 14h33.37.863316 +0000,
,,,,,,,,,,,,,,,,,,,,,,,,,,,,,,,,,,,,,,,,,,,,,,,,,,,,,,,,,,,,,59.319449400063604,65.15007560001686,,,,,,,1,,,,,,,,,,,,,,,,,,,,,,,,,,,,,,,,,,,,,,,,,,,,,,,,,,,,,,,,,,,,,,,,,,,,,,,,,,1,2023-12-12_14h33.29.007,watkins1,2023.2.3,99.75261340018018,63,2023-12-12 14h33.37.863316 +0000,
,,,,,,,0,0,0,0,,,,,,,,,,,,,,,,,66.16367600020021,,,,,,,,65.15009179990739,66.15369539987296,66.15414480026811,66.64574720012024,,,1,1.5617750999517739,,,,,,,,,,,,,,,,,,,,,66.6457572998479,72.64769509993494,Jacke,strahlend,"['Jacke', 'strahlend']",restudy_diff,1,"['Jacke', 'Kette', 'Hammer', 'Fahrrad', 'Kiste', 'Buch', 'Geige', 'Blume', 'Hut', 'Löffel', 'Eimer', 'Lampe', 'Vase', 'Schere', 'Flasche', 'Brille', 'Bürste', 'Würfel', 'Telefon', 'Uhr', 'Kerze', 'Stift']",['strahlend'],1,1.5617750999517739,None,,,,,,,,,,,,,,,,,,,,,,,,,,,,,,,,,,,,,,,,,,,,,,,,,,,,,,,,,,,,,,,,,,,,,1,2023-12-12_14h33.29.007,watkins1,2023.2.3,99.75261340018018,63,2023-12-12 14h33.37.863316 +0000,
,,,,,,,1,0,1,0,,,,,,,,,,,,,,,,,72.65716669987887,,,,,,,,,,72.64828690001741,73.13923959992826,,,1,1.9541313000954688,,,,,,,,,,,,,,,,,,,,,73.13925000000745,79.14657119987532,Kette,hohl,"['Kette', 'hohl']",restudy_diff,1,"['Jacke', 'Kette', 'Hammer', 'Fahrrad', 'Kiste', 'Buch', 'Geige', 'Blume', 'Hut', 'Löffel', 'Eimer', 'Lampe', 'Vase', 'Schere', 'Flasche', 'Brille', 'Bürste', 'Würfel', 'Telefon', 'Uhr', 'Kerze', 'Stift']","['strahlend', 'hohl']",1,1.9541313000954688,None,,,,,,,,,,,,,,,,,,,,,,,,,,,,,,,,,,,,,,,,,,,,,,,,,,,,,,,,,,,,,,,,,,,,,1,2023-12-12_14h33.29.007,watkins1,2023.2.3,99.75261340018018,63,2023-12-12 14h33.37.863316 +0000,
,,,,,,,2,0,2,0,,,,,,,,,,,,,,,,,79.15604479983449,,,,,,,,,,79.14703610027209,79.63804739993066,,,3,1.2059800000861287,,,,,,,,,,,,,,,,,,,,,79.6380580002442,85.64631950017065,Hammer,praktisch,"['Hammer', 'praktisch']",restudy_diff,1,"['Jacke', 'Kette', 'Hammer', 'Fahrrad', 'Kiste', 'Buch', 'Geige', 'Blume', 'Hut', 'Löffel', 'Eimer', 'Lampe', 'Vase', 'Schere', 'Flasche', 'Brille', 'Bürste', 'Würfel', 'Telefon', 'Uhr', 'Kerze', 'Stift']","['strahlend', 'hohl', 'praktisch']",3,1.2059800000861287,None,,,,,,,,,,,,,,,,,,,,,,,,,,,,,,,,,,,,,,,,,,,,,,,,,,,,,,,,,,,,,,,,,,,,,1,2023-12-12_14h33.29.007,watkins1,2023.2.3,99.75261340018018,63,2023-12-12 14h33.37.863316 +0000,
,,,,,,,3,0,3,0,,,,,,,,,,,,,,,,,85.65588400000706,,,,,,,,,,85.64678800012916,86.13798450026661,,,2,1.6748140999116004,,,,,,,,,,,,,,,,,,,,,86.13799489988014,92.13948050001636,Fahrrad,dunkel,"['Fahrrad', 'dunkel']",restudy_diff,1,"['Jacke', 'Kette', 'Hammer', 'Fahrrad', 'Kiste', 'Buch', 'Geige', 'Blume', 'Hut', 'Löffel', 'Eimer', 'Lampe', 'Vase', 'Schere', 'Flasche', 'Brille', 'Bürste', 'Würfel', 'Telefon', 'Uhr', 'Kerze', 'Stift']","['strahlend', 'hohl', 'praktisch', 'dunkel']",2,1.6748140999116004,None,,,,,,,,,,,,,,,,,,,,,,,,,,,,,,,,,,,,,,,,,,,,,,,,,,,,,,,,,,,,,,,,,,,,,1,2023-12-12_14h33.29.007,watkins1,2023.2.3,99.75261340018018,63,2023-12-12 14h33.37.863316 +0000,
,,,,,,,4,0,4,0,,,,,,,,,,,,,,,,,92.14906480023637,,,,,,,,,,92.13994520017877,92.6310812998563,,,2,1.358616900164634,,,,,,,,,,,,,,,,,,,,,92.63109199982136,98.64079029997811,Kiste,lang,"['Kiste', 'lang']",restudy_diff,1,"['Jacke', 'Kette', 'Hammer', 'Fahrrad', 'Kiste', 'Buch', 'Geige', 'Blume', 'Hut', 'Löffel', 'Eimer', 'Lampe', 'Vase', 'Schere', 'Flasche', 'Brille', 'Bürste', 'Würfel', 'Telefon', 'Uhr', 'Kerze', 'Stift']","['strahlend', 'hohl', 'praktisch', 'dunkel', 'lang']",2,1.358616900164634,None,,,,,,,,,,,,,,,,,,,,,,,,,,,,,,,,,,,,,,,,,,,,,,,,,,,,,,,,,,,,,,,,,,,,,1,2023-12-12_14h33.29.007,watkins1,2023.2.3,99.75261340018018,63,2023-12-12 14h33.37.863316 +0000,
,,,,,,,5,0,5,0,,,,,,,,,,,,,,,,,98.65027050022036,,,,,,,,,,98.64126650011167,99.13230200018734,,,2,1.6328446003608406,,,,,,,,,,,,,,,,,,,,,99.13231260003522,105.13298769993708,Buch,robust,"['Buch', 'robust']",restudy_diff,1,"['Jacke', 'Kette', 'Hammer', 'Fahrrad', 'Kiste', 'Buch', 'Geige', 'Blume', 'Hut', 'Löffel', 'Eimer', 'Lampe', 'Vase', 'Schere', 'Flasche', 'Brille', 'Bürste', 'Würfel', 'Telefon', 'Uhr', 'Kerze', 'Stift']","['strahlend', 'hohl', 'praktisch', 'dunkel', 'lang', 'robust']",2,1.6328446003608406,None,,,,,,,,,,,,,,,,,,,,,,,,,,,,,,,,,,,,,,,,,,,,,,,,,,,,,,,,,,,,,,,,,,,,,1,2023-12-12_14h33.29.007,watkins1,2023.2.3,99.75261340018018,63,2023-12-12 14h33.37.863316 +0000,
,,,,,,,6,0,6,0,,,,,,,,,,,,,,,,,105.14257449982688,,,,,,,,,,105.13347430014983,105.62446130020544,,,1,1.5247349999845028,,,,,,,,,,,,,,,,,,,,,105.62447170028463,111.63463289989159,Geige,niedlich,"['Geige', 'niedlich']",restudy_diff,1,"['Jacke', 'Kette', 'Hammer', 'Fahrrad', 'Kiste', 'Buch', 'Geige', 'Blume', 'Hut', 'Löffel', 'Eimer', 'Lampe', 'Vase', 'Schere', 'Flasche', 'Brille', 'Bürste', 'Würfel', 'Telefon', 'Uhr', 'Kerze', 'Stift']","['strahlend', 'hohl', 'praktisch', 'dunkel', 'lang', 'robust', 'niedlich']",1,1.5247349999845028,None,,,,,,,,,,,,,,,,,,,,,,,,,,,,,,,,,,,,,,,,,,,,,,,,,,,,,,,,,,,,,,,,,,,,,1,2023-12-12_14h33.29.007,watkins1,2023.2.3,99.75261340018018,63,2023-12-12 14h33.37.863316 +0000,
,,,,,,,7,0,7,0,,,,,,,,,,,,,,,,,111.64410270005465,,,,,,,,,,111.63511050026864,112.12610210012645,,,2,2.183986200019717,,,,,,,,,,,,,,,,,,,,,112.1261128000915,118.1348001002334,Blume,gepunktet,"['Blume', 'gepunktet']",restudy_diff,1,"['Jacke', 'Kette', 'Hammer', 'Fahrrad', 'Kiste', 'Buch', 'Geige', 'Blume', 'Hut', 'Löffel', 'Eimer', 'Lampe', 'Vase', 'Schere', 'Flasche', 'Brille', 'Bürste', 'Würfel', 'Telefon', 'Uhr', 'Kerze', 'Stift']","['strahlend', 'hohl', 'praktisch', 'dunkel', 'lang', 'robust', 'niedlich', 'gepunktet']",2,2.183986200019717,None,,,,,,,,,,,,,,,,,,,,,,,,,,,,,,,,,,,,,,,,,,,,,,,,,,,,,,,,,,,,,,,,,,,,,1,2023-12-12_14h33.29.007,watkins1,2023.2.3,99.75261340018018,63,2023-12-12 14h33.37.863316 +0000,
,,,,,,,8,0,8,0,,,,,,,,,,,,,,,,,118.14428779995069,,,,,,,,,,118.13526909984648,118.62632270017639,,,1,1.4672203999944031,,,,,,,,,,,,,,,,,,,,,118.62633310025558,124.63682769984007,Hut,zart,"['Hut', 'zart']",control,1,"['Jacke', 'Kette', 'Hammer', 'Fahrrad', 'Kiste', 'Buch', 'Geige', 'Blume', 'Hut', 'Löffel', 'Eimer', 'Lampe', 'Vase', 'Schere', 'Flasche', 'Brille', 'Bürste', 'Würfel', 'Telefon', 'Uhr', 'Kerze', 'Stift']","['strahlend', 'hohl', 'praktisch', 'dunkel', 'lang', 'robust', 'niedlich', 'gepunktet', 'zart']",1,1.4672203999944031,None,,,,,,,,,,,,,,,,,,,,,,,,,,,,,,,,,,,,,,,,,,,,,,,,,,,,,,,,,,,,,,,,,,,,,1,2023-12-12_14h33.29.007,watkins1,2023.2.3,99.75261340018018,63,2023-12-12 14h33.37.863316 +0000,
,,,,,,,9,0,9,0,,,,,,,,,,,,,,,,,124.64627270027995,,,,,,,,,,124.63730050018057,125.12843499984592,,,2,2.39614209998399,,,,,,,,,,,,,,,,,,,,,125.12844550004229,131.13567560026422,Löffel,nachhaltig,"['Löffel', 'nachhaltig']",restudy_diff,1,"['Jacke', 'Kette', 'Hammer', 'Fahrrad', 'Kiste', 'Buch', 'Geige', 'Blume', 'Hut', 'Löffel', 'Eimer', 'Lampe', 'Vase', 'Schere', 'Flasche', 'Brille', 'Bürste', 'Würfel', 'Telefon', 'Uhr', 'Kerze', 'Stift']","['strahlend', 'hohl', 'praktisch', 'dunkel', 'lang', 'robust', 'niedlich', 'gepunktet', 'zart', 'nachhaltig']",2,2.39614209998399,None,,,,,,,,,,,,,,,,,,,,,,,,,,,,,,,,,,,,,,,,,,,,,,,,,,,,,,,,,,,,,,,,,,,,,1,2023-12-12_14h33.29.007,watkins1,2023.2.3,99.75261340018018,63,2023-12-12 14h33.37.863316 +0000,
,,,,,,,10,0,10,0,,,,,,,,,,,,,,,,,131.14510350022465,,,,,,,,,,131.13614330021665,131.62716659996659,,,1,1.3622832000255585,,,,,,,,,,,,,,,,,,,,,131.62717680027708,137.63706379989162,Eimer,flach,"['Eimer', 'flach']",control,1,"['Jacke', 'Kette', 'Hammer', 'Fahrrad', 'Kiste', 'Buch', 'Geige', 'Blume', 'Hut', 'Löffel', 'Eimer', 'Lampe', 'Vase', 'Schere', 'Flasche', 'Brille', 'Bürste', 'Würfel', 'Telefon', 'Uhr', 'Kerze', 'Stift']","['strahlend', 'hohl', 'praktisch', 'dunkel', 'lang', 'robust', 'niedlich', 'gepunktet', 'zart', 'nachhaltig', 'flach']",1,1.3622832000255585,None,,,,,,,,,,,,,,,,,,,,,,,,,,,,,,,,,,,,,,,,,,,,,,,,,,,,,,,,,,,,,,,,,,,,,1,2023-12-12_14h33.29.007,watkins1,2023.2.3,99.75261340018018,63,2023-12-12 14h33.37.863316 +0000,
,,,,,,,11,0,11,0,,,,,,,,,,,,,,,,,137.64652399998158,,,,,,,,,,137.63752559991553,138.12857480021194,,,2,1.3085099998861551,,,,,,,,,,,,,,,,,,,,,138.12858529994264,144.13245709985495,Lampe,groß,"['Lampe', 'groß']",restudy_diff,1,"['Jacke', 'Kette', 'Hammer', 'Fahrrad', 'Kiste', 'Buch', 'Geige', 'Blume', 'Hut', 'Löffel', 'Eimer', 'Lampe', 'Vase', 'Schere', 'Flasche', 'Brille', 'Bürste', 'Würfel', 'Telefon', 'Uhr', 'Kerze', 'Stift']","['strahlend', 'hohl', 'praktisch', 'dunkel', 'lang', 'robust', 'niedlich', 'gepunktet', 'zart', 'nachhaltig', 'flach', 'groß']",2,1.3085099998861551,None,,,,,,,,,,,,,,,,,,,,,,,,,,,,,,,,,,,,,,,,,,,,,,,,,,,,,,,,,,,,,,,,,,,,,1,2023-12-12_14h33.29.007,watkins1,2023.2.3,99.75261340018018,63,2023-12-12 14h33.37.863316 +0000,
,,,,,,,12,0,12,0,,,,,,,,,,,,,,,,,144.14186879992485,,,,,,,,,,144.13292289990932,144.6237188000232,,,3,1.3416844997555017,,,,,,,,,,,,,,,,,,,,,144.62372930021957,150.63372110016644,Vase,kalt,"['Vase', 'kalt']",restudy_diff,1,"['Jacke', 'Kette', 'Hammer', 'Fahrrad', 'Kiste', 'Buch', 'Geige', 'Blume', 'Hut', 'Löffel', 'Eimer', 'Lampe', 'Vase', 'Schere', 'Flasche', 'Brille', 'Bürste', 'Würfel', 'Telefon', 'Uhr', 'Kerze', 'Stift']","['strahlend', 'hohl', 'praktisch', 'dunkel', 'lang', 'robust', 'niedlich', 'gepunktet', 'zart', 'nachhaltig', 'flach', 'groß', 'kalt']",3,1.3416844997555017,None,,,,,,,,,,,,,,,,,,,,,,,,,,,,,,,,,,,,,,,,,,,,,,,,,,,,,,,,,,,,,,,,,,,,,1,2023-12-12_14h33.29.007,watkins1,2023.2.3,99.75261340018018,63,2023-12-12 14h33.37.863316 +0000,
,,,,,,,13,0,13,0,,,,,,,,,,,,,,,,,150.64316279999912,,,,,,,,,,150.63418720010668,151.12529660016298,,,2,1.4241640996187925,,,,,,,,,,,,,,,,,,,,,151.12530720001087,157.12689380021766,Schere,krumm,"['Schere', 'krumm']",control,1,"['Jacke', 'Kette', 'Hammer', 'Fahrrad', 'Kiste', 'Buch', 'Geige', 'Blume', 'Hut', 'Löffel', 'Eimer', 'Lampe', 'Vase', 'Schere', 'Flasche', 'Brille', 'Bürste', 'Würfel', 'Telefon', 'Uhr', 'Kerze', 'Stift']","['strahlend', 'hohl', 'praktisch', 'dunkel', 'lang', 'robust', 'niedlich', 'gepunktet', 'zart', 'nachhaltig', 'flach', 'groß', 'kalt', 'krumm']",2,1.4241640996187925,None,,,,,,,,,,,,,,,,,,,,,,,,,,,,,,,,,,,,,,,,,,,,,,,,,,,,,,,,,,,,,,,,,,,,,1,2023-12-12_14h33.29.007,watkins1,2023.2.3,99.75261340018018,63,2023-12-12 14h33.37.863316 +0000,
,,,,,,,14,0,14,0,,,,,,,,,,,,,,,,,157.1364247999154,,,,,,,,,,157.1273578000255,157.6185412001796,,,2,1.8985926997847855,,,,,,,,,,,,,,,,,,,,,157.61855280026793,163.6231582998298,Flasche,winzig,"['Flasche', 'winzig']",control,1,"['Jacke', 'Kette', 'Hammer', 'Fahrrad', 'Kiste', 'Buch', 'Geige', 'Blume', 'Hut', 'Löffel', 'Eimer', 'Lampe', 'Vase', 'Schere', 'Flasche', 'Brille', 'Bürste', 'Würfel', 'Telefon', 'Uhr', 'Kerze', 'Stift']","['strahlend', 'hohl', 'praktisch', 'dunkel', 'lang', 'robust', 'niedlich', 'gepunktet', 'zart', 'nachhaltig', 'flach', 'groß', 'kalt', 'krumm', 'winzig']",2,1.8985926997847855,None,,,,,,,,,,,,,,,,,,,,,,,,,,,,,,,,,,,,,,,,,,,,,,,,,,,,,,,,,,,,,,,,,,,,,1,2023-12-12_14h33.29.007,watkins1,2023.2.3,99.75261340018018,63,2023-12-12 14h33.37.863316 +0000,
,,,,,,,15,0,15,0,,,,,,,,,,,,,,,,,163.63267950015143,,,,,,,,,,163.62362729990855,164.11489009996876,,,3,1.6271027000620961,,,,,,,,,,,,,,,,,,,,,164.11490140017122,170.1227644002065,Brille,glatt,"['Brille', 'glatt']",control,1,"['Jacke', 'Kette', 'Hammer', 'Fahrrad', 'Kiste', 'Buch', 'Geige', 'Blume', 'Hut', 'Löffel', 'Eimer', 'Lampe', 'Vase', 'Schere', 'Flasche', 'Brille', 'Bürste', 'Würfel', 'Telefon', 'Uhr', 'Kerze', 'Stift']","['strahlend', 'hohl', 'praktisch', 'dunkel', 'lang', 'robust', 'niedlich', 'gepunktet', 'zart', 'nachhaltig', 'flach', 'groß', 'kalt', 'krumm', 'winzig', 'glatt']",3,1.6271027000620961,None,,,,,,,,,,,,,,,,,,,,,,,,,,,,,,,,,,,,,,,,,,,,,,,,,,,,,,,,,,,,,,,,,,,,,1,2023-12-12_14h33.29.007,watkins1,2023.2.3,99.75261340018018,63,2023-12-12 14h33.37.863316 +0000,
,,,,,,,16,0,16,0,,,,,,,,,,,,,,,,,170.13218430010602,,,,,,,,,,170.12325720023364,170.6143899001181,,,2,3.0222878996282816,,,,,,,,,,,,,,,,,,,,,170.61440070020035,176.61572259990498,Bürste,verspielt,"['Bürste', 'verspielt']",restudy_diff,1,"['Jacke', 'Kette', 'Hammer', 'Fahrrad', 'Kiste', 'Buch', 'Geige', 'Blume', 'Hut', 'Löffel', 'Eimer', 'Lampe', 'Vase', 'Schere', 'Flasche', 'Brille', 'Bürste', 'Würfel', 'Telefon', 'Uhr', 'Kerze', 'Stift']","['strahlend', 'hohl', 'praktisch', 'dunkel', 'lang', 'robust', 'niedlich', 'gepunktet', 'zart', 'nachhaltig', 'flach', 'groß', 'kalt', 'krumm', 'winzig', 'glatt', 'verspielt']",2,3.0222878996282816,None,,,,,,,,,,,,,,,,,,,,,,,,,,,,,,,,,,,,,,,,,,,,,,,,,,,,,,,,,,,,,,,,,,,,,1,2023-12-12_14h33.29.007,watkins1,2023.2.3,99.75261340018018,63,2023-12-12 14h33.37.863316 +0000,
,,,,,,,17,0,17,0,,,,,,,,,,,,,,,,,176.62526630004868,,,,,,,,,,176.61618430027738,177.10741929989308,,,2,2.5780663997866213,,,,,,,,,,,,,,,,,,,,,177.1074295998551,183.11152750020847,Würfel,blass,"['Würfel', 'blass']",restudy_diff,1,"['Jacke', 'Kette', 'Hammer', 'Fahrrad', 'Kiste', 'Buch', 'Geige', 'Blume', 'Hut', 'Löffel', 'Eimer', 'Lampe', 'Vase', 'Schere', 'Flasche', 'Brille', 'Bürste', 'Würfel', 'Telefon', 'Uhr', 'Kerze', 'Stift']","['strahlend', 'hohl', 'praktisch', 'dunkel', 'lang', 'robust', 'niedlich', 'gepunktet', 'zart', 'nachhaltig', 'flach', 'groß', 'kalt', 'krumm', 'winzig', 'glatt', 'verspielt', 'blass']",2,2.5780663997866213,None,,,,,,,,,,,,,,,,,,,,,,,,,,,,,,,,,,,,,,,,,,,,,,,,,,,,,,,,,,,,,,,,,,,,,1,2023-12-12_14h33.29.007,watkins1,2023.2.3,99.75261340018018,63,2023-12-12 14h33.37.863316 +0000,
,,,,,,,18,0,18,0,,,,,,,,,,,,,,,,,183.12100300006568,,,,,,,,,,183.112000499852,183.60312230000272,,,3,2.217199600301683,,,,,,,,,,,,,,,,,,,,,183.60314649995416,189.61111719999462,Telefon,glänzend,"['Telefon', 'glänzend']",restudy_diff,1,"['Jacke', 'Kette', 'Hammer', 'Fahrrad', 'Kiste', 'Buch', 'Geige', 'Blume', 'Hut', 'Löffel', 'Eimer', 'Lampe', 'Vase', 'Schere', 'Flasche', 'Brille', 'Bürste', 'Würfel', 'Telefon', 'Uhr', 'Kerze', 'Stift']","['strahlend', 'hohl', 'praktisch', 'dunkel', 'lang', 'robust', 'niedlich', 'gepunktet', 'zart', 'nachhaltig', 'flach', 'groß', 'kalt', 'krumm', 'winzig', 'glatt', 'verspielt', 'blass', 'glänzend']",3,2.217199600301683,None,,,,,,,,,,,,,,,,,,,,,,,,,,,,,,,,,,,,,,,,,,,,,,,,,,,,,,,,,,,,,,,,,,,,,1,2023-12-12_14h33.29.007,watkins1,2023.2.3,99.75261340018018,63,2023-12-12 14h33.37.863316 +0000,
,,,,,,,19,0,19,0,,,,,,,,,,,,,,,,,189.6204550000839,,,,,,,,,,189.61158500006422,190.10247929999605,,,2,1.2948070000857115,,,,,,,,,,,,,,,,,,,,,190.10249050008133,196.11263430025429,Uhr,hässlich,"['Uhr', 'hässlich']",control,1,"['Jacke', 'Kette', 'Hammer', 'Fahrrad', 'Kiste', 'Buch', 'Geige', 'Blume', 'Hut', 'Löffel', 'Eimer', 'Lampe', 'Vase', 'Schere', 'Flasche', 'Brille', 'Bürste', 'Würfel', 'Telefon', 'Uhr', 'Kerze', 'Stift']","['strahlend', 'hohl', 'praktisch', 'dunkel', 'lang', 'robust', 'niedlich', 'gepunktet', 'zart', 'nachhaltig', 'flach', 'groß', 'kalt', 'krumm', 'winzig', 'glatt', 'verspielt', 'blass', 'glänzend', 'hässlich']",2,1.2948070000857115,None,,,,,,,,,,,,,,,,,,,,,,,,,,,,,,,,,,,,,,,,,,,,,,,,,,,,,,,,,,,,,,,,,,,,,1,2023-12-12_14h33.29.007,watkins1,2023.2.3,99.75261340018018,63,2023-12-12 14h33.37.863316 +0000,
,,,,,,,20,0,20,0,,,,,,,,,,,,,,,,,196.12205250002444,,,,,,,,,,196.1131282998249,196.6041796002537,,,1,3.2416044999845326,,,,,,,,,,,,,,,,,,,,,196.60419119987637,202.61329910019413,Kerze,durchsichtig,"['Kerze', 'durchsichtig']",restudy_diff,1,"['Jacke', 'Kette', 'Hammer', 'Fahrrad', 'Kiste', 'Buch', 'Geige', 'Blume', 'Hut', 'Löffel', 'Eimer', 'Lampe', 'Vase', 'Schere', 'Flasche', 'Brille', 'Bürste', 'Würfel', 'Telefon', 'Uhr', 'Kerze', 'Stift']","['strahlend', 'hohl', 'praktisch', 'dunkel', 'lang', 'robust', 'niedlich', 'gepunktet', 'zart', 'nachhaltig', 'flach', 'groß', 'kalt', 'krumm', 'winzig', 'glatt', 'verspielt', 'blass', 'glänzend', 'hässlich', 'durchsichtig']",1,3.2416044999845326,None,,,,,,,,,,,,,,,,,,,,,,,,,,,,,,,,,,,,,,,,,,,,,,,,,,,,,,,,,,,,,,,,,,,,,1,2023-12-12_14h33.29.007,watkins1,2023.2.3,99.75261340018018,63,2023-12-12 14h33.37.863316 +0000,
,,,,,,,21,0,21,0,,,,,,,,,,,,,,,,,202.62287379987538,,,,,,,,,,202.6137752002105,203.10479860007763,,,1,1.237235500011593,,,,,,,,,,,,,,,,,,,,,203.104809100274,209.10630850028247,Stift,schwer,"['Stift', 'schwer']",control,1,"['Jacke', 'Kette', 'Hammer', 'Fahrrad', 'Kiste', 'Buch', 'Geige', 'Blume', 'Hut', 'Löffel', 'Eimer', 'Lampe', 'Vase', 'Schere', 'Flasche', 'Brille', 'Bürste', 'Würfel', 'Telefon', 'Uhr', 'Kerze', 'Stift']","['strahlend', 'hohl', 'praktisch', 'dunkel', 'lang', 'robust', 'niedlich', 'gepunktet', 'zart', 'nachhaltig', 'flach', 'groß', 'kalt', 'krumm', 'winzig', 'glatt', 'verspielt', 'blass', 'glänzend', 'hässlich', 'durchsichtig', 'schwer']",1,1.237235500011593,None,,,,,,,,,,,,,,,,,,,,,,,,,,,,,,,,,,,,,,,,,,,,,,,,,,,,,,,,,,,,,,,,,,,,,1,2023-12-12_14h33.29.007,watkins1,2023.2.3,99.75261340018018,63,2023-12-12 14h33.37.863316 +0000,
,,,,,,,,,,,0,0,0,0,,,,,,,,,,,,,209.11574409995228,,,,,,,,,,209.10714140022174,209.59770590020344,,,2,1.5942025003023446,,,,,,,,,,,,None,None,,,,,,,,,,Kerze,gut,"['Kerze', 'gut']",restudy_diff,1,,,,,,209.1070655998774,209.10711569990963,"['Kerze', 'Fahrrad', 'Telefon', 'Geige', 'Socke', 'Lampe', 'Tasche', 'Blume', 'Ring', 'Würfel', 'Schlüssel', 'Buch', 'Vase', 'Kette', 'Hammer', 'Rucksack', 'Jacke', 'Tasse', 'Löffel', 'Kamera', 'Bürste', 'Kiste', 'Trommel']",209.5977166001685,209.60052620014176,None,209.60078269988298,209.60336149996147,None,209.60358670027927,215.60557339992374,2,1.5942025003023446,None,215.60596620012075,215.60726239997894,215.6072745001875,215.60850850027055,,,,,,,,,,,,,,,,,,,,,,,,,,,,,,,,,,,,,,,,,,,,,,,,,,,1,2023-12-12_14h33.29.007,watkins1,2023.2.3,99.75261340018018,63,2023-12-12 14h33.37.863316 +0000,
,,,,,,,,,,,1,0,1,0,,,,,,,,,,,,,215.61504160007462,,,,,,,,,,215.60876609990373,216.1071061999537,,,3,1.8938426999375224,,,,,,,,,,,,None,None,,,,,,,,,,Fahrrad,schlicht,"['Fahrrad', 'schlicht']",restudy_diff,1,,,,,,215.60870270011947,215.6087394002825,"['Kerze', 'Fahrrad', 'Telefon', 'Geige', 'Socke', 'Lampe', 'Tasche', 'Blume', 'Ring', 'Würfel', 'Schlüssel', 'Buch', 'Vase', 'Kette', 'Hammer', 'Rucksack', 'Jacke', 'Tasse', 'Löffel', 'Kamera', 'Bürste', 'Kiste', 'Trommel']",216.10711700003594,216.10971400002018,None,216.10983269987628,216.11226610001177,None,216.11236729985103,222.1160337999463,3,1.8938426999375224,None,222.1163050001487,222.11765709985048,222.11766880005598,222.11890299990773,,,,,,,,,,,,,,,,,,,,,,,,,,,,,,,,,,,,,,,,,,,,,,,,,,,1,2023-12-12_14h33.29.007,watkins1,2023.2.3,99.75261340018018,63,2023-12-12 14h33.37.863316 +0000,
,,,,,,,,,,,2,0,2,0,,,,,,,,,,,,,222.12550339987502,,,,,,,,,,222.11916809994727,222.61751340003684,,,3,1.6308507998473942,,,,,,,,,,,,None,None,,,,,,,,,,Telefon,neu,"['Telefon', 'neu']",restudy_diff,1,,,,,,222.1191040999256,222.11914160009474,"['Kerze', 'Fahrrad', 'Telefon', 'Geige', 'Socke', 'Lampe', 'Tasche', 'Blume', 'Ring', 'Würfel', 'Schlüssel', 'Buch', 'Vase', 'Kette', 'Hammer', 'Rucksack', 'Jacke', 'Tasse', 'Löffel', 'Kamera', 'Bürste', 'Kiste', 'Trommel']",222.61752439988777,222.62046559993178,None,222.62058890005574,222.6232620999217,None,222.62336600013077,228.62843290017918,3,1.6308507998473942,None,228.62870849994943,228.6300514000468,228.63006340013817,228.63109889999032,,,,,,,,,,,,,,,,,,,,,,,,,,,,,,,,,,,,,,,,,,,,,,,,,,,1,2023-12-12_14h33.29.007,watkins1,2023.2.3,99.75261340018018,63,2023-12-12 14h33.37.863316 +0000,
,,,,,,,,,,,3,0,3,0,,,,,,,,,,,,,228.63792139990255,,,,,,,,,,228.63136570015922,229.12984690023586,,,1,1.5586449997499585,,,,,,,,,,,,None,None,,,,,,,,,,Geige,gestreift,"['Geige', 'gestreift']",restudy_diff,1,,,,,,228.63130120001733,228.63133860006928,"['Kerze', 'Fahrrad', 'Telefon', 'Geige', 'Socke', 'Lampe', 'Tasche', 'Blume', 'Ring', 'Würfel', 'Schlüssel', 'Buch', 'Vase', 'Kette', 'Hammer', 'Rucksack', 'Jacke', 'Tasse', 'Löffel', 'Kamera', 'Bürste', 'Kiste', 'Trommel']",229.12985760020092,229.13260259991512,None,229.13272190000862,229.13518190011382,None,229.13528400007635,235.13959160028026,1,1.5586449997499585,None,235.13986810017377,235.14118300005794,235.14119470026344,235.14244930027053,,,,,,,,,,,,,,,,,,,,,,,,,,,,,,,,,,,,,,,,,,,,,,,,,,,1,2023-12-12_14h33.29.007,watkins1,2023.2.3,99.75261340018018,63,2023-12-12 14h33.37.863316 +0000,
,,,,,,,,,,,4,0,4,0,,,,,,,,,,,,,235.14906790014356,,,,,,,,,,235.14271689997986,235.64109309995547,,,[],[],,,,,,,,,,,,None,None,,,,,,,,,,Socke,lustig,"['Socke', 'lustig']",control,1,,,,,,235.14265300007537,235.14269090024754,"['Kerze', 'Fahrrad', 'Telefon', 'Geige', 'Socke', 'Lampe', 'Tasche', 'Blume', 'Ring', 'Würfel', 'Schlüssel', 'Buch', 'Vase', 'Kette', 'Hammer', 'Rucksack', 'Jacke', 'Tasse', 'Löffel', 'Kamera', 'Bürste', 'Kiste', 'Trommel']",235.64110360015184,241.65008760010824,3,241.6504311999306,241.6531123998575,None,241.6532145999372,241.6557272998616,None,,,241.6558274999261,241.65699419984594,241.65700590005144,241.6581822000444,1.3962308000773191,None,,,,,,,,,,,,,,,,,,,,,,,,,,,,,,,,,,,,,,,,,,,,,,,,,1,2023-12-12_14h33.29.007,watkins1,2023.2.3,99.75261340018018,63,2023-12-12 14h33.37.863316 +0000,
,,,,,,,,,,,5,0,5,0,,,,,,,,,,,,,241.6617594002746,,,,,,,,,,241.65844890009612,242.15499310009181,,,3,1.3757323999889195,,,,,,,,,,,,None,None,,,,,,,,,,Lampe,elegant,"['Lampe', 'elegant']",restudy_diff,1,,,,,,241.6583854998462,241.65842289989814,"['Kerze', 'Fahrrad', 'Telefon', 'Geige', 'Socke', 'Lampe', 'Tasche', 'Blume', 'Ring', 'Würfel', 'Schlüssel', 'Buch', 'Vase', 'Kette', 'Hammer', 'Rucksack', 'Jacke', 'Tasse', 'Löffel', 'Kamera', 'Bürste', 'Kiste', 'Trommel']",242.15500380005687,242.15672790026292,None,242.15684420010075,242.1582829002291,None,242.15838559996337,248.15999680012465,3,1.3757323999889195,None,248.16027869982645,248.1615830999799,248.1615949999541,248.16280269995332,,,,,,,,,,,,,,,,,,,,,,,,,,,,,,,,,,,,,,,,,,,,,,,,,,,1,2023-12-12_14h33.29.007,watkins1,2023.2.3,99.75261340018018,63,2023-12-12 14h33.37.863316 +0000,
,,,,,,,,,,,6,0,6,0,,,,,,,,,,,,,248.16956340009347,,,,,,,,,,248.1630668998696,248.6615327000618,,,[],[],,,,,,,,,,,,None,None,,,,,,,,,,Tasche,breit,"['Tasche', 'breit']",control,1,,,,,,248.16300179995596,248.16303920000792,"['Kerze', 'Fahrrad', 'Telefon', 'Geige', 'Socke', 'Lampe', 'Tasche', 'Blume', 'Ring', 'Würfel', 'Schlüssel', 'Buch', 'Vase', 'Kette', 'Hammer', 'Rucksack', 'Jacke', 'Tasse', 'Löffel', 'Kamera', 'Bürste', 'Kiste', 'Trommel']",248.66154320025817,254.66412340011448,2,254.66440760018304,254.66707290010527,None,254.66717569995672,254.6696752998978,None,,,254.66977659985423,254.67095579998568,254.67096780007705,254.67211699998006,1.6804607999511063,None,,,,,,,,,,,,,,,,,,,,,,,,,,,,,,,,,,,,,,,,,,,,,,,,,1,2023-12-12_14h33.29.007,watkins1,2023.2.3,99.75261340018018,63,2023-12-12 14h33.37.863316 +0000,
,,,,,,,,,,,7,0,7,0,,,,,,,,,,,,,254.6756704999134,,,,,,,,,,254.67237889999524,255.1697145998478,,,3,2.0648375996388495,,,,,,,,,,,,None,None,,,,,,,,,,Blume,teuer,"['Blume', 'teuer']",restudy_diff,1,,,,,,254.6723168999888,254.6723547000438,"['Kerze', 'Fahrrad', 'Telefon', 'Geige', 'Socke', 'Lampe', 'Tasche', 'Blume', 'Ring', 'Würfel', 'Schlüssel', 'Buch', 'Vase', 'Kette', 'Hammer', 'Rucksack', 'Jacke', 'Tasse', 'Löffel', 'Kamera', 'Bürste', 'Kiste', 'Trommel']",255.16972560016438,255.1713159000501,None,255.17143149999902,255.1728618000634,None,255.1729633002542,261.1796369999647,3,2.0648375996388495,None,261.179911499843,261.1813512002118,261.18136359984055,261.18273060023785,,,,,,,,,,,,,,,,,,,,,,,,,,,,,,,,,,,,,,,,,,,,,,,,,,,1,2023-12-12_14h33.29.007,watkins1,2023.2.3,99.75261340018018,63,2023-12-12 14h33.37.863316 +0000,
,,,,,,,,,,,8,0,8,0,,,,,,,,,,,,,261.18912100000307,,,,,,,,,,261.18300190009177,261.681130700279,,,[],[],,,,,,,,,,,,None,None,,,,,,,,,,Ring,hübsch,"['Ring', 'hübsch']",control,1,,,,,,261.1829377999529,261.1829750998877,"['Kerze', 'Fahrrad', 'Telefon', 'Geige', 'Socke', 'Lampe', 'Tasche', 'Blume', 'Ring', 'Würfel', 'Schlüssel', 'Buch', 'Vase', 'Kette', 'Hammer', 'Rucksack', 'Jacke', 'Tasse', 'Löffel', 'Kamera', 'Bürste', 'Kiste', 'Trommel']",261.68114100024104,267.6870463001542,3,267.6873244000599,267.6902008000761,None,267.69030430028215,267.6926966998726,None,,,267.69279809994623,267.69383759982884,267.69384910026565,267.6950365998782,2.1242057997733355,None,,,,,,,,,,,,,,,,,,,,,,,,,,,,,,,,,,,,,,,,,,,,,,,,,1,2023-12-12_14h33.29.007,watkins1,2023.2.3,99.75261340018018,63,2023-12-12 14h33.37.863316 +0000,
,,,,,,,,,,,9,0,9,0,,,,,,,,,,,,,267.6986126000993,,,,,,,,,,267.6953030000441,268.19191189995036,,,2,1.6505050999112427,,,,,,,,,,,,None,None,,,,,,,,,,Würfel,matt,"['Würfel', 'matt']",restudy_diff,1,,,,,,267.6952396999113,267.69527880009264,"['Kerze', 'Fahrrad', 'Telefon', 'Geige', 'Socke', 'Lampe', 'Tasche', 'Blume', 'Ring', 'Würfel', 'Schlüssel', 'Buch', 'Vase', 'Kette', 'Hammer', 'Rucksack', 'Jacke', 'Tasse', 'Löffel', 'Kamera', 'Bürste', 'Kiste', 'Trommel']",268.1919235000387,268.1935636000708,None,268.19368300028145,268.1954779000953,None,268.1955941002816,274.197623600252,2,1.6505050999112427,None,274.19789680000395,274.1992160999216,274.19922820013016,274.2002821001224,,,,,,,,,,,,,,,,,,,,,,,,,,,,,,,,,,,,,,,,,,,,,,,,,,,1,2023-12-12_14h33.29.007,watkins1,2023.2.3,99.75261340018018,63,2023-12-12 14h33.37.863316 +0000,
,,,,,,,,,,,10,0,10,0,,,,,,,,,,,,,274.20705470023677,,,,,,,,,,274.20054969983175,274.69912530016154,,,[],[],,,,,,,,,,,,None,None,,,,,,,,,,Schlüssel,bunt,"['Schlüssel', 'bunt']",control,1,,,,,,274.20048640016466,274.20052370009944,"['Kerze', 'Fahrrad', 'Telefon', 'Geige', 'Socke', 'Lampe', 'Tasche', 'Blume', 'Ring', 'Würfel', 'Schlüssel', 'Buch', 'Vase', 'Kette', 'Hammer', 'Rucksack', 'Jacke', 'Tasse', 'Löffel', 'Kamera', 'Bürste', 'Kiste', 'Trommel']",274.69913570024073,280.7016889001243,2,280.7019528001547,280.7045195000246,None,280.70461949985474,280.7070329999551,None,,,280.7071310998872,280.7085263002664,280.7085381001234,280.70958029991016,2.5388604002073407,None,,,,,,,,,,,,,,,,,,,,,,,,,,,,,,,,,,,,,,,,,,,,,,,,,1,2023-12-12_14h33.29.007,watkins1,2023.2.3,99.75261340018018,63,2023-12-12 14h33.37.863316 +0000,
,,,,,,,,,,,11,0,11,0,,,,,,,,,,,,,280.71325869997963,,,,,,,,,,280.7098476001993,281.2057512002066,,,3,1.589689000044018,,,,,,,,,,,,None,None,,,,,,,,,,Buch,dick,"['Buch', 'dick']",restudy_diff,1,,,,,,280.70978489983827,280.70982349989936,"['Kerze', 'Fahrrad', 'Telefon', 'Geige', 'Socke', 'Lampe', 'Tasche', 'Blume', 'Ring', 'Würfel', 'Schlüssel', 'Buch', 'Vase', 'Kette', 'Hammer', 'Rucksack', 'Jacke', 'Tasse', 'Löffel', 'Kamera', 'Bürste', 'Kiste', 'Trommel']",281.20576199982315,281.20721889985725,None,281.20733360014856,281.20863959984854,None,281.2087405999191,287.21911210007966,3,1.589689000044018,None,287.2193853999488,287.2205686001107,287.22058100020513,287.2216385002248,,,,,,,,,,,,,,,,,,,,,,,,,,,,,,,,,,,,,,,,,,,,,,,,,,,1,2023-12-12_14h33.29.007,watkins1,2023.2.3,99.75261340018018,63,2023-12-12 14h33.37.863316 +0000,
,,,,,,,,,,,12,0,12,0,,,,,,,,,,,,,287.22857070015743,,,,,,,,,,287.22190580004826,287.7205574000254,,,1,1.4483094001188874,,,,,,,,,,,,None,None,,,,,,,,,,Vase,sportlich,"['Vase', 'sportlich']",restudy_diff,1,,,,,,287.22184280026704,287.2218801002018,"['Kerze', 'Fahrrad', 'Telefon', 'Geige', 'Socke', 'Lampe', 'Tasche', 'Blume', 'Ring', 'Würfel', 'Schlüssel', 'Buch', 'Vase', 'Kette', 'Hammer', 'Rucksack', 'Jacke', 'Tasse', 'Löffel', 'Kamera', 'Bürste', 'Kiste', 'Trommel']",287.7205680999905,287.72301630023867,None,287.72313369996846,287.7254348001443,None,287.7255398002453,293.73428410012275,1,1.4483094001188874,None,293.7345588002354,293.7357553001493,293.7357675000094,293.737073100172,,,,,,,,,,,,,,,,,,,,,,,,,,,,,,,,,,,,,,,,,,,,,,,,,,,1,2023-12-12_14h33.29.007,watkins1,2023.2.3,99.75261340018018,63,2023-12-12 14h33.37.863316 +0000,
,,,,,,,,,,,13,0,13,0,,,,,,,,,,,,,293.7437490001321,,,,,,,,,,293.737343700137,294.2360578002408,,,2,1.7481451998464763,,,,,,,,,,,,None,None,,,,,,,,,,Kette,biegsam,"['Kette', 'biegsam']",restudy_diff,1,,,,,,293.7372790998779,293.737317699939,"['Kerze', 'Fahrrad', 'Telefon', 'Geige', 'Socke', 'Lampe', 'Tasche', 'Blume', 'Ring', 'Würfel', 'Schlüssel', 'Buch', 'Vase', 'Kette', 'Hammer', 'Rucksack', 'Jacke', 'Tasse', 'Löffel', 'Kamera', 'Bürste', 'Kiste', 'Trommel']",294.23606880009174,294.239195600152,None,294.23931419989094,294.24193260027096,None,294.2420349000022,300.2512981998734,2,1.7481451998464763,None,300.2516193999909,300.2529138000682,300.2529255999252,300.2541392999701,,,,,,,,,,,,,,,,,,,,,,,,,,,,,,,,,,,,,,,,,,,,,,,,,,,1,2023-12-12_14h33.29.007,watkins1,2023.2.3,99.75261340018018,63,2023-12-12 14h33.37.863316 +0000,
,,,,,,,,,,,14,0,14,0,,,,,,,,,,,,,300.260772800073,,,,,,,,,,300.2544040000066,300.75283330027014,,,1,2.5115184001624584,,,,,,,,,,,,None,None,,,,,,,,,,Hammer,sauber,"['Hammer', 'sauber']",restudy_diff,1,,,,,,300.2543402998708,300.2543780002743,"['Kerze', 'Fahrrad', 'Telefon', 'Geige', 'Socke', 'Lampe', 'Tasche', 'Blume', 'Ring', 'Würfel', 'Schlüssel', 'Buch', 'Vase', 'Kette', 'Hammer', 'Rucksack', 'Jacke', 'Tasse', 'Löffel', 'Kamera', 'Bürste', 'Kiste', 'Trommel']",300.75284500001,300.75574789987877,None,300.75586220016703,300.7584561998956,None,300.7585569000803,306.763224999886,1,2.5115184001624584,None,306.7635193001479,306.7648620000109,306.76487410021946,306.76609979989007,,,,,,,,,,,,,,,,,,,,,,,,,,,,,,,,,,,,,,,,,,,,,,,,,,,1,2023-12-12_14h33.29.007,watkins1,2023.2.3,99.75261340018018,63,2023-12-12 14h33.37.863316 +0000,
,,,,,,,,,,,15,0,15,0,,,,,,,,,,,,,306.7726751998998,,,,,,,,,,306.7663862002082,307.264824999962,,,[],[],,,,,,,,,,,,None,None,,,,,,,,,,Rucksack,klobig,"['Rucksack', 'klobig']",control,1,,,,,,306.76631630025804,306.76635840022936,"['Kerze', 'Fahrrad', 'Telefon', 'Geige', 'Socke', 'Lampe', 'Tasche', 'Blume', 'Ring', 'Würfel', 'Schlüssel', 'Buch', 'Vase', 'Kette', 'Hammer', 'Rucksack', 'Jacke', 'Tasse', 'Löffel', 'Kamera', 'Bürste', 'Kiste', 'Trommel']",307.2648360999301,313.2735866000876,2,313.273862299975,313.27666450012475,None,313.2767687002197,313.2794007998891,None,,,313.27950350008905,313.2807599999942,313.2807716000825,313.28197180014104,1.4930791002698243,None,,,,,,,,,,,,,,,,,,,,,,,,,,,,,,,,,,,,,,,,,,,,,,,,,1,2023-12-12_14h33.29.007,watkins1,2023.2.3,99.75261340018018,63,2023-12-12 14h33.37.863316 +0000,
,,,,,,,,,,,16,0,16,0,,,,,,,,,,,,,313.2855333001353,,,,,,,,,,313.2822384000756,313.77879770006984,,,2,1.3915737001225352,,,,,,,,,,,,None,None,,,,,,,,,,Jacke,nass,"['Jacke', 'nass']",restudy_diff,1,,,,,,313.28217509994283,313.2822139002383,"['Kerze', 'Fahrrad', 'Telefon', 'Geige', 'Socke', 'Lampe', 'Tasche', 'Blume', 'Ring', 'Würfel', 'Schlüssel', 'Buch', 'Vase', 'Kette', 'Hammer', 'Rucksack', 'Jacke', 'Tasse', 'Löffel', 'Kamera', 'Bürste', 'Kiste', 'Trommel']",313.77880860026926,313.7810096000321,None,313.7811284000054,313.78257740009576,None,313.7826793999411,319.78444720013067,2,1.3915737001225352,None,319.78472310025245,319.7860321998596,319.78604440018535,319.7871126998216,,,,,,,,,,,,,,,,,,,,,,,,,,,,,,,,,,,,,,,,,,,,,,,,,,,1,2023-12-12_14h33.29.007,watkins1,2023.2.3,99.75261340018018,63,2023-12-12 14h33.37.863316 +0000,
,,,,,,,,,,,17,0,17,0,,,,,,,,,,,,,319.7938840999268,,,,,,,,,,319.787382400129,320.2861433001235,,,[],[],,,,,,,,,,,,None,None,,,,,,,,,,Tasse,kurz,"['Tasse', 'kurz']",control,1,,,,,,319.7873186999932,319.7873565000482,"['Kerze', 'Fahrrad', 'Telefon', 'Geige', 'Socke', 'Lampe', 'Tasche', 'Blume', 'Ring', 'Würfel', 'Schlüssel', 'Buch', 'Vase', 'Kette', 'Hammer', 'Rucksack', 'Jacke', 'Tasse', 'Löffel', 'Kamera', 'Bürste', 'Kiste', 'Trommel']",320.2861538999714,326.29481260012835,1,326.29508549999446,326.2977046002634,None,326.2978157000616,326.3001922001131,None,,,326.3002920001745,326.30146409990266,326.30147580010816,326.3025274001993,2.519884000066668,None,,,,,,,,,,,,,,,,,,,,,,,,,,,,,,,,,,,,,,,,,,,,,,,,,1,2023-12-12_14h33.29.007,watkins1,2023.2.3,99.75261340018018,63,2023-12-12 14h33.37.863316 +0000,
,,,,,,,,,,,18,0,18,0,,,,,,,,,,,,,326.3061791998334,,,,,,,,,,326.3027945002541,326.79907510010526,,,2,1.499698200263083,,,,,,,,,,,,None,None,,,,,,,,,,Löffel,rustikal,"['Löffel', 'rustikal']",restudy_diff,1,,,,,,326.30272829998285,326.3027670001611,"['Kerze', 'Fahrrad', 'Telefon', 'Geige', 'Socke', 'Lampe', 'Tasche', 'Blume', 'Ring', 'Würfel', 'Schlüssel', 'Buch', 'Vase', 'Kette', 'Hammer', 'Rucksack', 'Jacke', 'Tasse', 'Löffel', 'Kamera', 'Bürste', 'Kiste', 'Trommel']",326.799085999839,326.80070419982076,None,326.80082069989294,326.8022838998586,None,326.802383299917,332.80415840027854,2,1.499698200263083,None,332.80443260027096,332.8057587002404,332.8057707999833,332.80701800016686,,,,,,,,,,,,,,,,,,,,,,,,,,,,,,,,,,,,,,,,,,,,,,,,,,,1,2023-12-12_14h33.29.007,watkins1,2023.2.3,99.75261340018018,63,2023-12-12 14h33.37.863316 +0000,
,,,,,,,,,,,19,0,19,0,,,,,,,,,,,,,332.81357080023736,,,,,,,,,,332.8072839002125,333.3060212000273,,,[],[],,,,,,,,,,,,None,None,,,,,,,,,,Kamera,flauschig,"['Kamera', 'flauschig']",control,1,,,,,,332.80721990019083,332.8072577002458,"['Kerze', 'Fahrrad', 'Telefon', 'Geige', 'Socke', 'Lampe', 'Tasche', 'Blume', 'Ring', 'Würfel', 'Schlüssel', 'Buch', 'Vase', 'Kette', 'Hammer', 'Rucksack', 'Jacke', 'Tasse', 'Löffel', 'Kamera', 'Bürste', 'Kiste', 'Trommel']",333.3060322999954,339.3071377002634,1,339.3074093000032,339.3101496002637,None,339.31025229999796,339.31282219989225,None,,,339.31292359996587,339.31421500025317,339.31422690022737,339.315458800178,1.0918161999434233,None,,,,,,,,,,,,,,,,,,,,,,,,,,,,,,,,,,,,,,,,,,,,,,,,,1,2023-12-12_14h33.29.007,watkins1,2023.2.3,99.75261340018018,63,2023-12-12 14h33.37.863316 +0000,
,,,,,,,,,,,20,0,20,0,,,,,,,,,,,,,339.31902879988775,,,,,,,,,,339.3157251002267,339.8125690999441,,,2,2.374255799688399,,,,,,,,,,,,None,None,,,,,,,,,,Bürste,schmutzig,"['Bürste', 'schmutzig']",restudy_diff,1,,,,,,339.3156615998596,339.31570090027526,"['Kerze', 'Fahrrad', 'Telefon', 'Geige', 'Socke', 'Lampe', 'Tasche', 'Blume', 'Ring', 'Würfel', 'Schlüssel', 'Buch', 'Vase', 'Kette', 'Hammer', 'Rucksack', 'Jacke', 'Tasse', 'Löffel', 'Kamera', 'Bürste', 'Kiste', 'Trommel']",339.81257970025763,339.81419609999284,None,339.8143103001639,339.81574949994683,None,339.8158491002396,345.8179442998953,2,2.374255799688399,None,345.8182259001769,345.8195556998253,345.81956760026515,345.8209442999214,,,,,,,,,,,,,,,,,,,,,,,,,,,,,,,,,,,,,,,,,,,,,,,,,,,1,2023-12-12_14h33.29.007,watkins1,2023.2.3,99.75261340018018,63,2023-12-12 14h33.37.863316 +0000,
,,,,,,,,,,,21,0,21,0,,,,,,,,,,,,,345.8273479002528,,,,,,,,,,345.8212139001116,346.31948099983856,,,3,1.656456799712032,,,,,,,,,,,,None,None,,,,,,,,,,Kiste,kaputt,"['Kiste', 'kaputt']",restudy_diff,1,,,,,,345.82114929985255,345.8211874999106,"['Kerze', 'Fahrrad', 'Telefon', 'Geige', 'Socke', 'Lampe', 'Tasche', 'Blume', 'Ring', 'Würfel', 'Schlüssel', 'Buch', 'Vase', 'Kette', 'Hammer', 'Rucksack', 'Jacke', 'Tasse', 'Löffel', 'Kamera', 'Bürste', 'Kiste', 'Trommel']",346.3194921002723,346.3222421002574,None,346.32235760008916,346.324987700209,None,346.32508919993415,352.3306348999031,3,1.656456799712032,None,352.33090880000964,352.33242710027844,352.3324386999011,352.33365050004795,,,,,,,,,,,,,,,,,,,,,,,,,,,,,,,,,,,,,,,,,,,,,,,,,,,1,2023-12-12_14h33.29.007,watkins1,2023.2.3,99.75261340018018,63,2023-12-12 14h33.37.863316 +0000,
,,,,,,,,,,,22,0,22,0,,,,,,,,,,,,,352.34003560012206,,,,,,,,,,352.3339177002199,352.83234849991277,,,[],[],,,,,,,,,,,,None,None,,,,,,,,,,Trommel,kratzig,"['Trommel', 'kratzig']",control,1,,,,,,352.33385379984975,352.33389159990475,"['Kerze', 'Fahrrad', 'Telefon', 'Geige', 'Socke', 'Lampe', 'Tasche', 'Blume', 'Ring', 'Würfel', 'Schlüssel', 'Buch', 'Vase', 'Kette', 'Hammer', 'Rucksack', 'Jacke', 'Tasse', 'Löffel', 'Kamera', 'Bürste', 'Kiste', 'Trommel']",352.8323595998809,358.84244409995154,1,358.842718699947,358.8454701998271,None,358.8455754001625,358.8481727000326,None,,,358.84827600000426,358.8495022999123,358.84951410023496,358.8507150998339,1.5815817001275718,None,,,,,,,,,,,,,,,,,,,,,,,,,,,,,,,,,,,,,,,,,,,,,,,,,1,2023-12-12_14h33.29.007,watkins1,2023.2.3,99.75261340018018,63,2023-12-12 14h33.37.863316 +0000,
,,,,,,,,,,,,,,,,,,,,,,,,,,,,,,,,,,,,,,,,,,,,,,,,,,,,,,,,,,,,,,,,,,,,,1,,,,,,,,,,,,,,,,,,,,,,,,,,,,,,,,,,,,,,,,,,,,,,,,,,,,,,,,,,,,,,,,,,,,,,,,,,1,2023-12-12_14h33.29.007,watkins1,2023.2.3,99.75261340018018,63,2023-12-12 14h33.37.863316 +0000,
(7 x 6) + 9 = 48 ,Incorrect,button_incorrect,,,,,,,,,,,,,0,0,0,9,,,,,,,,,378.44001530017704,,,,,,,,377.4084171000868,378.4122747001238,,,,,['button_incorrect'],[5.335096599999815],,,,,,,,,,,,,,,,,,,,,,,,,,distractorTask,1,,,,,,,,,,,,,,,,,,,,,,,,,,378.4283047001809,378.44001530017704,383.7691466002725,[-0.3962962962962963],[-0.3972222222222222],[1],[0],[0],[5.335096599999815],['button_incorrect'],383.76982320006937,384.77268319996074,,,,,,,,,,,,,,,,,,,,,,,,,,,,,,,,,,,,,1,2023-12-12_14h33.29.007,watkins1,2023.2.3,99.75261340018018,63,2023-12-12 14h33.37.863316 +0000,
(40 : 5) + 8 = 15 ,Incorrect,button_incorrect,,,,,,,,,,,,,0,1,1,7,,,,,,,,,384.7826757999137,,,,,,,,,,,,,,['button_incorrect'],[3.0301948999986053],,,,,,,,,,,,,,,,,,,,,,,,,,distractorTask,1,,,,,,,,,,,,,,,,,,,,,,,,,,384.77288160007447,384.7826757999137,387.80605060001835,[-0.3175925925925926],[-0.4166666666666667],[1],[0],[0],[3.0301948999986053],['button_incorrect'],387.80644149985164,388.80966519983485,,,,,,,,,,,,,,,,,,,,,,,,,,,,,,,,,,,,,1,2023-12-12_14h33.29.007,watkins1,2023.2.3,99.75261340018018,63,2023-12-12 14h33.37.863316 +0000,
(80 : 10) + 9 = 17 ,Correct,button_correct,,,,,,,,,,,,,0,2,2,3,,,,,,,,,388.8195998002775,,,,,,,,,,,,,,['button_correct'],[2.1272015003487468],,,,,,,,,,,,,,,,,,,,,,,,,,distractorTask,1,,,,,,,,,,,,,,,,,,,,,,,,,,388.80985620012507,388.8195998002775,390.93904920015484,[0.3972222222222222],[-0.38333333333333336],[1],[0],[0],[2.1272015003487468],['button_correct'],390.93942889990285,391.9429037999362,,,,,,,,,,,,,,,,,,,,,,,,,,,,,,,,,,,,,1,2023-12-12_14h33.29.007,watkins1,2023.2.3,99.75261340018018,63,2023-12-12 14h33.37.863316 +0000,
(9 x 5) - 9 = 36 ,Correct,button_correct,,,,,,,,,,,,,0,3,3,4,,,,,,,,,391.9528871001676,,,,,,,,,,,,,,['button_correct'],[3.3717517000623047],,,,,,,,,,,,,,,,,,,,,,,,,,distractorTask,1,,,,,,,,,,,,,,,,,,,,,,,,,,391.94309230009094,391.9528871001676,395.31763869989663,[0.34814814814814815],[-0.37592592592592594],[1],[0],[0],[3.3717517000623047],['button_correct'],395.31802179990336,396.32128209993243,,,,,,,,,,,,,,,,,,,,,,,,,,,,,,,,,,,,,1,2023-12-12_14h33.29.007,watkins1,2023.2.3,99.75261340018018,63,2023-12-12 14h33.37.863316 +0000,
(6 x 3) + 10 = 27 ,Incorrect,button_incorrect,,,,,,,,,,,,,0,4,4,8,,,,,,,,,396.3312658001669,,,,,,,,,,,,,,['button_incorrect'],[3.2416028999723494],,,,,,,,,,,,,,,,,,,,,,,,,,distractorTask,1,,,,,,,,,,,,,,,,,,,,,,,,,,396.3214735002257,396.3312658001669,399.5651830001734,[-0.29074074074074074],[-0.38425925925925924],[1],[0],[0],[3.2416028999723494],['button_incorrect'],399.56556460028514,400.56888470007107,,,,,,,,,,,,,,,,,,,,,,,,,,,,,,,,,,,,,1,2023-12-12_14h33.29.007,watkins1,2023.2.3,99.75261340018018,63,2023-12-12 14h33.37.863316 +0000,
(2 x 5) + 3 = 13 ,Correct,button_correct,,,,,,,,,,,,,0,5,5,2,,,,,,,,,400.5788636999205,,,,,,,,,,,,,,['button_correct'],[2.649465700145811],,,,,,,,,,,,,,,,,,,,,,,,,,distractorTask,1,,,,,,,,,,,,,,,,,,,,,,,,,,400.5690772999078,400.5788636999205,403.2202522000298,[0.41388888888888886],[-0.3824074074074074],[1],[0],[0],[2.649465700145811],['button_correct'],403.22063350025564,404.22405159985647,,,,,,,,,,,,,,,,,,,,,,,,,,,,,,,,,,,,,1,2023-12-12_14h33.29.007,watkins1,2023.2.3,99.75261340018018,63,2023-12-12 14h33.37.863316 +0000,
(4 : 2) + 4 = 6 ,Correct,button_correct,,,,,,,,,,,,,0,6,6,1,,,,,,,,,404.23401340004057,,,,,,,,,,,,,,['button_correct'],[3.0814451999031007],,,,,,,,,,,,,,,,,,,,,,,,,,distractorTask,1,,,,,,,,,,,,,,,,,,,,,,,,,,404.2242558998987,404.23401340004057,407.3074123999104,[0.41203703703703703],[-0.3990740740740741],[1],[0],[0],[3.0814451999031007],['button_correct'],407.30781230004504,408.31108730006963,,,,,,,,,,,,,,,,,,,,,,,,,,,,,,,,,,,,,1,2023-12-12_14h33.29.007,watkins1,2023.2.3,99.75261340018018,63,2023-12-12 14h33.37.863316 +0000,
(54 : 6) - 10 = 0 ,Incorrect,button_incorrect,,,,,,,,,,,,,0,7,7,5,,,,,,,,,408.3210797002539,,,,,,,,,,,,,,['button_incorrect'],"[3.081223700195551, 3.5130747999064624]",,,,,,,,,,,,,,,,,,,,,,,,,,distractorTask,1,,,,,,,,,,,,,,,,,,,,,,,,,,408.3112861998379,408.3210797002539,411.8261051001027,"[-0.2712962962962963, -0.2898148148148148]","[-0.39166666666666666, -0.3972222222222222]","[1, 1]","[0, 0]","[0, 0]","[3.081223700195551, 3.5130747999064624]",['button_incorrect'],411.8265152000822,412.82979730004445,,,,,,,,,,,,,,,,,,,,,,,,,,,,,,,,,,,,,1,2023-12-12_14h33.29.007,watkins1,2023.2.3,99.75261340018018,63,2023-12-12 14h33.37.863316 +0000,
(28 : 7) - 3 = 1 ,Correct,button_correct,,,,,,,,,,,,,0,8,8,0,,,,,,,,,412.8397172000259,,,,,,,,,,,,,,['button_correct'],[3.7158415000885725],,,,,,,,,,,,,,,,,,,,,,,,,,distractorTask,1,,,,,,,,,,,,,,,,,,,,,,,,,,412.8299954002723,412.8397172000259,416.5475540999323,[0.28425925925925927],[-0.3787037037037037],[1],[0],[0],[3.7158415000885725],['button_correct'],416.54793119989336,417.54998050024733,,,,,,,,,,,,,,,,,,,,,,,,,,,,,,,,,,,,,1,2023-12-12_14h33.29.007,watkins1,2023.2.3,99.75261340018018,63,2023-12-12 14h33.37.863316 +0000,
(25 : 5) + 5 = 9 ,Incorrect,button_incorrect,,,,,,,,,,,,,0,9,9,6,,,,,,,,,417.56005079997703,,,,,,,,,,,,,,['button_incorrect'],[3.292260800022632],,,,,,,,,,,,,,,,,,,,,,,,,,distractorTask,1,,,,,,,,,,,,,,,,,,,,,,,,,,417.55016899993643,417.56005079997703,420.8441309002228,[-0.32685185185185184],[-0.387037037037037],[1],[0],[0],[3.292260800022632],['button_incorrect'],420.84451980004087,421.8479093001224,,,,,,,,,,,,,,,,,,,,,,,,,,,,,,,,,,,,,1,2023-12-12_14h33.29.007,watkins1,2023.2.3,99.75261340018018,63,2023-12-12 14h33.37.863316 +0000,
,,,,,,,,,,,,,,,,,,,,,,,,,,,,,,,,,,,,,,,,,,,,,,,,,,,,,,,,,,,,,,,,,,,,,1,,,,,,,,,,,,,,,,,,,,,,,,,,,,,,,,,,,,,,,,,,,,,,,,,,,,,,,,,,,,,,,,,,,,,,,,,,1,2023-12-12_14h33.29.007,watkins1,2023.2.3,99.75261340018018,63,2023-12-12 14h33.37.863316 +0000,
,,,,,,,,,,,,,,,,,,,0,0,0,0,,,,,432.7403310998343,,,,,,,,,,,,,,Kiste,6.141756299883127,,,,,,,,,,,,4.216232399921864,None,,,,,,,,,,,,,freeRecallSub,1,,,,,,,,,,,,,,,,,,,,,,,,,,,,,,,,,,,,,,432.73221339983866,432.7403310998343,432.7403310998343,438.88577240007,return,6.141756299883127,None,Kiste,[-0.006481481481481481],[0.037037037037037035],[1],[0],[0],[1.7856359998695552],[],,,,,,,,,,,,,,,,,,,,,,1,2023-12-12_14h33.29.007,watkins1,2023.2.3,99.75261340018018,63,2023-12-12 14h33.37.863316 +0000,
,,,,,,,,,,,,,,,,,,,1,0,1,0,,,,,438.89835620019585,,,,,,,,,,,,,,Lampe,6.183754300232977,,,,,,,,,,,,4.8431131998077035,None,,,,,,,,,,,,,freeRecallSub,1,,,,,,,,,,,,,,,,,,,,,,,,,,,,,,,,,,,,,,438.887605200056,438.89835620019585,438.89835620019585,445.08659479999915,return,6.183754300232977,None,Lampe,[],[],[],[],[],[],[],,,,,,,,,,,,,,,,,,,,,,1,2023-12-12_14h33.29.007,watkins1,2023.2.3,99.75261340018018,63,2023-12-12 14h33.37.863316 +0000,
,,,,,,,,,,,,,,,,,,,2,0,2,0,,,,,445.0968661000952,,,,,,,,,,,,,,Rucksack,3.2333057997748256,,,,,,,,,,,,0.8430631002411246,None,,,,,,,,,,,,,freeRecallSub,1,,,,,,,,,,,,,,,,,,,,,,,,,,,,,,,,,,,,,,445.0878465999849,445.0968661000952,445.0968661000952,448.33084269985557,return,3.2333057997748256,None,Rucksack,[],[],[],[],[],[],[],,,,,,,,,,,,,,,,,,,,,,1,2023-12-12_14h33.29.007,watkins1,2023.2.3,99.75261340018018,63,2023-12-12 14h33.37.863316 +0000,
,,,,,,,,,,,,,,,,,,,3,0,3,0,,,,,448.3417854998261,,,,,,,,,,,,,,Jacke,1.9643550999462605,,,,,,,,,,,,0.532298999838531,None,,,,,,,,,,,,,freeRecallSub,1,,,,,,,,,,,,,,,,,,,,,,,,,,,,,,,,,,,,,,448.3320879000239,448.3417854998261,448.3417854998261,450.3102624998428,return,1.9643550999462605,None,Jacke,[],[],[],[],[],[],[],,,,,,,,,,,,,,,,,,,,,,1,2023-12-12_14h33.29.007,watkins1,2023.2.3,99.75261340018018,63,2023-12-12 14h33.37.863316 +0000,
,,,,,,,,,,,,,,,,,,,4,0,4,0,,,,,450.32068500015885,,,,,,,,,,,,,,Brille,6.601317100226879,,,,,,,,,,,,4.539043599739671,None,,,,,,,,,,,,,freeRecallSub,1,,,,,,,,,,,,,,,,,,,,,,,,,,,,,,,,,,,,,,450.31152690015733,450.32068500015885,450.32068500015885,456.92894120002165,return,6.601317100226879,None,Brille,[],[],[],[],[],[],[],,,,,,,,,,,,,,,,,,,,,,1,2023-12-12_14h33.29.007,watkins1,2023.2.3,99.75261340018018,63,2023-12-12 14h33.37.863316 +0000,
,,,,,,,,,,,,,,,,,,,5,0,5,0,,,,,456.93999820016325,,,,,,,,,,,,,,Telefon,61.97396539989859,,,,,,,,,,,,59.609584300313145,None,,,,,,,,,,,,,freeRecallSub,1,,,,,,,,,,,,,,,,,,,,,,,,,,,,,,,,,,,,,,456.9301852998324,456.93999820016325,456.93999820016325,518.9197745001875,return,61.97396539989859,None,Telefon,[],[],[],[],[],[],[],,,,,,,,,,,,,,,,,,,,,,1,2023-12-12_14h33.29.007,watkins1,2023.2.3,99.75261340018018,63,2023-12-12 14h33.37.863316 +0000,
,,,,,,,,,,,,,,,,,,,6,0,6,0,,,,,518.9314661002718,,,,,,,,,,,,,,Fahrrad,22.422583899926394,,,,,,,,,,,,19.945251899771392,None,,,,,,,,,,,,,freeRecallSub,1,,,,,,,,,,,,,,,,,,,,,,,,,,,,,,,,,,,,,,518.9210771000944,518.9314661002718,518.9314661002718,541.3567099999636,return,22.422583899926394,None,Fahrrad,[],[],[],[],[],[],[],,,,,,,,,,,,,,,,,,,,,,1,2023-12-12_14h33.29.007,watkins1,2023.2.3,99.75261340018018,63,2023-12-12 14h33.37.863316 +0000,
,,,,,,,,,,,,,,,,,,,7,0,7,0,,,,,541.3685971000232,,,,,,,,,,,,,,Würfel,7.409403700381517,,,,,,,,,,,,5.464357200078666,None,,,,,,,,,,,,,freeRecallSub,1,,,,,,,,,,,,,,,,,,,,,,,,,,,,,,,,,,,,,,541.3579845000058,541.3685971000232,541.3685971000232,548.7810194999911,return,7.409403700381517,None,Würfel,[],[],[],[],[],[],[],,,,,,,,,,,,,,,,,,,,,,1,2023-12-12_14h33.29.007,watkins1,2023.2.3,99.75261340018018,63,2023-12-12 14h33.37.863316 +0000,
,,,,,,,,,,,,,,,,,,,8,0,8,0,,,,,548.7928979001008,,,,,,,,,,,,,,Buch,10.617108900099993,,,,,,,,,,,,9.672589300200343,None,,,,,,,,,,,,,freeRecallSub,1,,,,,,,,,,,,,,,,,,,,,,,,,,,,,,,,,,,,,,548.7822822998278,548.7928979001008,548.7928979001008,559.4187942999415,return,10.617108900099993,None,Buch,[],[],[],[],[],[],[],,,,,,,,,,,,,,,,,,,,,,1,2023-12-12_14h33.29.007,watkins1,2023.2.3,99.75261340018018,63,2023-12-12 14h33.37.863316 +0000,
,,,,,,,,,,,,,,,,,,,9,0,9,0,,,,,559.4303529001772,,,,,,,,,,,,,,Hammer,93.1555745000951,,,,,,,,,,,,91.74296620022506,None,,,,,,,,,,,,,freeRecallSub,1,,,,,,,,,,,,,,,,,,,,,,,,,,,,,,,,,,,,,,559.4200550001115,559.4303529001772,559.4303529001772,652.5891121998429,return,93.1555745000951,None,Hammer,[-0.03888888888888889],[0.053703703703703705],[1],[0],[0],[79.20717989979312],[],,,,,,,,,,,,,,,,,,,,,,1,2023-12-12_14h33.29.007,watkins1,2023.2.3,99.75261340018018,63,2023-12-12 14h33.37.863316 +0000,
,,,,,,,,,,,,,,,,,,,10,0,10,0,,,,,652.6015059002675,,,,,,,,,,,,,,Geige,69.9203194999136,,,,,,,,,,,,68.6496438998729,None,,,,,,,,,,,,,freeRecallSub,1,,,,,,,,,,,,,,,,,,,,,,,,,,,,,,,,,,,,,,652.590443499852,652.6015059002675,652.6015059002675,722.5254255002365,return,69.9203194999136,None,Geige,[0.004629629629629629],[0.06018518518518518],[1],[0],[0],[67.71060100011528],[],,,,,,,,,,,,,,,,,,,,,,1,2023-12-12_14h33.29.007,watkins1,2023.2.3,99.75261340018018,63,2023-12-12 14h33.37.863316 +0000,
,,,,,,,,,,,,,,,,,,,11,0,11,0,,,,,722.5381149998866,,,,,,,,,,,,,,,[],,,,,,,,,,,,None,None,,,,,,,,,,,,,freeRecallSub,1,,,,,,,,,,,,,,,,,,,,,,,,,,,,,,,,,,,,,,722.5267394999973,722.5381149998866,722.5381149998866,763.1818166002631,None,,,,[0.42685185185185187],[-0.3925925925925926],[1],[0],[0],[40.649823899846524],"['button_continue', 'continue_text']",,,,,,,,,,,,,,,,,,,,,,1,2023-12-12_14h33.29.007,watkins1,2023.2.3,99.75261340018018,63,2023-12-12 14h33.37.863316 +0000,
,,,,,,,,,,,,,,,,,,,,,,,,,,,,,,,,,,,,,,,,,,,,,,,,,,,,,,,,,,,,,,,,,,,,,1,,,,,,,,,,,,,,,,,,,,,,,,,,,,,,,,,,,,,,,,,,,,,,,,,,,,,,,,,,,,,,,,,,,,,,,,,,1,2023-12-12_14h33.29.007,watkins1,2023.2.3,99.75261340018018,63,2023-12-12 14h33.37.863316 +0000,
,,,,,,,,,,,,,,,,,,,,,,,0,0,0,0,779.3232729001902,,,,,,,,,,798.1148987002671,798.6135105998255,,,,18.782544299960136,,,,,,,,,,,,None,None,,,,,,,,,,Tasse,,,cuedRecallAdj,1,,,,,,,,,,,,,,,,,,,,,,,,,,,,,,,,,,,,,,,,,,,,,,,,,,,,,779.314247299917,779.3232729001902,0,779.3232729001902,798.1117476001382,klein,return,18.782544299960136,None,798.1121376999654,798.1213511000387,798.1213511000387,798.1147504998371,,None,,,,,,,1,2023-12-12_14h33.29.007,watkins1,2023.2.3,99.75261340018018,63,2023-12-12 14h33.37.863316 +0000,
,,,,,,,,,,,,,,,,,,,,,,,1,0,1,0,798.6235194001347,,,,,,,,,,810.7448346000165,811.2360336999409,,,niedlich,5.7944744997657835,,,,,,,,,,,,4.527497800067067,None,,,,,,,,,,Geige,,,cuedRecallAdj,1,,,,,,,,,,,,,,,,,,,,,,,,,,,,,,,,,,,,,,,,,,,,,,,,,,,,,798.6137478998862,798.6235194001347,0,798.6235194001347,804.4187151002698,gestreift,return,5.7944744997657835,None,804.4189756000414,804.4275191002525,804.4275191002525,810.7444734000601,niedlich,return,6.310155200306326,None,,,,,1,2023-12-12_14h33.29.007,watkins1,2023.2.3,99.75261340018018,63,2023-12-12 14h33.37.863316 +0000,
,,,,,,,,,,,,,,,,,,,,,,,2,0,2,0,811.2459411001764,,,,,,,,,,816.4489853000268,816.9402521001175,,,hohl,3.379753800109029,,,,,,,,,,,,0.6621992001309991,None,,,,,,,,,,Kette,,,cuedRecallAdj,1,,,,,,,,,,,,,,,,,,,,,,,,,,,,,,,,,,,,,,,,,,,,,,,,,,,,,811.236274600029,811.2459411001764,0,811.2459411001764,814.6309909000993,biegsam,return,3.379753800109029,None,814.6312539000064,814.6404678998515,814.6404678998515,816.4487220998853,hohl,return,1.8012929996475577,None,,,,,1,2023-12-12_14h33.29.007,watkins1,2023.2.3,99.75261340018018,63,2023-12-12 14h33.37.863316 +0000,
,,,,,,,,,,,,,,,,,,,,,,,3,0,3,0,816.9502066001296,,,,,,,,,,825.6697748000734,826.1684309998527,,,,8.707561899907887,,,,,,,,,,,,None,None,,,,,,,,,,Uhr,,,cuedRecallAdj,1,,,,,,,,,,,,,,,,,,,,,,,,,,,,,,,,,,,,,,,,,,,,,,,,,,,,,816.9404931999743,816.9502066001296,0,816.9502066001296,825.6665321998298,hässlich,return,8.707561899907887,None,825.6667908998206,825.6762485001236,825.6762485001236,825.6696721999906,,None,,,,,,,1,2023-12-12_14h33.29.007,watkins1,2023.2.3,99.75261340018018,63,2023-12-12 14h33.37.863316 +0000,
,,,,,,,,,,,,,,,,,,,,,,,4,0,4,0,826.1783314002678,,,,,,,,,,831.6817093999125,832.1731266998686,,,neu,4.3913539997302,,,,,,,,,,,,0.6015468998812139,None,,,,,,,,,,Telefon,,,cuedRecallAdj,1,,,,,,,,,,,,,,,,,,,,,,,,,,,,,,,,,,,,,,,,,,,,,,,,,,,,,826.1686758999713,826.1783314002678,0,826.1783314002678,830.5771550000645,glänzend,return,4.3913539997302,None,830.5774166001938,830.5866720001213,830.5866720001213,831.6814425000921,neu,return,1.0871331999078393,None,,,,,1,2023-12-12_14h33.29.007,watkins1,2023.2.3,99.75261340018018,63,2023-12-12 14h33.37.863316 +0000,
,,,,,,,,,,,,,,,,,,,,,,,5,0,5,0,832.1831342000514,,,,,,,,,,848.4011420002207,848.8925518998876,,,riesig,5.738529700320214,,,,,,,,,,,,8.725373199675232,None,,,,,,,,,,Vase,,,cuedRecallAdj,1,,,,,,,,,,,,,,,,,,,,,,,,,,,,,,,,,,,,,,,,,,,,,,,,,,,,,832.1733647999354,832.1831342000514,0,832.1831342000514,837.9274507001974,sportlich,return,5.738529700320214,None,837.927712299861,837.9369478998706,837.9369478998706,848.400880199857,riesig,return,10.456760399974883,None,,,,,1,2023-12-12_14h33.29.007,watkins1,2023.2.3,99.75261340018018,63,2023-12-12 14h33.37.863316 +0000,
,,,,,,,,,,,,,,,,,,,,,,,6,0,6,0,848.902451899834,,,,,,,,,,867.019827300217,867.5112415002659,,,klein,3.827254999894649,,,,,,,,,,,,13.487021700013429,None,,,,,,,,,,Blume,,,cuedRecallAdj,1,,,,,,,,,,,,,,,,,,,,,,,,,,,,,,,,,,,,,,,,,,,,,,,,,,,,,848.8927913000807,848.902451899834,0,848.902451899834,852.7385587999597,gepunktet,return,3.827254999894649,None,852.7388180000708,852.7482783002779,852.7482783002779,867.0195666998625,klein,return,14.26932769967243,None,,,,,1,2023-12-12_14h33.29.007,watkins1,2023.2.3,99.75261340018018,63,2023-12-12 14h33.37.863316 +0000,
,,,,,,,,,,,,,,,,,,,,,,,7,0,7,0,867.5211987998337,,,,,,,,,,870.4571083998308,870.9555589002557,,,,2.9284113002941012,,,,,,,,,,,,None,None,,,,,,,,,,Tasche,,,cuedRecallAdj,1,,,,,,,,,,,,,,,,,,,,,,,,,,,,,,,,,,,,,,,,,,,,,,,,,,,,,867.5114790000953,867.5211987998337,0,867.5211987998337,870.4537543999031,breit,return,2.9284113002941012,None,870.4540204000659,870.4633617000654,870.4633617000654,870.4570094002411,,None,,,,,,,1,2023-12-12_14h33.29.007,watkins1,2023.2.3,99.75261340018018,63,2023-12-12 14h33.37.863316 +0000,
,,,,,,,,,,,,,,,,,,,,,,,8,0,8,0,870.9655166999437,,,,,,,,,,874.413417799864,874.9119041999802,,,,3.4441378000192344,,,,,,,,,,,,None,None,,,,,,,,,,Rucksack,,,cuedRecallAdj,1,,,,,,,,,,,,,,,,,,,,,,,,,,,,,,,,,,,,,,,,,,,,,,,,,,,,,870.9558013998903,870.9655166999437,0,870.9655166999437,874.4102888000198,globig,return,3.4441378000192344,None,874.4105495000258,874.4198346999474,874.4198346999474,874.4133167001419,,None,,,,,,,1,2023-12-12_14h33.29.007,watkins1,2023.2.3,99.75261340018018,63,2023-12-12 14h33.37.863316 +0000,
,,,,,,,,,,,,,,,,,,,,,,,9,0,9,0,874.9218508000486,,,,,,,,,,877.8679606001824,878.3667136998847,,,,2.935868199914694,,,,,,,,,,,,None,None,,,,,,,,,,Schlüssel,,,cuedRecallAdj,1,,,,,,,,,,,,,,,,,,,,,,,,,,,,,,,,,,,,,,,,,,,,,,,,,,,,,874.9121459000744,874.9218508000486,0,874.9218508000486,877.8650230001658,bunt,return,2.935868199914694,None,877.8652836000547,877.8745258999988,877.8745258999988,877.8678605998866,,None,,,,,,,1,2023-12-12_14h33.29.007,watkins1,2023.2.3,99.75261340018018,63,2023-12-12 14h33.37.863316 +0000,
,,,,,,,,,,,,,,,,,,,,,,,10,0,10,0,878.3766526002437,,,,,,,,,,921.5093987002037,922.0081949001178,,,,43.12902279989794,,,,,,,,,,,,None,None,,,,,,,,,,Hut,,,cuedRecallAdj,1,,,,,,,,,,,,,,,,,,,,,,,,,,,,,,,,,,,,,,,,,,,,,,,,,,,,,878.3669545999728,878.3766526002437,0,878.3766526002437,921.5065291998908,filigran,return,43.12902279989794,None,921.5067932000384,921.5161775001325,921.5161775001325,921.509295000229,,None,,,,,,,1,2023-12-12_14h33.29.007,watkins1,2023.2.3,99.75261340018018,63,2023-12-12 14h33.37.863316 +0000,
,,,,,,,,,,,,,,,,,,,,,,,11,0,11,0,922.018189100083,,,,,,,,,,924.9739161999896,925.472444999963,,,,2.9513840000145137,,,,,,,,,,,,None,None,,,,,,,,,,Brille,,,cuedRecallAdj,1,,,,,,,,,,,,,,,,,,,,,,,,,,,,,,,,,,,,,,,,,,,,,,,,,,,,,922.008445400279,922.018189100083,0,922.018189100083,924.9707535002381,glatt,return,2.9513840000145137,None,924.971016000025,924.9804334002547,924.9804334002547,924.9738158001564,,None,,,,,,,1,2023-12-12_14h33.29.007,watkins1,2023.2.3,99.75261340018018,63,2023-12-12 14h33.37.863316 +0000,
,,,,,,,,,,,,,,,,,,,,,,,12,0,12,0,925.4823512001894,,,,,,,,,,932.1308901002631,932.6222987002693,,,verspielt,3.959364900365472,,,,,,,,,,,,1.1541310995817184,None,,,,,,,,,,Bürste,,,cuedRecallAdj,1,,,,,,,,,,,,,,,,,,,,,,,,,,,,,,,,,,,,,,,,,,,,,,,,,,,,,925.472682100255,925.4823512001894,0,925.4823512001894,929.4496039999649,schmutzig,return,3.959364900365472,None,929.4498609998263,929.4593250001781,929.4593250001781,932.130622100085,verspielt,return,2.6703542000614107,None,,,,,1,2023-12-12_14h33.29.007,watkins1,2023.2.3,99.75261340018018,63,2023-12-12 14h33.37.863316 +0000,
,,,,,,,,,,,,,,,,,,,,,,,13,0,13,0,932.6322416998446,,,,,,,,,,946.5507255000994,947.0421247002669,,,robust,2.1133260000497103,,,,,,,,,,,,9.318061099853367,None,,,,,,,,,,Buch,,,cuedRecallAdj,1,,,,,,,,,,,,,,,,,,,,,,,,,,,,,,,,,,,,,,,,,,,,,,,,,,,,,932.6225368999876,932.6322416998446,0,932.6322416998446,934.7514801002108,dick,return,2.1133260000497103,None,934.7517595002428,934.7610349999741,934.7610349999741,946.5504618999548,robust,return,11.784565200097859,None,,,,,1,2023-12-12_14h33.29.007,watkins1,2023.2.3,99.75261340018018,63,2023-12-12 14h33.37.863316 +0000,
,,,,,,,,,,,,,,,,,,,,,,,14,0,14,0,947.0520569002256,,,,,,,,,,956.482838800177,956.9744600998238,,,nachhaltig,6.7975264000706375,,,,,,,,,,,,0.5916740000247955,None,,,,,,,,,,Löffel,,,cuedRecallAdj,1,,,,,,,,,,,,,,,,,,,,,,,,,,,,,,,,,,,,,,,,,,,,,,,,,,,,,947.0423651998863,947.0520569002256,0,947.0520569002256,953.8519716002047,rustikal,return,6.7975264000706375,None,953.8522501001135,953.861515100114,953.861515100114,956.4825717001222,nachhaltig,return,2.612106299959123,None,,,,,1,2023-12-12_14h33.29.007,watkins1,2023.2.3,99.75261340018018,63,2023-12-12 14h33.37.863316 +0000,
,,,,,,,,,,,,,,,,,,,,,,,15,0,15,0,956.9844108000398,,,,,,,,,,964.3151778001338,964.8065857999027,,,lang,3.609128599986434,,,,,,,,,,,,1.7264459999278188,None,,,,,,,,,,Kiste,,,cuedRecallAdj,1,,,,,,,,,,,,,,,,,,,,,,,,,,,,,,,,,,,,,,,,,,,,,,,,,,,,,956.9747029999271,956.9844108000398,0,956.9844108000398,960.5996296000667,kaputt,return,3.609128599986434,None,960.599891600199,960.6092948000878,960.6092948000878,964.314912899863,lang,return,3.7043360001407564,None,,,,,1,2023-12-12_14h33.29.007,watkins1,2023.2.3,99.75261340018018,63,2023-12-12 14h33.37.863316 +0000,
,,,,,,,,,,,,,,,,,,,,,,,16,0,16,0,964.8165369001217,,,,,,,,,,968.3747259001248,968.8731613000855,,,,3.5450198999606073,,,,,,,,,,,,None,None,,,,,,,,,,Ring,,,cuedRecallAdj,1,,,,,,,,,,,,,,,,,,,,,,,,,,,,,,,,,,,,,,,,,,,,,,,,,,,,,964.8068311000243,964.8165369001217,0,964.8165369001217,968.3713414999656,hübsch,return,3.5450198999606073,None,968.3716024998575,968.3810677998699,968.3810677998699,968.3746253000572,,None,,,,,,,1,2023-12-12_14h33.29.007,watkins1,2023.2.3,99.75261340018018,63,2023-12-12 14h33.37.863316 +0000,
,,,,,,,,,,,,,,,,,,,,,,,17,0,17,0,968.883224000223,,,,,,,,,,1000.5952122998424,1001.0865342002362,,,schnell,2.4623584002256393,,,,,,,,,,,,27.985463300254196,None,,,,,,,,,,Würfel,,,cuedRecallAdj,1,,,,,,,,,,,,,,,,,,,,,,,,,,,,,,,,,,,,,,,,,,,,,,,,,,,,,968.8734102002345,968.883224000223,0,968.883224000223,971.3536882000044,matt,return,2.4623584002256393,None,971.353946399875,971.3634784002788,971.3634784002788,1000.5949504999444,schnell,return,29.230061100330204,None,,,,,1,2023-12-12_14h33.29.007,watkins1,2023.2.3,99.75261340018018,63,2023-12-12 14h33.37.863316 +0000,
,,,,,,,,,,,,,,,,,,,,,,,18,0,18,0,1001.096438200213,,,,,,,,,,1010.0757240001112,1010.5670457999222,,,nass,6.569108199793845,,,,,,,,,,,,1.5968685001134872,None,,,,,,,,,,Jacke,,,cuedRecallAdj,1,,,,,,,,,,,,,,,,,,,,,,,,,,,,,,,,,,,,,,,,,,,,,,,,,,,,,1001.086775700096,1001.096438200213,0,1001.096438200213,1007.6744262999855,leuchtend,return,6.569108199793845,None,1007.6746831000783,1007.6840860000812,1007.6840860000812,1010.0754634002224,nass,return,2.3894890001975,None,,,,,1,2023-12-12_14h33.29.007,watkins1,2023.2.3,99.75261340018018,63,2023-12-12 14h33.37.863316 +0000,
,,,,,,,,,,,,,,,,,,,,,,,19,0,19,0,1010.5769539000466,,,,,,,,,,1024.3948984001763,1024.8868011999875,,,schlicht,3.7205381002277136,,,,,,,,,,,,8.2336982996203,None,,,,,,,,,,Fahrrad,,,cuedRecallAdj,1,,,,,,,,,,,,,,,,,,,,,,,,,,,,,,,,,,,,,,,,,,,,,,,,,,,,,1010.5672805001959,1010.5769539000466,0,1010.5769539000466,1014.3027380998246,dunkel,return,3.7205381002277136,None,1014.3029991001822,1014.312278999947,1014.312278999947,1024.3946354999207,schlicht,return,10.073295400012285,None,,,,,1,2023-12-12_14h33.29.007,watkins1,2023.2.3,99.75261340018018,63,2023-12-12 14h33.37.863316 +0000,
,,,,,,,,,,,,,,,,,,,,,,,20,0,20,0,1024.8968464001082,,,,,,,,,,1028.6659935000353,1029.1643193000928,,,,3.760699499864131,,,,,,,,,,,,None,None,,,,,,,,,,Socke,,,cuedRecallAdj,1,,,,,,,,,,,,,,,,,,,,,,,,,,,,,,,,,,,,,,,,,,,,,,,,,,,,,1024.8870470002294,1024.8968464001082,0,1024.8968464001082,1028.662693399936,lustig,return,3.760699499864131,None,1028.6629543998279,1028.6723138000816,1028.6723138000816,1028.6658936999738,,None,,,,,,,1,2023-12-12_14h33.29.007,watkins1,2023.2.3,99.75261340018018,63,2023-12-12 14h33.37.863316 +0000,
,,,,,,,,,,,,,,,,,,,,,,,21,0,21,0,1029.174362800084,,,,,,,,,,1033.938183600083,1034.436911399942,,,,4.755664000287652,,,,,,,,,,,,None,None,,,,,,,,,,Flasche,,,cuedRecallAdj,1,,,,,,,,,,,,,,,,,,,,,,,,,,,,,,,,,,,,,,,,,,,,,,,,,,,,,1029.1645609000698,1029.174362800084,0,1029.174362800084,1033.9351701000705,riesig,return,4.755664000287652,None,1033.9354341998696,1033.9447483001277,1033.9447483001277,1033.9380842000246,,None,,,,,,,1,2023-12-12_14h33.29.007,watkins1,2023.2.3,99.75261340018018,63,2023-12-12 14h33.37.863316 +0000,
,,,,,,,,,,,,,,,,,,,,,,,22,0,22,0,1034.4468670999631,,,,,,,,,,1041.808618800249,1042.300259000156,,,schmutzig,4.362572299782187,,,,,,,,,,,,1.0131406001746655,None,,,,,,,,,,Hammer,,,cuedRecallAdj,1,,,,,,,,,,,,,,,,,,,,,,,,,,,,,,,,,,,,,,,,,,,,,,,,,,,,,1034.4371548001654,1034.4468670999631,0,1034.4468670999631,1038.8163505000994,praktisch,return,4.362572299782187,None,1038.8166093998589,1038.8258833000436,1038.8258833000436,1041.8083532000892,schmutzig,return,2.975661200005561,None,,,,,1,2023-12-12_14h33.29.007,watkins1,2023.2.3,99.75261340018018,63,2023-12-12 14h33.37.863316 +0000,
,,,,,,,,,,,,,,,,,,,,,,,23,0,23,0,1042.3101511001587,,,,,,,,,,1054.313498500269,1054.8119764998555,,,,11.995359600055963,,,,,,,,,,,,None,None,,,,,,,,,,Kamera,,,cuedRecallAdj,1,,,,,,,,,,,,,,,,,,,,,,,,,,,,,,,,,,,,,,,,,,,,,,,,,,,,,1042.3005050001666,1042.3101511001587,0,1042.3101511001587,1054.3103434001096,hell,return,11.995359600055963,None,1054.310606900137,1054.3199084000662,1054.3199084000662,1054.3133975001983,,None,,,,,,,1,2023-12-12_14h33.29.007,watkins1,2023.2.3,99.75261340018018,63,2023-12-12 14h33.37.863316 +0000,
,,,,,,,,,,,,,,,,,,,,,,,24,0,24,0,1054.8220275002532,,,,,,,,,,1061.6409795000218,1062.1322293002158,,,elegant,4.171380999963731,,,,,,,,,,,,1.023451799992472,None,,,,,,,,,,Lampe,,,cuedRecallAdj,1,,,,,,,,,,,,,,,,,,,,,,,,,,,,,,,,,,,,,,,,,,,,,,,,,,,,,1054.812220999971,1054.8220275002532,0,1054.8220275002532,1058.9998391000554,groß,return,4.171380999963731,None,1059.0000980002806,1059.009434199892,1059.009434199892,1061.6407158002257,elegant,return,2.623993800021708,None,,,,,1,2023-12-12_14h33.29.007,watkins1,2023.2.3,99.75261340018018,63,2023-12-12 14h33.37.863316 +0000,
,,,,,,,,,,,,,,,,,,,,,,,25,0,25,0,1062.1421580002643,,,,,,,,,,1064.4758242000826,1064.9740907000378,,,,2.323353599756956,,,,,,,,,,,,None,None,,,,,,,,,,Stift,,,cuedRecallAdj,1,,,,,,,,,,,,,,,,,,,,,,,,,,,,,,,,,,,,,,,,,,,,,,,,,,,,,1062.1324673001654,1062.1421580002643,0,1062.1421580002643,1064.4723804998212,schwer,return,2.323353599756956,None,1064.4726403001696,1064.4820336000994,1064.4820336000994,1064.475724299904,,None,,,,,,,1,2023-12-12_14h33.29.007,watkins1,2023.2.3,99.75261340018018,63,2023-12-12 14h33.37.863316 +0000,
,,,,,,,,,,,,,,,,,,,,,,,26,0,26,0,1064.9840424000286,,,,,,,,,,1072.6705666999333,1073.1694040000439,,,,7.6813813000917435,,,,,,,,,,,,None,None,,,,,,,,,,Trommel,,,cuedRecallAdj,1,,,,,,,,,,,,,,,,,,,,,,,,,,,,,,,,,,,,,,,,,,,,,,,,,,,,,1064.974332400132,1064.9840424000286,0,1064.9840424000286,1072.6676957998425,hell,return,7.6813813000917435,None,1072.667957500089,1072.677215100266,1072.677215100266,1072.6704660998657,,None,,,,,,,1,2023-12-12_14h33.29.007,watkins1,2023.2.3,99.75261340018018,63,2023-12-12 14h33.37.863316 +0000,
,,,,,,,,,,,,,,,,,,,,,,,27,0,27,0,1073.1793462000787,,,,,,,,,,1084.7880028001964,1085.27943889983,,,durchsichtig,2.846160599961877,,,,,,,,,,,,2.8106560995802283,None,,,,,,,,,,Kerze,,,cuedRecallAdj,1,,,,,,,,,,,,,,,,,,,,,,,,,,,,,,,,,,,,,,,,,,,,,,,,,,,,,1073.1696476000361,1073.1793462000787,0,1073.1793462000787,1076.0316391000524,gut,return,2.846160599961877,None,1076.0319020999596,1076.0411781999283,1076.0411781999283,1084.7877341001295,durchsichtig,return,8.744219300337136,None,,,,,1,2023-12-12_14h33.29.007,watkins1,2023.2.3,99.75261340018018,63,2023-12-12 14h33.37.863316 +0000,
,,,,,,,,,,,,,,,,,,,,,,,28,0,28,0,1085.2893985002302,,,,,,,,,,1089.9929629000835,1090.4911823002622,,,,4.69614339992404,,,,,,,,,,,,None,None,,,,,,,,,,Schere,,,cuedRecallAdj,1,,,,,,,,,,,,,,,,,,,,,,,,,,,,,,,,,,,,,,,,,,,,,,,,,,,,,1085.279677500017,1085.2893985002302,0,1085.2893985002302,1089.9894602000713,krumm,return,4.69614339992404,None,1089.989740199875,1089.9989919001237,1089.9989919001237,1089.9928561998531,,None,,,,,,,1,2023-12-12_14h33.29.007,watkins1,2023.2.3,99.75261340018018,63,2023-12-12 14h33.37.863316 +0000,
,,,,,,,,,,,,,,,,,,,,,,,29,0,29,0,1090.5011311001144,,,,,,,,,,1093.6878272001632,1094.1862987000495,,,,3.18038360029459,,,,,,,,,,,,None,None,,,,,,,,,,Eimer,,,cuedRecallAdj,1,,,,,,,,,,,,,,,,,,,,,,,,,,,,,,,,,,,,,,,,,,,,,,,,,,,,,1090.4914187001996,1090.5011311001144,0,1090.5011311001144,1093.6846702001058,flach,return,3.18038360029459,None,1093.6849464001134,1093.6942086000927,1093.6942086000927,1093.6877264999785,,None,,,,,,,1,2023-12-12_14h33.29.007,watkins1,2023.2.3,99.75261340018018,63,2023-12-12 14h33.37.863316 +0000,
,,,,,,,,,,,,,,,,,,,,,,,,,,,,,,,,,,,,,,,,,,,,,,,,,,,,,,,,,,,,,,,,,,,,,1,,,,,,,,,,,,,,,,,,,,,,,,,,,,,,,,,,,,,,,,,,,,,,,,,,,,,,,,,,,,,,,,,,,,,,1094.202827299945,q,1160.6615626998246,None,1,2023-12-12_14h33.29.007,watkins1,2023.2.3,99.75261340018018,63,2023-12-12 14h33.37.863316 +0000,
