Equation,CorrectResponse,Correctbutton,trials_7.thisRepN,trials_7.thisTrialN,trials_7.thisN,trials_7.thisIndex,trials.thisRepN,trials.thisTrialN,trials.thisN,trials.thisIndex,trials_3.thisRepN,trials_3.thisTrialN,trials_3.thisN,trials_3.thisIndex,trials_2.thisRepN,trials_2.thisTrialN,trials_2.thisN,trials_2.thisIndex,trials_4.thisRepN,trials_4.thisTrialN,trials_4.thisN,trials_4.thisIndex,trials_5.thisRepN,trials_5.thisTrialN,trials_5.thisN,trials_5.thisIndex,thisRow.t,notes,code_marius.started,code_marius.stopped,welcome.started,welcome.stopped,instruction_study.started,instruction_study.stopped,fixationcross.started,fixationcross.stopped,blanc.started,blanc.stopped,study_control_probe.started,study_control_probe.stopped,responseKey,responseTime,scale_answer_2.keys,study_control_probe_2.started,study_control_probe_2.stopped,scale_answer_3.keys,scale_answer_3.rt,scale_answer_3.duration,blanc_2.started,blanc_2.stopped,test_attr_probe.started,test_attr_probe.stopped,recalled_attr,firstKeyTime,secondWordTime,blanc_3.started,blanc_3.stopped,test_sub_probe.started,test_sub_probe.stopped,recalled_sub,instruction_probe_end.started,instruction_probe_end.stopped,study.started,study.stopped,substantive,adjective,wordpair,task,condition,liste_sub_phase1,liste_adj_phase1,scale_answer.keys,scale_answer.rt,scale_answer.duration,code_defineWordsInit.started,code_defineWordsInit.stopped,liste_sub_phase2,study_control.started,study_control.stopped,scale_answer_4.keys,scale_answer_4.rt,scale_answer_4.duration,restudy_same.started,restudy_same.stopped,scale_answer_5.keys,restudy_different.started,restudy_different.stopped,scale_answer_6.keys,test_attr.started,test_attr.stopped,test_sub.started,test_sub.stopped,scale_answer_6.rt,scale_answer_6.duration,distractortask.started,equation_text.started,distractortask.stopped,mouse_answer.x,mouse_answer.y,mouse_answer.leftButton,mouse_answer.midButton,mouse_answer.rightButton,mouse_answer.time,mouse_answer.clicked_name,feedback_distractortask.started,feedback_distractortask.stopped,free_recall.started,text_enter.started,key_resp.started,free_recall.stopped,key_resp.keys,key_resp.rt,key_resp.duration,free_recalled_sub,mouse_continue.x,mouse_continue.y,mouse_continue.leftButton,mouse_continue.midButton,mouse_continue.rightButton,mouse_continue.time,mouse_continue.clicked_name,cued_recall.started,text_enter_2.started,correct,key_continue.started,cued_recall.stopped,recalled_attr1,key_continue.keys,key_continue.rt,key_continue.duration,cued_recall_2.started,text_enter_3.started,key_continue_2.started,cued_recall_2.stopped,recalled_attr2,key_continue_2.keys,key_continue_2.rt,key_continue_2.duration,key_resp_8.started,key_resp_8.keys,key_resp_8.rt,key_resp_8.duration,condition,date,expName,psychopyVersion,frameRate,participant,expStart,
,,,,,,,,,,,,,,,,,,,,,,,,,,,,,0.11431780003476888,0.11438389995601028,0.11439190001692623,5.648174499976449,,,,,,,,,,,,,,,,,,,,,,,,,,,,,,,,,,,,,1,,,,,,,,,,,,,,,,,,,,,,,,,,,,,,,,,,,,,,,,,,,,,,,,,,,,,,,,,,,,,,,,,,,,,,,,,,1,2023-11-30_11h33.18.882,watkins1,2023.2.3,99.72326793719536,36,2023-11-30 11h33.26.791729 +0000,
,,,,,,,,,,,,,,,,,,,,,,,,,,,,,,,,,5.648223700001836,21.382597399991937,,,,,,,,,,,,,,,,,,,,,,,,,,,,,,,,,,,1,,,,,,,,,,,,,,,,,,,,,,,,,,,,,,,,,,,,,,,,,,,,,,,,,,,,,,,,,,,,,,,,,,,,,,,,,,1,2023-11-30_11h33.18.882,watkins1,2023.2.3,99.72326793719536,36,2023-11-30 11h33.26.791729 +0000,
,,,0,0,0,0,,,,,,,,,,,,,,,,,,,,,22.39623329997994,,,,,,,,21.38261309999507,22.386148100020364,28.8831257999409,29.374252500012517,22.878202199935913,28.88295549992472,3,2.917898299987428,None,29.374263799982145,35.382602800033055,3,2.917898299987428,None,35.382893400033936,35.382917499984615,35.382924699923024,35.38301069999579,,None,None,35.383171399938874,35.383199799922295,35.38320699997712,35.38328009995166,,,,,,,,,,1,,,,,,,,,,,,,,,,,,,,,,,,,,,,,,,,,,,,,,,,,,,,,,,,,,,,,,,,,,,,,,,,,,,,,,,,,,1,2023-11-30_11h33.18.882,watkins1,2023.2.3,99.72326793719536,36,2023-11-30 11h33.26.791729 +0000,
,,,,,,,,,,,,,,,,,,,,,,,,,,,,,,,,,,,,,,,,,,,,,,,,,,,,,,,,,,,,,35.38339420000557,36.3723927999381,,,,,,,1,,,,,,,,,,,,,,,,,,,,,,,,,,,,,,,,,,,,,,,,,,,,,,,,,,,,,,,,,,,,,,,,,,,,,,,,,,1,2023-11-30_11h33.18.882,watkins1,2023.2.3,99.72326793719536,36,2023-11-30 11h33.26.791729 +0000,
,,,,,,,0,0,0,0,,,,,,,,,,,,,,,,,37.386088800034486,,,,,,,,36.372408899944276,37.37611279997509,37.376558399992064,37.868169000023045,,,1,2.5604803001042455,,,,,,,,,,,,,,,,,,,,,37.868179099983536,43.87284229998477,Schlüssel,hässlich,"['Schlüssel', 'hässlich']",restudy_diff,1,"['Schlüssel', 'Tasche', 'Kiste', 'Fahrrad', 'Löffel', 'Jacke', 'Hut', 'Stift', 'Ring', 'Socke', 'Blume', 'Würfel', 'Tasse', 'Kerze', 'Brille', 'Eimer', 'Bürste', 'Trommel', 'Geige', 'Buch', 'Uhr', 'Flasche']",['hässlich'],1,2.5604803001042455,None,,,,,,,,,,,,,,,,,,,,,,,,,,,,,,,,,,,,,,,,,,,,,,,,,,,,,,,,,,,,,,,,,,,,,1,2023-11-30_11h33.18.882,watkins1,2023.2.3,99.72326793719536,36,2023-11-30 11h33.26.791729 +0000,
,,,,,,,1,0,1,0,,,,,,,,,,,,,,,,,43.88227169995662,,,,,,,,,,43.87343719997443,44.364328900002874,,,2,2.716394399991259,,,,,,,,,,,,,,,,,,,,,44.36433909996413,50.36708999995608,Tasche,dick,"['Tasche', 'dick']",restudy_diff,1,"['Schlüssel', 'Tasche', 'Kiste', 'Fahrrad', 'Löffel', 'Jacke', 'Hut', 'Stift', 'Ring', 'Socke', 'Blume', 'Würfel', 'Tasse', 'Kerze', 'Brille', 'Eimer', 'Bürste', 'Trommel', 'Geige', 'Buch', 'Uhr', 'Flasche']","['hässlich', 'dick']",2,2.716394399991259,None,,,,,,,,,,,,,,,,,,,,,,,,,,,,,,,,,,,,,,,,,,,,,,,,,,,,,,,,,,,,,,,,,,,,,1,2023-11-30_11h33.18.882,watkins1,2023.2.3,99.72326793719536,36,2023-11-30 11h33.26.791729 +0000,
,,,,,,,2,0,2,0,,,,,,,,,,,,,,,,,50.37648169999011,,,,,,,,,,50.367561299935915,50.8584572999971,,,2,4.22156500001438,,,,,,,,,,,,,,,,,,,,,50.858467799960636,56.86500629992224,Kiste,glänzend,"['Kiste', 'glänzend']",control,1,"['Schlüssel', 'Tasche', 'Kiste', 'Fahrrad', 'Löffel', 'Jacke', 'Hut', 'Stift', 'Ring', 'Socke', 'Blume', 'Würfel', 'Tasse', 'Kerze', 'Brille', 'Eimer', 'Bürste', 'Trommel', 'Geige', 'Buch', 'Uhr', 'Flasche']","['hässlich', 'dick', 'glänzend']",2,4.22156500001438,None,,,,,,,,,,,,,,,,,,,,,,,,,,,,,,,,,,,,,,,,,,,,,,,,,,,,,,,,,,,,,,,,,,,,,1,2023-11-30_11h33.18.882,watkins1,2023.2.3,99.72326793719536,36,2023-11-30 11h33.26.791729 +0000,
,,,,,,,3,0,3,0,,,,,,,,,,,,,,,,,56.874374700011685,,,,,,,,,,56.86547990003601,57.356448699953035,,,3,1.396316499914974,,,,,,,,,,,,,,,,,,,,,57.35645920003299,63.358288699993864,Fahrrad,praktisch,"['Fahrrad', 'praktisch']",restudy_diff,1,"['Schlüssel', 'Tasche', 'Kiste', 'Fahrrad', 'Löffel', 'Jacke', 'Hut', 'Stift', 'Ring', 'Socke', 'Blume', 'Würfel', 'Tasse', 'Kerze', 'Brille', 'Eimer', 'Bürste', 'Trommel', 'Geige', 'Buch', 'Uhr', 'Flasche']","['hässlich', 'dick', 'glänzend', 'praktisch']",3,1.396316499914974,None,,,,,,,,,,,,,,,,,,,,,,,,,,,,,,,,,,,,,,,,,,,,,,,,,,,,,,,,,,,,,,,,,,,,,1,2023-11-30_11h33.18.882,watkins1,2023.2.3,99.72326793719536,36,2023-11-30 11h33.26.791729 +0000,
,,,,,,,4,0,4,0,,,,,,,,,,,,,,,,,63.3675580000272,,,,,,,,,,63.35876849992201,63.85068579996005,,,3,1.4301497999113053,,,,,,,,,,,,,,,,,,,,,63.85069669992663,69.85258399997838,Löffel,strahlend,"['Löffel', 'strahlend']",restudy_diff,1,"['Schlüssel', 'Tasche', 'Kiste', 'Fahrrad', 'Löffel', 'Jacke', 'Hut', 'Stift', 'Ring', 'Socke', 'Blume', 'Würfel', 'Tasse', 'Kerze', 'Brille', 'Eimer', 'Bürste', 'Trommel', 'Geige', 'Buch', 'Uhr', 'Flasche']","['hässlich', 'dick', 'glänzend', 'praktisch', 'strahlend']",3,1.4301497999113053,None,,,,,,,,,,,,,,,,,,,,,,,,,,,,,,,,,,,,,,,,,,,,,,,,,,,,,,,,,,,,,,,,,,,,,1,2023-11-30_11h33.18.882,watkins1,2023.2.3,99.72326793719536,36,2023-11-30 11h33.26.791729 +0000,
,,,,,,,5,0,5,0,,,,,,,,,,,,,,,,,69.86192649998702,,,,,,,,,,69.85306009999476,70.34415479993913,,,3,1.609360000002198,,,,,,,,,,,,,,,,,,,,,70.34416520001832,76.35241569997743,Jacke,elegant,"['Jacke', 'elegant']",control,1,"['Schlüssel', 'Tasche', 'Kiste', 'Fahrrad', 'Löffel', 'Jacke', 'Hut', 'Stift', 'Ring', 'Socke', 'Blume', 'Würfel', 'Tasse', 'Kerze', 'Brille', 'Eimer', 'Bürste', 'Trommel', 'Geige', 'Buch', 'Uhr', 'Flasche']","['hässlich', 'dick', 'glänzend', 'praktisch', 'strahlend', 'elegant']",3,1.609360000002198,None,,,,,,,,,,,,,,,,,,,,,,,,,,,,,,,,,,,,,,,,,,,,,,,,,,,,,,,,,,,,,,,,,,,,,1,2023-11-30_11h33.18.882,watkins1,2023.2.3,99.72326793719536,36,2023-11-30 11h33.26.791729 +0000,
,,,,,,,6,0,6,0,,,,,,,,,,,,,,,,,76.36180830001831,,,,,,,,,,76.352882499923,76.84402940003201,,,2,1.7894803999224678,,,,,,,,,,,,,,,,,,,,,76.84403939999174,82.84836920001544,Hut,dunkel,"['Hut', 'dunkel']",restudy_diff,1,"['Schlüssel', 'Tasche', 'Kiste', 'Fahrrad', 'Löffel', 'Jacke', 'Hut', 'Stift', 'Ring', 'Socke', 'Blume', 'Würfel', 'Tasse', 'Kerze', 'Brille', 'Eimer', 'Bürste', 'Trommel', 'Geige', 'Buch', 'Uhr', 'Flasche']","['hässlich', 'dick', 'glänzend', 'praktisch', 'strahlend', 'elegant', 'dunkel']",2,1.7894803999224678,None,,,,,,,,,,,,,,,,,,,,,,,,,,,,,,,,,,,,,,,,,,,,,,,,,,,,,,,,,,,,,,,,,,,,,1,2023-11-30_11h33.18.882,watkins1,2023.2.3,99.72326793719536,36,2023-11-30 11h33.26.791729 +0000,
,,,,,,,7,0,7,0,,,,,,,,,,,,,,,,,82.8577396000037,,,,,,,,,,82.84884749993216,83.33981799997855,,,1,3.437313700094819,,,,,,,,,,,,,,,,,,,,,83.33982839994133,89.34197049995419,Stift,klobig,"['Stift', 'klobig']",control,1,"['Schlüssel', 'Tasche', 'Kiste', 'Fahrrad', 'Löffel', 'Jacke', 'Hut', 'Stift', 'Ring', 'Socke', 'Blume', 'Würfel', 'Tasse', 'Kerze', 'Brille', 'Eimer', 'Bürste', 'Trommel', 'Geige', 'Buch', 'Uhr', 'Flasche']","['hässlich', 'dick', 'glänzend', 'praktisch', 'strahlend', 'elegant', 'dunkel', 'klobig']",1,3.437313700094819,None,,,,,,,,,,,,,,,,,,,,,,,,,,,,,,,,,,,,,,,,,,,,,,,,,,,,,,,,,,,,,,,,,,,,,1,2023-11-30_11h33.18.882,watkins1,2023.2.3,99.72326793719536,36,2023-11-30 11h33.26.791729 +0000,
,,,,,,,8,0,8,0,,,,,,,,,,,,,,,,,89.35136630001944,,,,,,,,,,89.34245100000408,89.83346009999514,,,1,2.928449400002137,,,,,,,,,,,,,,,,,,,,,89.8334699999541,95.83883010002319,Ring,kalt,"['Ring', 'kalt']",restudy_diff,1,"['Schlüssel', 'Tasche', 'Kiste', 'Fahrrad', 'Löffel', 'Jacke', 'Hut', 'Stift', 'Ring', 'Socke', 'Blume', 'Würfel', 'Tasse', 'Kerze', 'Brille', 'Eimer', 'Bürste', 'Trommel', 'Geige', 'Buch', 'Uhr', 'Flasche']","['hässlich', 'dick', 'glänzend', 'praktisch', 'strahlend', 'elegant', 'dunkel', 'klobig', 'kalt']",1,2.928449400002137,None,,,,,,,,,,,,,,,,,,,,,,,,,,,,,,,,,,,,,,,,,,,,,,,,,,,,,,,,,,,,,,,,,,,,,1,2023-11-30_11h33.18.882,watkins1,2023.2.3,99.72326793719536,36,2023-11-30 11h33.26.791729 +0000,
,,,,,,,9,0,9,0,,,,,,,,,,,,,,,,,95.84826260001864,,,,,,,,,,95.8393117999658,96.33036899997387,,,3,1.639569199993275,,,,,,,,,,,,,,,,,,,,,96.33037939993665,102.33356769999955,Socke,hübsch,"['Socke', 'hübsch']",restudy_diff,1,"['Schlüssel', 'Tasche', 'Kiste', 'Fahrrad', 'Löffel', 'Jacke', 'Hut', 'Stift', 'Ring', 'Socke', 'Blume', 'Würfel', 'Tasse', 'Kerze', 'Brille', 'Eimer', 'Bürste', 'Trommel', 'Geige', 'Buch', 'Uhr', 'Flasche']","['hässlich', 'dick', 'glänzend', 'praktisch', 'strahlend', 'elegant', 'dunkel', 'klobig', 'kalt', 'hübsch']",3,1.639569199993275,None,,,,,,,,,,,,,,,,,,,,,,,,,,,,,,,,,,,,,,,,,,,,,,,,,,,,,,,,,,,,,,,,,,,,,1,2023-11-30_11h33.18.882,watkins1,2023.2.3,99.72326793719536,36,2023-11-30 11h33.26.791729 +0000,
,,,,,,,10,0,10,0,,,,,,,,,,,,,,,,,102.34307079995051,,,,,,,,,,102.33405659999698,102.82525110000279,,,3,1.3354908000910655,,,,,,,,,,,,,,,,,,,,,102.82526159996632,108.83366669993848,Blume,verspielt,"['Blume', 'verspielt']",restudy_diff,1,"['Schlüssel', 'Tasche', 'Kiste', 'Fahrrad', 'Löffel', 'Jacke', 'Hut', 'Stift', 'Ring', 'Socke', 'Blume', 'Würfel', 'Tasse', 'Kerze', 'Brille', 'Eimer', 'Bürste', 'Trommel', 'Geige', 'Buch', 'Uhr', 'Flasche']","['hässlich', 'dick', 'glänzend', 'praktisch', 'strahlend', 'elegant', 'dunkel', 'klobig', 'kalt', 'hübsch', 'verspielt']",3,1.3354908000910655,None,,,,,,,,,,,,,,,,,,,,,,,,,,,,,,,,,,,,,,,,,,,,,,,,,,,,,,,,,,,,,,,,,,,,,1,2023-11-30_11h33.18.882,watkins1,2023.2.3,99.72326793719536,36,2023-11-30 11h33.26.791729 +0000,
,,,,,,,11,0,11,0,,,,,,,,,,,,,,,,,108.84306699992158,,,,,,,,,,108.83413269999437,109.32527759997174,,,2,2.0431448000017554,,,,,,,,,,,,,,,,,,,,,109.32528869993985,115.33182039996609,Würfel,winzig,"['Würfel', 'winzig']",restudy_diff,1,"['Schlüssel', 'Tasche', 'Kiste', 'Fahrrad', 'Löffel', 'Jacke', 'Hut', 'Stift', 'Ring', 'Socke', 'Blume', 'Würfel', 'Tasse', 'Kerze', 'Brille', 'Eimer', 'Bürste', 'Trommel', 'Geige', 'Buch', 'Uhr', 'Flasche']","['hässlich', 'dick', 'glänzend', 'praktisch', 'strahlend', 'elegant', 'dunkel', 'klobig', 'kalt', 'hübsch', 'verspielt', 'winzig']",2,2.0431448000017554,None,,,,,,,,,,,,,,,,,,,,,,,,,,,,,,,,,,,,,,,,,,,,,,,,,,,,,,,,,,,,,,,,,,,,,1,2023-11-30_11h33.18.882,watkins1,2023.2.3,99.72326793719536,36,2023-11-30 11h33.26.791729 +0000,
,,,,,,,12,0,12,0,,,,,,,,,,,,,,,,,115.34125539998058,,,,,,,,,,115.33229569997638,115.82320580002852,,,1,1.8513919999822974,,,,,,,,,,,,,,,,,,,,,115.82321609999053,121.83150610001758,Tasse,zart,"['Tasse', 'zart']",restudy_diff,1,"['Schlüssel', 'Tasche', 'Kiste', 'Fahrrad', 'Löffel', 'Jacke', 'Hut', 'Stift', 'Ring', 'Socke', 'Blume', 'Würfel', 'Tasse', 'Kerze', 'Brille', 'Eimer', 'Bürste', 'Trommel', 'Geige', 'Buch', 'Uhr', 'Flasche']","['hässlich', 'dick', 'glänzend', 'praktisch', 'strahlend', 'elegant', 'dunkel', 'klobig', 'kalt', 'hübsch', 'verspielt', 'winzig', 'zart']",1,1.8513919999822974,None,,,,,,,,,,,,,,,,,,,,,,,,,,,,,,,,,,,,,,,,,,,,,,,,,,,,,,,,,,,,,,,,,,,,,1,2023-11-30_11h33.18.882,watkins1,2023.2.3,99.72326793719536,36,2023-11-30 11h33.26.791729 +0000,
,,,,,,,13,0,13,0,,,,,,,,,,,,,,,,,121.8408995999489,,,,,,,,,,121.83197759999894,122.32303420000244,,,3,1.191461900016293,,,,,,,,,,,,,,,,,,,,,122.32304419996217,128.33236919995397,Kerze,bunt,"['Kerze', 'bunt']",control,1,"['Schlüssel', 'Tasche', 'Kiste', 'Fahrrad', 'Löffel', 'Jacke', 'Hut', 'Stift', 'Ring', 'Socke', 'Blume', 'Würfel', 'Tasse', 'Kerze', 'Brille', 'Eimer', 'Bürste', 'Trommel', 'Geige', 'Buch', 'Uhr', 'Flasche']","['hässlich', 'dick', 'glänzend', 'praktisch', 'strahlend', 'elegant', 'dunkel', 'klobig', 'kalt', 'hübsch', 'verspielt', 'winzig', 'zart', 'bunt']",3,1.191461900016293,None,,,,,,,,,,,,,,,,,,,,,,,,,,,,,,,,,,,,,,,,,,,,,,,,,,,,,,,,,,,,,,,,,,,,,1,2023-11-30_11h33.18.882,watkins1,2023.2.3,99.72326793719536,36,2023-11-30 11h33.26.791729 +0000,
,,,,,,,14,0,14,0,,,,,,,,,,,,,,,,,128.3417948000133,,,,,,,,,,128.33284149994142,128.82366190000903,,,1,1.9865818999242038,,,,,,,,,,,,,,,,,,,,,128.82367249997333,134.8269935999997,Brille,matt,"['Brille', 'matt']",restudy_diff,1,"['Schlüssel', 'Tasche', 'Kiste', 'Fahrrad', 'Löffel', 'Jacke', 'Hut', 'Stift', 'Ring', 'Socke', 'Blume', 'Würfel', 'Tasse', 'Kerze', 'Brille', 'Eimer', 'Bürste', 'Trommel', 'Geige', 'Buch', 'Uhr', 'Flasche']","['hässlich', 'dick', 'glänzend', 'praktisch', 'strahlend', 'elegant', 'dunkel', 'klobig', 'kalt', 'hübsch', 'verspielt', 'winzig', 'zart', 'bunt', 'matt']",1,1.9865818999242038,None,,,,,,,,,,,,,,,,,,,,,,,,,,,,,,,,,,,,,,,,,,,,,,,,,,,,,,,,,,,,,,,,,,,,,1,2023-11-30_11h33.18.882,watkins1,2023.2.3,99.72326793719536,36,2023-11-30 11h33.26.791729 +0000,
,,,,,,,15,0,15,0,,,,,,,,,,,,,,,,,134.8363828000147,,,,,,,,,,134.8274641999742,135.31847980001476,,,1,1.4830391999566928,,,,,,,,,,,,,,,,,,,,,135.31848989997525,141.32834739994723,Eimer,kurz,"['Eimer', 'kurz']",restudy_diff,1,"['Schlüssel', 'Tasche', 'Kiste', 'Fahrrad', 'Löffel', 'Jacke', 'Hut', 'Stift', 'Ring', 'Socke', 'Blume', 'Würfel', 'Tasse', 'Kerze', 'Brille', 'Eimer', 'Bürste', 'Trommel', 'Geige', 'Buch', 'Uhr', 'Flasche']","['hässlich', 'dick', 'glänzend', 'praktisch', 'strahlend', 'elegant', 'dunkel', 'klobig', 'kalt', 'hübsch', 'verspielt', 'winzig', 'zart', 'bunt', 'matt', 'kurz']",1,1.4830391999566928,None,,,,,,,,,,,,,,,,,,,,,,,,,,,,,,,,,,,,,,,,,,,,,,,,,,,,,,,,,,,,,,,,,,,,,1,2023-11-30_11h33.18.882,watkins1,2023.2.3,99.72326793719536,36,2023-11-30 11h33.26.791729 +0000,
,,,,,,,16,0,16,0,,,,,,,,,,,,,,,,,141.33777540002484,,,,,,,,,,141.32882489997428,141.8199075999437,,,3,2.310261700069532,,,,,,,,,,,,,,,,,,,,,141.81991790002212,147.82800750003662,Bürste,sauber,"['Bürste', 'sauber']",control,1,"['Schlüssel', 'Tasche', 'Kiste', 'Fahrrad', 'Löffel', 'Jacke', 'Hut', 'Stift', 'Ring', 'Socke', 'Blume', 'Würfel', 'Tasse', 'Kerze', 'Brille', 'Eimer', 'Bürste', 'Trommel', 'Geige', 'Buch', 'Uhr', 'Flasche']","['hässlich', 'dick', 'glänzend', 'praktisch', 'strahlend', 'elegant', 'dunkel', 'klobig', 'kalt', 'hübsch', 'verspielt', 'winzig', 'zart', 'bunt', 'matt', 'kurz', 'sauber']",3,2.310261700069532,None,,,,,,,,,,,,,,,,,,,,,,,,,,,,,,,,,,,,,,,,,,,,,,,,,,,,,,,,,,,,,,,,,,,,,1,2023-11-30_11h33.18.882,watkins1,2023.2.3,99.72326793719536,36,2023-11-30 11h33.26.791729 +0000,
,,,,,,,17,0,17,0,,,,,,,,,,,,,,,,,147.837451600004,,,,,,,,,,147.8284905999899,148.3193419999443,,,1,1.80275899998378,,,,,,,,,,,,,,,,,,,,,148.3193521000212,154.31998199992813,Trommel,nass,"['Trommel', 'nass']",restudy_diff,1,"['Schlüssel', 'Tasche', 'Kiste', 'Fahrrad', 'Löffel', 'Jacke', 'Hut', 'Stift', 'Ring', 'Socke', 'Blume', 'Würfel', 'Tasse', 'Kerze', 'Brille', 'Eimer', 'Bürste', 'Trommel', 'Geige', 'Buch', 'Uhr', 'Flasche']","['hässlich', 'dick', 'glänzend', 'praktisch', 'strahlend', 'elegant', 'dunkel', 'klobig', 'kalt', 'hübsch', 'verspielt', 'winzig', 'zart', 'bunt', 'matt', 'kurz', 'sauber', 'nass']",1,1.80275899998378,None,,,,,,,,,,,,,,,,,,,,,,,,,,,,,,,,,,,,,,,,,,,,,,,,,,,,,,,,,,,,,,,,,,,,,1,2023-11-30_11h33.18.882,watkins1,2023.2.3,99.72326793719536,36,2023-11-30 11h33.26.791729 +0000,
,,,,,,,18,0,18,0,,,,,,,,,,,,,,,,,154.3293682000367,,,,,,,,,,154.32045130000915,154.81179149996024,,,3,3.8697433000197634,,,,,,,,,,,,,,,,,,,,,154.81180229992606,160.81415190000553,Geige,glatt,"['Geige', 'glatt']",restudy_diff,1,"['Schlüssel', 'Tasche', 'Kiste', 'Fahrrad', 'Löffel', 'Jacke', 'Hut', 'Stift', 'Ring', 'Socke', 'Blume', 'Würfel', 'Tasse', 'Kerze', 'Brille', 'Eimer', 'Bürste', 'Trommel', 'Geige', 'Buch', 'Uhr', 'Flasche']","['hässlich', 'dick', 'glänzend', 'praktisch', 'strahlend', 'elegant', 'dunkel', 'klobig', 'kalt', 'hübsch', 'verspielt', 'winzig', 'zart', 'bunt', 'matt', 'kurz', 'sauber', 'nass', 'glatt']",3,3.8697433000197634,None,,,,,,,,,,,,,,,,,,,,,,,,,,,,,,,,,,,,,,,,,,,,,,,,,,,,,,,,,,,,,,,,,,,,,1,2023-11-30_11h33.18.882,watkins1,2023.2.3,99.72326793719536,36,2023-11-30 11h33.26.791729 +0000,
,,,,,,,19,0,19,0,,,,,,,,,,,,,,,,,160.82355089997873,,,,,,,,,,160.81463399995118,161.30579809995834,,,1,1.4404968000017107,,,,,,,,,,,,,,,,,,,,,161.30580810003448,167.31532099994365,Buch,blass,"['Buch', 'blass']",control,1,"['Schlüssel', 'Tasche', 'Kiste', 'Fahrrad', 'Löffel', 'Jacke', 'Hut', 'Stift', 'Ring', 'Socke', 'Blume', 'Würfel', 'Tasse', 'Kerze', 'Brille', 'Eimer', 'Bürste', 'Trommel', 'Geige', 'Buch', 'Uhr', 'Flasche']","['hässlich', 'dick', 'glänzend', 'praktisch', 'strahlend', 'elegant', 'dunkel', 'klobig', 'kalt', 'hübsch', 'verspielt', 'winzig', 'zart', 'bunt', 'matt', 'kurz', 'sauber', 'nass', 'glatt', 'blass']",1,1.4404968000017107,None,,,,,,,,,,,,,,,,,,,,,,,,,,,,,,,,,,,,,,,,,,,,,,,,,,,,,,,,,,,,,,,,,,,,,1,2023-11-30_11h33.18.882,watkins1,2023.2.3,99.72326793719536,36,2023-11-30 11h33.26.791729 +0000,
,,,,,,,20,0,20,0,,,,,,,,,,,,,,,,,167.3247524999315,,,,,,,,,,167.3157981999684,167.8068819999462,,,1,1.1306993999751285,,,,,,,,,,,,,,,,,,,,,167.80689250002615,173.81249839998782,Uhr,lustig,"['Uhr', 'lustig']",restudy_diff,1,"['Schlüssel', 'Tasche', 'Kiste', 'Fahrrad', 'Löffel', 'Jacke', 'Hut', 'Stift', 'Ring', 'Socke', 'Blume', 'Würfel', 'Tasse', 'Kerze', 'Brille', 'Eimer', 'Bürste', 'Trommel', 'Geige', 'Buch', 'Uhr', 'Flasche']","['hässlich', 'dick', 'glänzend', 'praktisch', 'strahlend', 'elegant', 'dunkel', 'klobig', 'kalt', 'hübsch', 'verspielt', 'winzig', 'zart', 'bunt', 'matt', 'kurz', 'sauber', 'nass', 'glatt', 'blass', 'lustig']",1,1.1306993999751285,None,,,,,,,,,,,,,,,,,,,,,,,,,,,,,,,,,,,,,,,,,,,,,,,,,,,,,,,,,,,,,,,,,,,,,1,2023-11-30_11h33.18.882,watkins1,2023.2.3,99.72326793719536,36,2023-11-30 11h33.26.791729 +0000,
,,,,,,,21,0,21,0,,,,,,,,,,,,,,,,,173.82187660003547,,,,,,,,,,173.81297339999583,174.30409849993885,,,1,1.5060025000711903,,,,,,,,,,,,,,,,,,,,,174.30410840001423,180.31045370001812,Flasche,gut,"['Flasche', 'gut']",control,1,"['Schlüssel', 'Tasche', 'Kiste', 'Fahrrad', 'Löffel', 'Jacke', 'Hut', 'Stift', 'Ring', 'Socke', 'Blume', 'Würfel', 'Tasse', 'Kerze', 'Brille', 'Eimer', 'Bürste', 'Trommel', 'Geige', 'Buch', 'Uhr', 'Flasche']","['hässlich', 'dick', 'glänzend', 'praktisch', 'strahlend', 'elegant', 'dunkel', 'klobig', 'kalt', 'hübsch', 'verspielt', 'winzig', 'zart', 'bunt', 'matt', 'kurz', 'sauber', 'nass', 'glatt', 'blass', 'lustig', 'gut']",1,1.5060025000711903,None,,,,,,,,,,,,,,,,,,,,,,,,,,,,,,,,,,,,,,,,,,,,,,,,,,,,,,,,,,,,,,,,,,,,,1,2023-11-30_11h33.18.882,watkins1,2023.2.3,99.72326793719536,36,2023-11-30 11h33.26.791729 +0000,
,,,,,,,,,,,0,0,0,0,,,,,,,,,,,,,180.3198890000349,,,,,,,,,,180.31125110003632,180.80175490002148,,,[],[],,,,,,,,,,,,None,None,,,,,,,,,,Telefon,lang,"['Telefon', 'lang']",control,1,,,,,,180.3111775999423,180.31122609996237,"['Telefon', 'Würfel', 'Blume', 'Hammer', 'Rucksack', 'Hut', 'Kamera', 'Lampe', 'Brille', 'Schere', 'Löffel', 'Tasche', 'Ring', 'Uhr', 'Fahrrad', 'Kette', 'Tasse', 'Schlüssel', 'Trommel', 'Vase', 'Geige', 'Eimer', 'Socke']",180.80176629999187,186.8063637999585,1,2.063722899998538,None,186.80675969994627,186.80937309993897,None,186.80952449992765,186.81192779995035,None,186.8120749000227,186.81327839998994,186.81329029996414,186.8143883999437,,,,,,,,,,,,,,,,,,,,,,,,,,,,,,,,,,,,,,,,,,,,,,,,,,,1,2023-11-30_11h33.18.882,watkins1,2023.2.3,99.72326793719536,36,2023-11-30 11h33.26.791729 +0000,
,,,,,,,,,,,1,0,1,0,,,,,,,,,,,,,186.81802569993306,,,,,,,,,,186.8146591000259,187.31125399994198,,,3,1.8073130000848323,,,,,,,,,,,,None,None,,,,,,,,,,Würfel,hohl,"['Würfel', 'hohl']",restudy_diff,1,,,,,,186.81459480000194,186.8146336999489,"['Telefon', 'Würfel', 'Blume', 'Hammer', 'Rucksack', 'Hut', 'Kamera', 'Lampe', 'Brille', 'Schere', 'Löffel', 'Tasche', 'Ring', 'Uhr', 'Fahrrad', 'Kette', 'Tasse', 'Schlüssel', 'Trommel', 'Vase', 'Geige', 'Eimer', 'Socke']",187.31126450002193,187.3128534000134,None,,,187.31296629994176,187.31448579998687,None,187.31458799995016,193.32257960003335,3,193.32293479994405,193.32433720002882,193.32434900000226,193.3253908000188,1.8073130000848323,None,,,,,,,,,,,,,,,,,,,,,,,,,,,,,,,,,,,,,,,,,,,,,,,,,1,2023-11-30_11h33.18.882,watkins1,2023.2.3,99.72326793719536,36,2023-11-30 11h33.26.791729 +0000,
,,,,,,,,,,,2,0,2,0,,,,,,,,,,,,,193.33196929993574,,,,,,,,,,193.32566119998228,193.82416169997305,,,2,2.4608081000624225,,,,,,,,,,,,None,None,,,,,,,,,,Blume,biegsam,"['Blume', 'biegsam']",restudy_diff,1,,,,,,193.32559599995147,193.325634000008,"['Telefon', 'Würfel', 'Blume', 'Hammer', 'Rucksack', 'Hut', 'Kamera', 'Lampe', 'Brille', 'Schere', 'Löffel', 'Tasche', 'Ring', 'Uhr', 'Fahrrad', 'Kette', 'Tasse', 'Schlüssel', 'Trommel', 'Vase', 'Geige', 'Eimer', 'Socke']",193.82417249993887,193.82677229994442,None,,,193.82689110003412,193.82931039994583,None,193.82941290002782,199.8380724999588,2,199.83834759995807,199.83992519997992,199.8399370999541,199.8411559999222,2.4608081000624225,None,,,,,,,,,,,,,,,,,,,,,,,,,,,,,,,,,,,,,,,,,,,,,,,,,1,2023-11-30_11h33.18.882,watkins1,2023.2.3,99.72326793719536,36,2023-11-30 11h33.26.791729 +0000,
,,,,,,,,,,,3,0,3,0,,,,,,,,,,,,,199.84750469995197,,,,,,,,,,199.84142730000895,200.33964619995095,,,[],[],,,,,,,,,,,,None,None,,,,,,,,,,Hammer,kaputt,"['Hammer', 'kaputt']",control,1,,,,,,199.8413603999652,199.84139880002476,"['Telefon', 'Würfel', 'Blume', 'Hammer', 'Rucksack', 'Hut', 'Kamera', 'Lampe', 'Brille', 'Schere', 'Löffel', 'Tasche', 'Ring', 'Uhr', 'Fahrrad', 'Kette', 'Tasse', 'Schlüssel', 'Trommel', 'Vase', 'Geige', 'Eimer', 'Socke']",200.33965680003166,206.3446280999342,3,1.6865709000267088,None,206.34490939998068,206.34765999997035,None,206.34776469995268,206.35033669997938,None,206.3504403999541,206.35163839999586,206.35164989996701,206.35296879999805,,,,,,,,,,,,,,,,,,,,,,,,,,,,,,,,,,,,,,,,,,,,,,,,,,,1,2023-11-30_11h33.18.882,watkins1,2023.2.3,99.72326793719536,36,2023-11-30 11h33.26.791729 +0000,
,,,,,,,,,,,4,0,4,0,,,,,,,,,,,,,206.35662770003546,,,,,,,,,,206.35323969996534,206.85017919994425,,,[],[],,,,,,,,,,,,None,None,,,,,,,,,,Rucksack,gestreift,"['Rucksack', 'gestreift']",control,1,,,,,,206.35317479993682,206.35321400000248,"['Telefon', 'Würfel', 'Blume', 'Hammer', 'Rucksack', 'Hut', 'Kamera', 'Lampe', 'Brille', 'Schere', 'Löffel', 'Tasche', 'Ring', 'Uhr', 'Fahrrad', 'Kette', 'Tasse', 'Schlüssel', 'Trommel', 'Vase', 'Geige', 'Eimer', 'Socke']",206.85019010002725,212.85358579992317,3,1.255624599987641,None,212.8538524999749,212.8566593999276,None,212.85676310001872,212.85944060003385,None,212.85954229999334,212.86076209996827,212.86077349993866,212.86213889997452,,,,,,,,,,,,,,,,,,,,,,,,,,,,,,,,,,,,,,,,,,,,,,,,,,,1,2023-11-30_11h33.18.882,watkins1,2023.2.3,99.72326793719536,36,2023-11-30 11h33.26.791729 +0000,
,,,,,,,,,,,5,0,5,0,,,,,,,,,,,,,212.86576620000415,,,,,,,,,,212.86240610003006,213.35936460003722,,,3,1.19220310007222,,,,,,,,,,,,None,None,,,,,,,,,,Hut,gepunktet,"['Hut', 'gepunktet']",restudy_diff,1,,,,,,212.86234039999545,212.86238039995078,"['Telefon', 'Würfel', 'Blume', 'Hammer', 'Rucksack', 'Hut', 'Kamera', 'Lampe', 'Brille', 'Schere', 'Löffel', 'Tasche', 'Ring', 'Uhr', 'Fahrrad', 'Kette', 'Tasse', 'Schlüssel', 'Trommel', 'Vase', 'Geige', 'Eimer', 'Socke']",213.35937620000914,213.36081809992902,None,,,213.36093500000425,213.36221689998638,None,213.36231739993673,219.37110989994835,3,219.3714134999318,219.37255899992306,219.3725706000114,219.37379700003657,1.19220310007222,None,,,,,,,,,,,,,,,,,,,,,,,,,,,,,,,,,,,,,,,,,,,,,,,,,1,2023-11-30_11h33.18.882,watkins1,2023.2.3,99.72326793719536,36,2023-11-30 11h33.26.791729 +0000,
,,,,,,,,,,,6,0,6,0,,,,,,,,,,,,,219.3805951999966,,,,,,,,,,219.3740594999399,219.86384659993928,,,[],[],,,,,,,,,,,,None,None,,,,,,,,,,Kamera,krumm,"['Kamera', 'krumm']",control,1,,,,,,219.3739973999327,219.37403429998085,"['Telefon', 'Würfel', 'Blume', 'Hammer', 'Rucksack', 'Hut', 'Kamera', 'Lampe', 'Brille', 'Schere', 'Löffel', 'Tasche', 'Ring', 'Uhr', 'Fahrrad', 'Kette', 'Tasse', 'Schlüssel', 'Trommel', 'Vase', 'Geige', 'Eimer', 'Socke']",219.86385760002304,225.87313229998108,1,1.3461915999650955,None,225.87340669997502,225.87608570000157,None,225.87618899997324,225.87869909999426,None,225.87880139995832,225.87996669998392,225.8799778999528,225.88112189993262,,,,,,,,,,,,,,,,,,,,,,,,,,,,,,,,,,,,,,,,,,,,,,,,,,,1,2023-11-30_11h33.18.882,watkins1,2023.2.3,99.72326793719536,36,2023-11-30 11h33.26.791729 +0000,
,,,,,,,,,,,7,0,7,0,,,,,,,,,,,,,225.88476519996766,,,,,,,,,,225.8813863999676,226.37790770002175,,,[],[],,,,,,,,,,,,None,None,,,,,,,,,,Lampe,rustikal,"['Lampe', 'rustikal']",control,1,,,,,,225.88132339995354,225.88136230001692,"['Telefon', 'Würfel', 'Blume', 'Hammer', 'Rucksack', 'Hut', 'Kamera', 'Lampe', 'Brille', 'Schere', 'Löffel', 'Tasche', 'Ring', 'Uhr', 'Fahrrad', 'Kette', 'Tasse', 'Schlüssel', 'Trommel', 'Vase', 'Geige', 'Eimer', 'Socke']",226.37791879998986,232.38218389998656,3,1.3120056999614462,None,232.38245189993177,232.38515200000256,None,232.385255399975,232.38782059994992,None,232.38792280002963,232.38909770001192,232.38910919998307,232.39032549993135,,,,,,,,,,,,,,,,,,,,,,,,,,,,,,,,,,,,,,,,,,,,,,,,,,,1,2023-11-30_11h33.18.882,watkins1,2023.2.3,99.72326793719536,36,2023-11-30 11h33.26.791729 +0000,
,,,,,,,,,,,8,0,8,0,,,,,,,,,,,,,232.39409860002343,,,,,,,,,,232.39059930003714,232.88739239994902,,,3,1.2633121999679133,,,,,,,,,,,,None,None,,,,,,,,,,Brille,sportlich,"['Brille', 'sportlich']",restudy_diff,1,,,,,,232.3905307999812,232.3905742999632,"['Telefon', 'Würfel', 'Blume', 'Hammer', 'Rucksack', 'Hut', 'Kamera', 'Lampe', 'Brille', 'Schere', 'Löffel', 'Tasche', 'Ring', 'Uhr', 'Fahrrad', 'Kette', 'Tasse', 'Schlüssel', 'Trommel', 'Vase', 'Geige', 'Eimer', 'Socke']",232.88740330003202,232.88916969997808,None,,,232.8892888999544,232.89073360001203,None,232.89083499996923,238.89601849997416,3,238.89629539998714,238.89760429994203,238.89761620003264,238.89886840002146,1.2633121999679133,None,,,,,,,,,,,,,,,,,,,,,,,,,,,,,,,,,,,,,,,,,,,,,,,,,1,2023-11-30_11h33.18.882,watkins1,2023.2.3,99.72326793719536,36,2023-11-30 11h33.26.791729 +0000,
,,,,,,,,,,,9,0,9,0,,,,,,,,,,,,,238.90555619995575,,,,,,,,,,238.89914430002682,239.39758639992215,,,[],[],,,,,,,,,,,,None,None,,,,,,,,,,Schere,robust,"['Schere', 'robust']",control,1,,,,,,238.89907919999678,238.89911729993764,"['Telefon', 'Würfel', 'Blume', 'Hammer', 'Rucksack', 'Hut', 'Kamera', 'Lampe', 'Brille', 'Schere', 'Löffel', 'Tasche', 'Ring', 'Uhr', 'Fahrrad', 'Kette', 'Tasse', 'Schlüssel', 'Trommel', 'Vase', 'Geige', 'Eimer', 'Socke']",239.3975969000021,245.4058305999497,3,1.620516899973154,None,245.4061047999421,245.40892399998847,None,245.40902779996395,245.41157290001865,None,245.4116778000025,245.41286269994453,245.4128742000321,245.41405789996497,,,,,,,,,,,,,,,,,,,,,,,,,,,,,,,,,,,,,,,,,,,,,,,,,,,1,2023-11-30_11h33.18.882,watkins1,2023.2.3,99.72326793719536,36,2023-11-30 11h33.26.791729 +0000,
,,,,,,,,,,,10,0,10,0,,,,,,,,,,,,,245.41771720000543,,,,,,,,,,245.41432550002355,245.91130559996236,,,1,3.175429700058885,,,,,,,,,,,,None,None,,,,,,,,,,Löffel,niedlich,"['Löffel', 'niedlich']",restudy_diff,1,,,,,,245.41426180000417,245.41430089995265,"['Telefon', 'Würfel', 'Blume', 'Hammer', 'Rucksack', 'Hut', 'Kamera', 'Lampe', 'Brille', 'Schere', 'Löffel', 'Tasche', 'Ring', 'Uhr', 'Fahrrad', 'Kette', 'Tasse', 'Schlüssel', 'Trommel', 'Vase', 'Geige', 'Eimer', 'Socke']",245.911316899932,245.91293039999437,None,,,245.91304889996536,245.91450239997357,None,245.9146062999498,251.9177001999924,1,251.91797690000385,251.91929570003413,251.91930750000756,251.92052409995813,3.175429700058885,None,,,,,,,,,,,,,,,,,,,,,,,,,,,,,,,,,,,,,,,,,,,,,,,,,1,2023-11-30_11h33.18.882,watkins1,2023.2.3,99.72326793719536,36,2023-11-30 11h33.26.791729 +0000,
,,,,,,,,,,,11,0,11,0,,,,,,,,,,,,,251.92714559996966,,,,,,,,,,251.92079400003422,252.41922349995002,,,3,1.8416282000252977,,,,,,,,,,,,None,None,,,,,,,,,,Tasche,breit,"['Tasche', 'breit']",restudy_diff,1,,,,,,251.9207296000095,251.92076779995114,"['Telefon', 'Würfel', 'Blume', 'Hammer', 'Rucksack', 'Hut', 'Kamera', 'Lampe', 'Brille', 'Schere', 'Löffel', 'Tasche', 'Ring', 'Uhr', 'Fahrrad', 'Kette', 'Tasse', 'Schlüssel', 'Trommel', 'Vase', 'Geige', 'Eimer', 'Socke']",252.41923529992346,252.4219429999357,None,,,252.42206070001703,252.42461009998806,None,252.42471169994678,258.43287279992364,3,258.4331492999336,258.43449809995946,258.4345098999329,258.4356862999266,1.8416282000252977,None,,,,,,,,,,,,,,,,,,,,,,,,,,,,,,,,,,,,,,,,,,,,,,,,,1,2023-11-30_11h33.18.882,watkins1,2023.2.3,99.72326793719536,36,2023-11-30 11h33.26.791729 +0000,
,,,,,,,,,,,12,0,12,0,,,,,,,,,,,,,258.4422967999708,,,,,,,,,,258.4359567000065,258.93428339995444,,,1,1.7664680000161752,,,,,,,,,,,,None,None,,,,,,,,,,Ring,nachhaltig,"['Ring', 'nachhaltig']",restudy_diff,1,,,,,,258.4358924999833,258.4359304999234,"['Telefon', 'Würfel', 'Blume', 'Hammer', 'Rucksack', 'Hut', 'Kamera', 'Lampe', 'Brille', 'Schere', 'Löffel', 'Tasche', 'Ring', 'Uhr', 'Fahrrad', 'Kette', 'Tasse', 'Schlüssel', 'Trommel', 'Vase', 'Geige', 'Eimer', 'Socke']",258.9342947999248,258.93686859996524,None,,,258.936987199937,258.9394143000245,None,258.9395166999893,264.94883979996666,1,264.9491157999728,264.9503473000368,264.95035910001025,264.95164600003045,1.7664680000161752,None,,,,,,,,,,,,,,,,,,,,,,,,,,,,,,,,,,,,,,,,,,,,,,,,,1,2023-11-30_11h33.18.882,watkins1,2023.2.3,99.72326793719536,36,2023-11-30 11h33.26.791729 +0000,
,,,,,,,,,,,13,0,13,0,,,,,,,,,,,,,264.9582521999255,,,,,,,,,,264.951916799997,265.4503951999359,,,1,0.9944587999489158,,,,,,,,,,,,None,None,,,,,,,,,,Uhr,flauschig,"['Uhr', 'flauschig']",restudy_diff,1,,,,,,264.95185249997303,264.9518904000288,"['Telefon', 'Würfel', 'Blume', 'Hammer', 'Rucksack', 'Hut', 'Kamera', 'Lampe', 'Brille', 'Schere', 'Löffel', 'Tasche', 'Ring', 'Uhr', 'Fahrrad', 'Kette', 'Tasse', 'Schlüssel', 'Trommel', 'Vase', 'Geige', 'Eimer', 'Socke']",265.4504065000219,265.4530688999221,None,,,265.45318830001634,265.45566500001587,None,265.45576899999287,271.4647728999844,1,271.46505420003086,271.46620289993007,271.4662145000184,271.4675805999432,0.9944587999489158,None,,,,,,,,,,,,,,,,,,,,,,,,,,,,,,,,,,,,,,,,,,,,,,,,,1,2023-11-30_11h33.18.882,watkins1,2023.2.3,99.72326793719536,36,2023-11-30 11h33.26.791729 +0000,
,,,,,,,,,,,14,0,14,0,,,,,,,,,,,,,271.4743047999218,,,,,,,,,,271.467850200017,271.966431299923,,,3,1.07023719989229,,,,,,,,,,,,None,None,,,,,,,,,,Fahrrad,neu,"['Fahrrad', 'neu']",restudy_diff,1,,,,,,271.4677840999793,271.4678215000313,"['Telefon', 'Würfel', 'Blume', 'Hammer', 'Rucksack', 'Hut', 'Kamera', 'Lampe', 'Brille', 'Schere', 'Löffel', 'Tasche', 'Ring', 'Uhr', 'Fahrrad', 'Kette', 'Tasse', 'Schlüssel', 'Trommel', 'Vase', 'Geige', 'Eimer', 'Socke']",271.96644180000294,271.96923189994413,None,,,271.9693472000072,271.9719700999558,None,271.9720732999267,277.97974420001265,3,277.9800153999822,277.9813167999964,277.9813286999706,277.98234829993453,1.07023719989229,None,,,,,,,,,,,,,,,,,,,,,,,,,,,,,,,,,,,,,,,,,,,,,,,,,1,2023-11-30_11h33.18.882,watkins1,2023.2.3,99.72326793719536,36,2023-11-30 11h33.26.791729 +0000,
,,,,,,,,,,,15,0,15,0,,,,,,,,,,,,,277.9892319999635,,,,,,,,,,277.98261549999006,278.4813682999229,,,[],[],,,,,,,,,,,,None,None,,,,,,,,,,Kette,kratzig,"['Kette', 'kratzig']",control,1,,,,,,277.98255159996916,277.9825895000249,"['Telefon', 'Würfel', 'Blume', 'Hammer', 'Rucksack', 'Hut', 'Kamera', 'Lampe', 'Brille', 'Schere', 'Löffel', 'Tasche', 'Ring', 'Uhr', 'Fahrrad', 'Kette', 'Tasse', 'Schlüssel', 'Trommel', 'Vase', 'Geige', 'Eimer', 'Socke']",278.4813792000059,284.4910389999859,1,2.360498100053519,None,284.49131419998594,284.49400309997145,None,284.49410579993855,284.49663700000383,None,284.49674069997855,284.4978969999356,284.4979087000247,284.49910389992874,,,,,,,,,,,,,,,,,,,,,,,,,,,,,,,,,,,,,,,,,,,,,,,,,,,1,2023-11-30_11h33.18.882,watkins1,2023.2.3,99.72326793719536,36,2023-11-30 11h33.26.791729 +0000,
,,,,,,,,,,,16,0,16,0,,,,,,,,,,,,,284.50271619996056,,,,,,,,,,284.4993689999683,284.9959364000242,,,3,1.6030480000190437,,,,,,,,,,,,None,None,,,,,,,,,,Tasse,schwer,"['Tasse', 'schwer']",restudy_diff,1,,,,,,284.49930619995575,284.4993447000161,"['Telefon', 'Würfel', 'Blume', 'Hammer', 'Rucksack', 'Hut', 'Kamera', 'Lampe', 'Brille', 'Schere', 'Löffel', 'Tasche', 'Ring', 'Uhr', 'Fahrrad', 'Kette', 'Tasse', 'Schlüssel', 'Trommel', 'Vase', 'Geige', 'Eimer', 'Socke']",284.9959472999908,284.9974960000254,None,,,284.997610899969,284.99904329993296,None,284.9991464000195,291.00147999997716,3,291.00175329996273,291.00304410001263,291.0030557999853,291.0042448999593,1.6030480000190437,None,,,,,,,,,,,,,,,,,,,,,,,,,,,,,,,,,,,,,,,,,,,,,,,,,1,2023-11-30_11h33.18.882,watkins1,2023.2.3,99.72326793719536,36,2023-11-30 11h33.26.791729 +0000,
,,,,,,,,,,,17,0,17,0,,,,,,,,,,,,,291.0109212999232,,,,,,,,,,291.004511600011,291.5030482999282,,,1,3.3249716999707744,,,,,,,,,,,,None,None,,,,,,,,,,Schlüssel,schmutzig,"['Schlüssel', 'schmutzig']",restudy_diff,1,,,,,,291.00444759998936,291.00448539992794,"['Telefon', 'Würfel', 'Blume', 'Hammer', 'Rucksack', 'Hut', 'Kamera', 'Lampe', 'Brille', 'Schere', 'Löffel', 'Tasche', 'Ring', 'Uhr', 'Fahrrad', 'Kette', 'Tasse', 'Schlüssel', 'Trommel', 'Vase', 'Geige', 'Eimer', 'Socke']",291.5030594000127,291.5059852999402,None,,,291.50610450003296,291.50872769998387,None,291.50883069995325,297.51925889996346,1,297.5195432000328,297.52092749997973,297.5209394999547,297.52219209994655,3.3249716999707744,None,,,,,,,,,,,,,,,,,,,,,,,,,,,,,,,,,,,,,,,,,,,,,,,,,1,2023-11-30_11h33.18.882,watkins1,2023.2.3,99.72326793719536,36,2023-11-30 11h33.26.791729 +0000,
,,,,,,,,,,,18,0,18,0,,,,,,,,,,,,,297.52867609995883,,,,,,,,,,297.52246220002417,298.0207952000201,,,2,2.09572099999059,,,,,,,,,,,,None,None,,,,,,,,,,Trommel,durchsichtig,"['Trommel', 'durchsichtig']",restudy_diff,1,,,,,,297.5223957999842,297.52243379992433,"['Telefon', 'Würfel', 'Blume', 'Hammer', 'Rucksack', 'Hut', 'Kamera', 'Lampe', 'Brille', 'Schere', 'Löffel', 'Tasche', 'Ring', 'Uhr', 'Fahrrad', 'Kette', 'Tasse', 'Schlüssel', 'Trommel', 'Vase', 'Geige', 'Eimer', 'Socke']",298.0208056999836,298.0236734999344,None,,,298.02378819999285,298.0263982999604,None,298.02649990003556,304.0283942000242,2,304.02868490002584,304.0300370999612,304.0300489999354,304.0313755000243,2.09572099999059,None,,,,,,,,,,,,,,,,,,,,,,,,,,,,,,,,,,,,,,,,,,,,,,,,,1,2023-11-30_11h33.18.882,watkins1,2023.2.3,99.72326793719536,36,2023-11-30 11h33.26.791729 +0000,
,,,,,,,,,,,19,0,19,0,,,,,,,,,,,,,304.0378055999754,,,,,,,,,,304.03164489998017,304.5299141999567,,,[],[],,,,,,,,,,,,None,None,,,,,,,,,,Vase,teuer,"['Vase', 'teuer']",control,1,,,,,,304.0315805999562,304.03161830001045,"['Telefon', 'Würfel', 'Blume', 'Hammer', 'Rucksack', 'Hut', 'Kamera', 'Lampe', 'Brille', 'Schere', 'Löffel', 'Tasche', 'Ring', 'Uhr', 'Fahrrad', 'Kette', 'Tasse', 'Schlüssel', 'Trommel', 'Vase', 'Geige', 'Eimer', 'Socke']",304.5299255999271,310.5382293999428,3,1.086918400018476,None,310.53850170003716,310.54104649997316,None,310.5411501999479,310.54381359997205,None,310.5439168999437,310.5449619999854,310.544973299955,310.5461003999226,,,,,,,,,,,,,,,,,,,,,,,,,,,,,,,,,,,,,,,,,,,,,,,,,,,1,2023-11-30_11h33.18.882,watkins1,2023.2.3,99.72326793719536,36,2023-11-30 11h33.26.791729 +0000,
,,,,,,,,,,,20,0,20,0,,,,,,,,,,,,,310.5496828999603,,,,,,,,,,310.5463594000321,311.0427286999766,,,1,1.6041235000593588,,,,,,,,,,,,None,None,,,,,,,,,,Geige,schlicht,"['Geige', 'schlicht']",restudy_diff,1,,,,,,310.546298500034,310.54633569996804,"['Telefon', 'Würfel', 'Blume', 'Hammer', 'Rucksack', 'Hut', 'Kamera', 'Lampe', 'Brille', 'Schere', 'Löffel', 'Tasche', 'Ring', 'Uhr', 'Fahrrad', 'Kette', 'Tasse', 'Schlüssel', 'Trommel', 'Vase', 'Geige', 'Eimer', 'Socke']",311.0427391999401,311.04426769993734,None,,,311.0443856000202,311.04594969993923,None,311.04605549992993,317.0489044999704,1,317.0491747999331,317.050451099989,317.05046289996244,317.0516767000081,1.6041235000593588,None,,,,,,,,,,,,,,,,,,,,,,,,,,,,,,,,,,,,,,,,,,,,,,,,,1,2023-11-30_11h33.18.882,watkins1,2023.2.3,99.72326793719536,36,2023-11-30 11h33.26.791729 +0000,
,,,,,,,,,,,21,0,21,0,,,,,,,,,,,,,317.0583446000237,,,,,,,,,,317.0519436999457,317.5504079000093,,,3,1.3011905000312254,,,,,,,,,,,,None,None,,,,,,,,,,Eimer,groß,"['Eimer', 'groß']",restudy_diff,1,,,,,,317.05187969992403,317.0519175999798,"['Telefon', 'Würfel', 'Blume', 'Hammer', 'Rucksack', 'Hut', 'Kamera', 'Lampe', 'Brille', 'Schere', 'Löffel', 'Tasche', 'Ring', 'Uhr', 'Fahrrad', 'Kette', 'Tasse', 'Schlüssel', 'Trommel', 'Vase', 'Geige', 'Eimer', 'Socke']",317.5504192999797,317.55312049994245,None,,,317.5532368000131,317.55590259993915,None,317.55600640003104,323.5600564000197,3,323.56033280002885,323.56162930000573,323.56164139998145,323.56268460000865,1.3011905000312254,None,,,,,,,,,,,,,,,,,,,,,,,,,,,,,,,,,,,,,,,,,,,,,,,,,1,2023-11-30_11h33.18.882,watkins1,2023.2.3,99.72326793719536,36,2023-11-30 11h33.26.791729 +0000,
,,,,,,,,,,,22,0,22,0,,,,,,,,,,,,,323.5694356999593,,,,,,,,,,323.5629545999691,324.0614551999606,,,1,1.9436729000881314,,,,,,,,,,,,None,None,,,,,,,,,,Socke,flach,"['Socke', 'flach']",restudy_diff,1,,,,,,323.5628906999482,323.5629287000047,"['Telefon', 'Würfel', 'Blume', 'Hammer', 'Rucksack', 'Hut', 'Kamera', 'Lampe', 'Brille', 'Schere', 'Löffel', 'Tasche', 'Ring', 'Uhr', 'Fahrrad', 'Kette', 'Tasse', 'Schlüssel', 'Trommel', 'Vase', 'Geige', 'Eimer', 'Socke']",324.0614658999257,324.06396609998774,None,,,324.06408019992523,324.0664729999844,None,324.0665748999454,330.07174879999366,1,330.0720189999556,330.07330269995145,330.07331429992337,330.0744610999245,1.9436729000881314,None,,,,,,,,,,,,,,,,,,,,,,,,,,,,,,,,,,,,,,,,,,,,,,,,,1,2023-11-30_11h33.18.882,watkins1,2023.2.3,99.72326793719536,36,2023-11-30 11h33.26.791729 +0000,
,,,,,,,,,,,,,,,,,,,,,,,,,,,,,,,,,,,,,,,,,,,,,,,,,,,,,,,,,,,,,,,,,,,,,1,,,,,,,,,,,,,,,,,,,,,,,,,,,,,,,,,,,,,,,,,,,,,,,,,,,,,,,,,,,,,,,,,,,,,,,,,,1,2023-11-30_11h33.18.882,watkins1,2023.2.3,99.72326793719536,36,2023-11-30 11h33.26.791729 +0000,
(7 x 6) + 9 = 48 ,Incorrect,button_incorrect,,,,,,,,,,,,,0,0,0,9,,,,,,,,,338.09656430000905,,,,,,,,337.0565360999899,338.0604006999638,,,,,['button_incorrect'],[7.883705299929716],,,,,,,,,,,,,,,,,,,,,,,,,,distractorTask,1,,,,,,,,,,,,,,,,,,,,,,,,,,338.0847804999212,338.09656430000905,345.9740698999958,[-0.35],[-0.41574074074074074],[1],[0],[0],[7.883705299929716],['button_incorrect'],345.97474380000494,346.977901199949,,,,,,,,,,,,,,,,,,,,,,,,,,,,,,,,,,,,,1,2023-11-30_11h33.18.882,watkins1,2023.2.3,99.72326793719536,36,2023-11-30 11h33.26.791729 +0000,
(25 : 5) + 5 = 9 ,Incorrect,button_incorrect,,,,,,,,,,,,,0,1,1,6,,,,,,,,,346.9878334000241,,,,,,,,,,,,,,['button_incorrect'],[3.65278269990813],,,,,,,,,,,,,,,,,,,,,,,,,,distractorTask,1,,,,,,,,,,,,,,,,,,,,,,,,,,346.97810199996457,346.9878334000241,350.6340136999497,[-0.3527777777777778],[-0.40555555555555556],[1],[0],[0],[3.65278269990813],['button_incorrect'],350.6344029000029,351.63781919993926,,,,,,,,,,,,,,,,,,,,,,,,,,,,,,,,,,,,,1,2023-11-30_11h33.18.882,watkins1,2023.2.3,99.72326793719536,36,2023-11-30 11h33.26.791729 +0000,
(9 x 5) - 9 = 36 ,Correct,button_correct,,,,,,,,,,,,,0,2,2,4,,,,,,,,,351.64785059995484,,,,,,,,,,,,,,['button_correct'],[3.281366499955766],,,,,,,,,,,,,,,,,,,,,,,,,,distractorTask,1,,,,,,,,,,,,,,,,,,,,,,,,,,351.6380076999776,351.64785059995484,354.9221673000138,[0.387037037037037],[-0.39537037037037037],[1],[0],[0],[3.281366499955766],['button_correct'],354.92255789996125,355.9255931000225,,,,,,,,,,,,,,,,,,,,,,,,,,,,,,,,,,,,,1,2023-11-30_11h33.18.882,watkins1,2023.2.3,99.72326793719536,36,2023-11-30 11h33.26.791729 +0000,
(2 x 5) + 3 = 13 ,Correct,button_correct,,,,,,,,,,,,,0,3,3,2,,,,,,,,,355.93553639994934,,,,,,,,,,,,,,['button_correct'],[2.519374900031835],,,,,,,,,,,,,,,,,,,,,,,,,,distractorTask,1,,,,,,,,,,,,,,,,,,,,,,,,,,355.92578890000004,355.93553639994934,358.44735289993696,[0.4009259259259259],[-0.41203703703703703],[1],[0],[0],[2.519374900031835],['button_correct'],358.44774390000384,359.45055029995274,,,,,,,,,,,,,,,,,,,,,,,,,,,,,,,,,,,,,1,2023-11-30_11h33.18.882,watkins1,2023.2.3,99.72326793719536,36,2023-11-30 11h33.26.791729 +0000,
(28 : 7) - 3 = 1 ,Correct,button_correct,,,,,,,,,,,,,0,4,4,0,,,,,,,,,359.46065349993296,,,,,,,,,,,,,,['button_correct'],[4.8794011999852955],,,,,,,,,,,,,,,,,,,,,,,,,,distractorTask,1,,,,,,,,,,,,,,,,,,,,,,,,,,359.4507384999888,359.46065349993296,364.33196590002626,[0.3592592592592593],[-0.412962962962963],[1],[0],[0],[4.8794011999852955],['button_correct'],364.3323479000246,365.3356027000118,,,,,,,,,,,,,,,,,,,,,,,,,,,,,,,,,,,,,1,2023-11-30_11h33.18.882,watkins1,2023.2.3,99.72326793719536,36,2023-11-30 11h33.26.791729 +0000,
(54 : 6) - 10 = 0 ,Incorrect,button_incorrect,,,,,,,,,,,,,0,5,5,5,,,,,,,,,365.34558480000123,,,,,,,,,,,,,,['button_incorrect'],[4.2556973999598995],,,,,,,,,,,,,,,,,,,,,,,,,,distractorTask,1,,,,,,,,,,,,,,,,,,,,,,,,,,365.3357887000311,365.34558480000123,369.5942689999938,[-0.35],[-0.4111111111111111],[1],[0],[0],[4.2556973999598995],['button_incorrect'],369.59466369997244,370.59800979995634,,,,,,,,,,,,,,,,,,,,,,,,,,,,,,,,,,,,,1,2023-11-30_11h33.18.882,watkins1,2023.2.3,99.72326793719536,36,2023-11-30 11h33.26.791729 +0000,
(80 : 10) + 9 = 17 ,Correct,button_correct,,,,,,,,,,,,,0,6,6,3,,,,,,,,,370.60798660002183,,,,,,,,,,,,,,['button_correct'],[2.992067299899645],,,,,,,,,,,,,,,,,,,,,,,,,,distractorTask,1,,,,,,,,,,,,,,,,,,,,,,,,,,370.5982019000221,370.60798660002183,373.5921091999626,[0.33425925925925926],[-0.4027777777777778],[1],[0],[0],[2.992067299899645],['button_correct'],373.5924965000013,374.5946443999419,,,,,,,,,,,,,,,,,,,,,,,,,,,,,,,,,,,,,1,2023-11-30_11h33.18.882,watkins1,2023.2.3,99.72326793719536,36,2023-11-30 11h33.26.791729 +0000,
(4 : 2) + 4 = 6 ,Correct,button_correct,,,,,,,,,,,,,0,7,7,1,,,,,,,,,374.6046275999397,,,,,,,,,,,,,,['button_correct'],[1.8667426999891177],,,,,,,,,,,,,,,,,,,,,,,,,,distractorTask,1,,,,,,,,,,,,,,,,,,,,,,,,,,374.59483990003355,374.6046275999397,376.4632581999758,[0.29259259259259257],[-0.4027777777777778],[1],[0],[0],[1.8667426999891177],['button_correct'],376.46364159998484,377.4665114999516,,,,,,,,,,,,,,,,,,,,,,,,,,,,,,,,,,,,,1,2023-11-30_11h33.18.882,watkins1,2023.2.3,99.72326793719536,36,2023-11-30 11h33.26.791729 +0000,
(40 : 5) + 8 = 15 ,Incorrect,button_incorrect,,,,,,,,,,,,,0,8,8,7,,,,,,,,,377.47646589996293,,,,,,,,,,,,,,['button_incorrect'],[5.48157030006405],,,,,,,,,,,,,,,,,,,,,,,,,,distractorTask,1,,,,,,,,,,,,,,,,,,,,,,,,,,377.46670129999984,377.47646589996293,382.95000980002806,[-0.38055555555555554],[-0.4],[1],[0],[0],[5.48157030006405],['button_incorrect'],382.95039739995264,383.95368729997426,,,,,,,,,,,,,,,,,,,,,,,,,,,,,,,,,,,,,1,2023-11-30_11h33.18.882,watkins1,2023.2.3,99.72326793719536,36,2023-11-30 11h33.26.791729 +0000,
(6 x 3) + 10 = 27 ,Incorrect,button_incorrect,,,,,,,,,,,,,0,9,9,8,,,,,,,,,383.9636418999871,,,,,,,,,,,,,,['button_incorrect'],[2.941631000023335],,,,,,,,,,,,,,,,,,,,,,,,,,distractorTask,1,,,,,,,,,,,,,,,,,,,,,,,,,,383.95388089993503,383.9636418999871,386.89725579996593,[-0.38055555555555554],[-0.4],[1],[0],[0],[2.941631000023335],['button_incorrect'],386.8976408999879,387.900839000009,,,,,,,,,,,,,,,,,,,,,,,,,,,,,,,,,,,,,1,2023-11-30_11h33.18.882,watkins1,2023.2.3,99.72326793719536,36,2023-11-30 11h33.26.791729 +0000,
,,,,,,,,,,,,,,,,,,,,,,,,,,,,,,,,,,,,,,,,,,,,,,,,,,,,,,,,,,,,,,,,,,,,,1,,,,,,,,,,,,,,,,,,,,,,,,,,,,,,,,,,,,,,,,,,,,,,,,,,,,,,,,,,,,,,,,,,,,,,,,,,1,2023-11-30_11h33.18.882,watkins1,2023.2.3,99.72326793719536,36,2023-11-30 11h33.26.791729 +0000,
,,,,,,,,,,,,,,,,,,,0,0,0,0,,,,,398.6642027000198,,,,,,,,,,,,,,Tasche,6.790190399973653,,,,,,,,,,,,2.5704231000272557,3.906154200085439,,,,,,,,,,,,,freeRecallSub,1,,,,,,,,,,,,,,,,,,,,,,,,,,,,,,,,,,,,,,398.6555702999467,398.6642027000198,398.6642027000198,405.46320789994206,return,6.790190399973653,None,Tasche,[-0.024074074074074074],[0.03796296296296296],[1],[0],[0],[1.2036375999450684],[],,,,,,,,,,,,,,,,,,,,,,1,2023-11-30_11h33.18.882,watkins1,2023.2.3,99.72326793719536,36,2023-11-30 11h33.26.791729 +0000,
,,,,,,,,,,,,,,,,,,,1,0,1,0,,,,,405.4756064999383,,,,,,,,,,,,,,Löffel,2.666996500105597,,,,,,,,,,,,0.7556518000783399,None,,,,,,,,,,,,,freeRecallSub,1,,,,,,,,,,,,,,,,,,,,,,,,,,,,,,,,,,,,,,405.4649899000069,405.4756064999383,405.4756064999383,408.1488327999832,return,2.666996500105597,None,Löffel,[],[],[],[],[],[],[],,,,,,,,,,,,,,,,,,,,,,1,2023-11-30_11h33.18.882,watkins1,2023.2.3,99.72326793719536,36,2023-11-30 11h33.26.791729 +0000,
,,,,,,,,,,,,,,,,,,,2,0,2,0,,,,,408.1596954999259,,,,,,,,,,,,,,Hut,2.462754699983634,,,,,,,,,,,,1.3758357999613509,None,,,,,,,,,,,,,freeRecallSub,1,,,,,,,,,,,,,,,,,,,,,,,,,,,,,,,,,,,,,,408.1501002999721,408.1596954999259,408.1596954999259,410.6305394000374,return,2.462754699983634,None,Hut,[],[],[],[],[],[],[],,,,,,,,,,,,,,,,,,,,,,1,2023-11-30_11h33.18.882,watkins1,2023.2.3,99.72326793719536,36,2023-11-30 11h33.26.791729 +0000,
,,,,,,,,,,,,,,,,,,,3,0,3,0,,,,,410.6414595999522,,,,,,,,,,,,,,Fahrrad,18.244952599983662,,,,,,,,,,,,15.455350000062026,None,,,,,,,,,,,,,freeRecallSub,1,,,,,,,,,,,,,,,,,,,,,,,,,,,,,,,,,,,,,,410.63178419996984,410.6414595999522,410.6414595999522,428.8888591999421,return,18.244952599983662,None,Fahrrad,[],[],[],[],[],[],[],,,,,,,,,,,,,,,,,,,,,,1,2023-11-30_11h33.18.882,watkins1,2023.2.3,99.72326793719536,36,2023-11-30 11h33.26.791729 +0000,
,,,,,,,,,,,,,,,,,,,4,0,4,0,,,,,428.90016509999987,,,,,,,,,,,,,,Uhr,3.570237400010228,,,,,,,,,,,,2.230226100073196,None,,,,,,,,,,,,,freeRecallSub,1,,,,,,,,,,,,,,,,,,,,,,,,,,,,,,,,,,,,,,428.890114299953,428.90016509999987,428.90016509999987,432.47646020003594,return,3.570237400010228,None,Uhr,[],[],[],[],[],[],[],,,,,,,,,,,,,,,,,,,,,,1,2023-11-30_11h33.18.882,watkins1,2023.2.3,99.72326793719536,36,2023-11-30 11h33.26.791729 +0000,
,,,,,,,,,,,,,,,,,,,5,0,5,0,,,,,432.48768909997307,,,,,,,,,,,,,,Rucksack,15.59068660007324,,,,,,,,,,,,12.995161599945277,None,,,,,,,,,,,,,freeRecallSub,1,,,,,,,,,,,,,,,,,,,,,,,,,,,,,,,,,,,,,,432.47785809997004,432.48768909997307,432.48768909997307,448.08428980002645,return,15.59068660007324,None,Rucksack,[],[],[],[],[],[],[],,,,,,,,,,,,,,,,,,,,,,1,2023-11-30_11h33.18.882,watkins1,2023.2.3,99.72326793719536,36,2023-11-30 11h33.26.791729 +0000,
,,,,,,,,,,,,,,,,,,,6,0,6,0,,,,,448.09590119996574,,,,,,,,,,,,,,Hund,9.430594600038603,,,,,,,,,,,,8.145844899932854,None,,,,,,,,,,,,,freeRecallSub,1,,,,,,,,,,,,,,,,,,,,,,,,,,,,,,,,,,,,,,448.0855651999591,448.09590119996574,448.09590119996574,457.52718530001584,return,9.430594600038603,None,Hund,[],[],[],[],[],[],[],,,,,,,,,,,,,,,,,,,,,,1,2023-11-30_11h33.18.882,watkins1,2023.2.3,99.72326793719536,36,2023-11-30 11h33.26.791729 +0000,
,,,,,,,,,,,,,,,,,,,7,0,7,0,,,,,457.5388493000064,,,,,,,,,,,,,,Katze,2.3395553999580443,,,,,,,,,,,,0.6042254000203684,None,,,,,,,,,,,,,freeRecallSub,1,,,,,,,,,,,,,,,,,,,,,,,,,,,,,,,,,,,,,,457.5284486999735,457.5388493000064,457.5388493000064,459.880027599982,return,2.3395553999580443,None,Katze,[],[],[],[],[],[],[],,,,,,,,,,,,,,,,,,,,,,1,2023-11-30_11h33.18.882,watkins1,2023.2.3,99.72326793719536,36,2023-11-30 11h33.26.791729 +0000,
,,,,,,,,,,,,,,,,,,,8,0,8,0,,,,,459.89188589993864,,,,,,,,,,,,,,Kamera,10.690537799964659,,,,,,,,,,,,8.9891440999927,None,,,,,,,,,,,,,freeRecallSub,1,,,,,,,,,,,,,,,,,,,,,,,,,,,,,,,,,,,,,,459.8812906999374,459.89188589993864,459.89188589993864,470.5877995999763,return,10.690537799964659,None,Kamera,[],[],[],[],[],[],[],,,,,,,,,,,,,,,,,,,,,,1,2023-11-30_11h33.18.882,watkins1,2023.2.3,99.72326793719536,36,2023-11-30 11h33.26.791729 +0000,
,,,,,,,,,,,,,,,,,,,9,0,9,0,,,,,470.5997718999861,,,,,,,,,,,,,,Vase,10.942527699982747,,,,,,,,,,,,9.80272169993259,None,,,,,,,,,,,,,freeRecallSub,1,,,,,,,,,,,,,,,,,,,,,,,,,,,,,,,,,,,,,,470.58905990002677,470.5997718999861,470.5997718999861,481.5469264999265,return,10.942527699982747,None,Vase,[],[],[],[],[],[],[],,,,,,,,,,,,,,,,,,,,,,1,2023-11-30_11h33.18.882,watkins1,2023.2.3,99.72326793719536,36,2023-11-30 11h33.26.791729 +0000,
,,,,,,,,,,,,,,,,,,,10,0,10,0,,,,,481.55918610002846,,,,,,,,,,,,,,,[],,,,,,,,,,,,None,None,,,,,,,,,,,,,freeRecallSub,1,,,,,,,,,,,,,,,,,,,,,,,,,,,,,,,,,,,,,,481.5482077000197,481.55918610002846,481.55918610002846,483.4792985999957,None,,,,[0.35555555555555557],[-0.4148148148148148],[1],[0],[0],[1.9265689000021666],['button_continue'],,,,,,,,,,,,,,,,,,,,,,1,2023-11-30_11h33.18.882,watkins1,2023.2.3,99.72326793719536,36,2023-11-30 11h33.26.791729 +0000,
,,,,,,,,,,,,,,,,,,,,,,,,,,,,,,,,,,,,,,,,,,,,,,,,,,,,,,,,,,,,,,,,,,,,,1,,,,,,,,,,,,,,,,,,,,,,,,,,,,,,,,,,,,,,,,,,,,,,,,,,,,,,,,,,,,,,,,,,,,,,,,,,1,2023-11-30_11h33.18.882,watkins1,2023.2.3,99.72326793719536,36,2023-11-30 11h33.26.791729 +0000,
,,,,,,,,,,,,,,,,,,,,,,,0,0,0,0,491.7976192999631,,,,,,,,,,499.16257109993603,499.66015429992694,,,,7.360896500060335,,,,,,,,,,,,None,None,,,,,,,,,,Rucksack,,,cuedRecallAdj,1,,,,,,,,,,,,,,,,,,,,,,,,,,,,,,,,,,,,,,,,,,,,,,,,,,,,,491.78845639992505,491.7976192999631,0,491.7976192999631,499.1592721999623,gestreift,return,7.360896500060335,None,499.15967490000185,499.1680804999778,499.1680804999778,499.1624203999527,,None,,,,,,,1,2023-11-30_11h33.18.882,watkins1,2023.2.3,99.72326793719536,36,2023-11-30 11h33.26.791729 +0000,
,,,,,,,,,,,,,,,,,,,,,,,1,0,1,0,499.6701006999938,,,,,,,,,,513.831353800022,514.3226320999674,,,niedlich,10.41614860005211,,,,,,,,,,,,1.194515599985607,None,,,,,,,,,,Löffel,,,cuedRecallAdj,1,,,,,,,,,,,,,,,,,,,,,,,,,,,,,,,,,,,,,,,,,,,,,,,,,,,,,499.66040419996716,499.6701006999938,0,499.6701006999938,510.0952972000232,glänzend,return,10.41614860005211,None,510.0955625999486,510.10513099993113,510.10513099993113,513.8310087999562,niedlich,return,3.717321899952367,None,,,,,1,2023-11-30_11h33.18.882,watkins1,2023.2.3,99.72326793719536,36,2023-11-30 11h33.26.791729 +0000,
,,,,,,,,,,,,,,,,,,,,,,,2,0,2,0,514.3325887999963,,,,,,,,,,534.5781968999654,535.0694969999604,,,,13.833616900024936,,,,,,,,,,,,2.8110603999812156,6.0444627000251785,,,,,,,,,,Geige,,,cuedRecallAdj,1,,,,,,,,,,,,,,,,,,,,,,,,,,,,,,,,,,,,,,,,,,,,,,,,,,,,,514.3228765999665,514.3325887999963,0,514.3325887999963,528.1712403999409,gläneznd,return,13.833616900024936,None,528.1715055999812,528.180816099979,528.180816099979,534.5779138000216,,return,6.393414200050756,None,,,,,1,2023-11-30_11h33.18.882,watkins1,2023.2.3,99.72326793719536,36,2023-11-30 11h33.26.791729 +0000,
,,,,,,,,,,,,,,,,,,,,,,,3,0,3,0,535.079441400012,,,,,,,,,,540.0425687999232,540.532157199923,,,,4.950705099967308,,,,,,,,,,,,None,None,,,,,,,,,,Stift,,,cuedRecallAdj,1,,,,,,,,,,,,,,,,,,,,,,,,,,,,,,,,,,,,,,,,,,,,,,,,,,,,,535.0697371999267,535.079441400012,0,535.079441400012,540.0403428999707,,return,4.950705099967308,None,540.040605599992,540.0500726000173,540.0500726000173,540.0424680999713,,None,,,,,,,1,2023-11-30_11h33.18.882,watkins1,2023.2.3,99.72326793719536,36,2023-11-30 11h33.26.791729 +0000,
,,,,,,,,,,,,,,,,,,,,,,,4,0,4,0,540.5420697999652,,,,,,,,,,554.2424215000356,554.7411387999309,,,,13.68817300000228,,,,,,,,,,,,None,None,,,,,,,,,,Kamera,,,cuedRecallAdj,1,,,,,,,,,,,,,,,,,,,,,,,,,,,,,,,,,,,,,,,,,,,,,,,,,,,,,540.5323978000088,540.5420697999652,0,540.5420697999652,554.2393866999773,gebogene,return,13.68817300000228,None,554.2396494999994,554.2492204000009,554.2492204000009,554.2423210999696,,None,,,,,,,1,2023-11-30_11h33.18.882,watkins1,2023.2.3,99.72326793719536,36,2023-11-30 11h33.26.791729 +0000,
,,,,,,,,,,,,,,,,,,,,,,,5,0,5,0,554.7510580000235,,,,,,,,,,564.3529677999904,564.844311999972,,,nass,7.503099599969573,,,,,,,,,,,,0.9133906000060961,None,,,,,,,,,,Trommel,,,cuedRecallAdj,1,,,,,,,,,,,,,,,,,,,,,,,,,,,,,,,,,,,,,,,,,,,,,,,,,,,,,554.7413852999453,554.7510580000235,0,554.7510580000235,562.2637355999323,durchsichtige,return,7.503099599969573,None,562.2640017999802,562.2733829999343,562.2733829999343,564.3527028999524,nass,return,2.0766658999491483,None,,,,,1,2023-11-30_11h33.18.882,watkins1,2023.2.3,99.72326793719536,36,2023-11-30 11h33.26.791729 +0000,
,,,,,,,,,,,,,,,,,,,,,,,6,0,6,0,564.8542241000105,,,,,,,,,,573.7223717999877,574.2136834999546,,,,5.007939900038764,,,,,,,,,,,,3.8553709000116214,None,,,,,,,,,,Ring,,,cuedRecallAdj,1,,,,,,,,,,,,,,,,,,,,,,,,,,,,,,,,,,,,,,,,,,,,,,,,,,,,,564.8445519999368,564.8542241000105,0,564.8542241000105,569.8660166999325,kalt,return,5.007939900038764,None,569.8662793999538,569.8755354000023,569.8755354000023,573.7221086999634,,return,3.8425553999841213,None,,,,,1,2023-11-30_11h33.18.882,watkins1,2023.2.3,99.72326793719536,36,2023-11-30 11h33.26.791729 +0000,
,,,,,,,,,,,,,,,,,,,,,,,7,0,7,0,574.2237445999635,,,,,,,,,,583.1618453999981,583.6529317999957,,,gepunktet,4.5904026000062,,,,,,,,,,,,1.7669221999822184,None,,,,,,,,,,Hut,,,cuedRecallAdj,1,,,,,,,,,,,,,,,,,,,,,,,,,,,,,,,,,,,,,,,,,,,,,,,,,,,,,574.2139259999385,574.2237445999635,0,574.2237445999635,578.8230888999533,dunkel,return,4.5904026000062,None,578.8233479999471,578.8328664000146,578.8328664000146,583.161581399967,gepunktet,return,4.325229899957776,None,,,,,1,2023-11-30_11h33.18.882,watkins1,2023.2.3,99.72326793719536,36,2023-11-30 11h33.26.791729 +0000,
,,,,,,,,,,,,,,,,,,,,,,,8,0,8,0,583.6629310999997,,,,,,,,,,589.4073240000289,589.8988794999896,,,schwere,3.695183700066991,,,,,,,,,,,,0.39089300006162375,None,,,,,,,,,,Tasse,,,cuedRecallAdj,1,,,,,,,,,,,,,,,,,,,,,,,,,,,,,,,,,,,,,,,,,,,,,,,,,,,,,583.6531789000146,583.6629310999997,0,583.6629310999997,587.3589880999643,zarte,return,3.695183700066991,None,587.3592529000016,587.3684548999881,587.3684548999881,589.4070600999985,schwere,return,2.0296516000526026,None,,,,,1,2023-11-30_11h33.18.882,watkins1,2023.2.3,99.72326793719536,36,2023-11-30 11h33.26.791729 +0000,
,,,,,,,,,,,,,,,,,,,,,,,9,0,9,0,589.9088691000361,,,,,,,,,,593.2071740999818,593.7053070999682,,,,3.2892233999446034,,,,,,,,,,,,None,None,,,,,,,,,,Jacke,,,cuedRecallAdj,1,,,,,,,,,,,,,,,,,,,,,,,,,,,,,,,,,,,,,,,,,,,,,,,,,,,,,589.8991253999993,589.9088691000361,0,589.9088691000361,593.2037189999828,elegant,return,3.2892233999446034,None,593.2039815000026,593.213317799964,593.213317799964,593.2070740000345,,None,,,,,,,1,2023-11-30_11h33.18.882,watkins1,2023.2.3,99.72326793719536,36,2023-11-30 11h33.26.791729 +0000,
,,,,,,,,,,,,,,,,,,,,,,,10,0,10,0,593.7151832999662,,,,,,,,,,601.6923524999293,602.1909332999494,,,,7.970907500013709,,,,,,,,,,,,None,None,,,,,,,,,,Schere,,,cuedRecallAdj,1,,,,,,,,,,,,,,,,,,,,,,,,,,,,,,,,,,,,,,,,,,,,,,,,,,,,,593.7055526999757,593.7151832999662,0,593.7151832999662,601.6893316999776,robuste,return,7.970907500013709,None,601.6896051999647,601.6988328000298,601.6988328000298,601.6922519999789,,None,,,,,,,1,2023-11-30_11h33.18.882,watkins1,2023.2.3,99.72326793719536,36,2023-11-30 11h33.26.791729 +0000,
,,,,,,,,,,,,,,,,,,,,,,,11,0,11,0,602.2009877000237,,,,,,,,,,605.6964505999349,606.1876562000252,,,,3.157119099982083,,,,,,,,,,,,0.33097580005414784,None,,,,,,,,,,Blume,,,cuedRecallAdj,1,,,,,,,,,,,,,,,,,,,,,,,,,,,,,,,,,,,,,,,,,,,,,,,,,,,,,602.1911720000207,602.2009877000237,0,602.2009877000237,605.3644807999954,,return,3.157119099982083,None,605.3647423000075,605.3740260000341,605.3740260000341,605.6961715000216,,return,0.3199886999791488,None,,,,,1,2023-11-30_11h33.18.882,watkins1,2023.2.3,99.72326793719536,36,2023-11-30 11h33.26.791729 +0000,
,,,,,,,,,,,,,,,,,,,,,,,12,0,12,0,606.1977222999558,,,,,,,,,,609.5347764999606,610.0336227000225,,,,3.3282539000501856,,,,,,,,,,,,None,None,,,,,,,,,,Telefon,,,cuedRecallAdj,1,,,,,,,,,,,,,,,,,,,,,,,,,,,,,,,,,,,,,,,,,,,,,,,,,,,,,606.187897900003,606.1977222999558,0,606.1977222999558,609.5319188999711,lang,return,3.3282539000501856,None,609.5321833000053,609.5414412999526,609.5414412999526,609.534673999995,,None,,,,,,,1,2023-11-30_11h33.18.882,watkins1,2023.2.3,99.72326793719536,36,2023-11-30 11h33.26.791729 +0000,
,,,,,,,,,,,,,,,,,,,,,,,13,0,13,0,610.0436200000113,,,,,,,,,,614.5028630000306,614.9942669000011,,,,4.202499800012447,,,,,,,,,,,,0.25029909994918853,None,,,,,,,,,,Eimer,,,cuedRecallAdj,1,,,,,,,,,,,,,,,,,,,,,,,,,,,,,,,,,,,,,,,,,,,,,,,,,,,,,610.0338601999683,610.0436200000113,0,610.0436200000113,614.2517452000175,schwerer,return,4.202499800012447,None,614.252022700035,614.2612940999679,614.2612940999679,614.502596699982,,return,0.2327854000031948,None,,,,,1,2023-11-30_11h33.18.882,watkins1,2023.2.3,99.72326793719536,36,2023-11-30 11h33.26.791729 +0000,
,,,,,,,,,,,,,,,,,,,,,,,14,0,14,0,615.0041660999414,,,,,,,,,,619.5063054999337,620.0052357999375,,,,4.489882600028068,,,,,,,,,,,,None,None,,,,,,,,,,Buch,,,cuedRecallAdj,1,,,,,,,,,,,,,,,,,,,,,,,,,,,,,,,,,,,,,,,,,,,,,,,,,,,,,614.9945122000063,615.0041660999414,0,615.0041660999414,619.5035078999354,blass,return,4.489882600028068,None,619.5037710999604,619.51322600001,619.51322600001,619.506204699981,,None,,,,,,,1,2023-11-30_11h33.18.882,watkins1,2023.2.3,99.72326793719536,36,2023-11-30 11h33.26.791729 +0000,
,,,,,,,,,,,,,,,,,,,,,,,15,0,15,0,620.0152819999494,,,,,,,,,,624.2440279999282,624.7353320999537,,,,3.9906797000439838,,,,,,,,,,,,0.23017110000364482,None,,,,,,,,,,Würfel,,,cuedRecallAdj,1,,,,,,,,,,,,,,,,,,,,,,,,,,,,,,,,,,,,,,,,,,,,,,,,,,,,,620.0054782999214,620.0152819999494,0,620.0152819999494,624.0128868999891,hohl,return,3.9906797000439838,None,624.0131514000241,624.0224052999401,624.0224052999401,624.2437618999975,,return,0.21574370004236698,None,,,,,1,2023-11-30_11h33.18.882,watkins1,2023.2.3,99.72326793719536,36,2023-11-30 11h33.26.791729 +0000,
,,,,,,,,,,,,,,,,,,,,,,,16,0,16,0,624.7453440999379,,,,,,,,,,630.6342792999931,631.13307109999,,,,5.87671290000435,,,,,,,,,,,,None,None,,,,,,,,,,Lampe,,,cuedRecallAdj,1,,,,,,,,,,,,,,,,,,,,,,,,,,,,,,,,,,,,,,,,,,,,,,,,,,,,,624.7355757999467,624.7453440999379,0,624.7453440999379,630.6312662999844,rustikal,return,5.87671290000435,None,630.6315292000072,630.6409733999753,630.6409733999753,630.6341782999225,,None,,,,,,,1,2023-11-30_11h33.18.882,watkins1,2023.2.3,99.72326793719536,36,2023-11-30 11h33.26.791729 +0000,
,,,,,,,,,,,,,,,,,,,,,,,17,0,17,0,631.1429824000224,,,,,,,,,,637.4502978000091,637.9415631999727,,,,5.527093399898149,,,,,,,,,,,,0.7724028000375256,None,,,,,,,,,,Uhr,,,cuedRecallAdj,1,,,,,,,,,,,,,,,,,,,,,,,,,,,,,,,,,,,,,,,,,,,,,,,,,,,,,631.1333089999389,631.1429824000224,0,631.1429824000224,636.676923800027,flauschig,return,5.527093399898149,None,636.6771811000071,636.686417400022,636.686417400022,637.4500318999635,,return,0.7595921999309212,None,,,,,1,2023-11-30_11h33.18.882,watkins1,2023.2.3,99.72326793719536,36,2023-11-30 11h33.26.791729 +0000,
,,,,,,,,,,,,,,,,,,,,,,,18,0,18,0,637.9514740000013,,,,,,,,,,644.2386555999983,644.7301086999942,,,praktisch,2.294485699967481,,,,,,,,,,,,1.384970499901101,None,,,,,,,,,,Fahrrad,,,cuedRecallAdj,1,,,,,,,,,,,,,,,,,,,,,,,,,,,,,,,,,,,,,,,,,,,,,,,,,,,,,637.9418094999855,637.9514740000013,0,637.9514740000013,640.2520543999271,neu,return,2.294485699967481,None,640.2523168999469,640.261611099937,640.261611099937,644.2383914999664,praktisch,return,3.9684489999199286,None,,,,,1,2023-11-30_11h33.18.882,watkins1,2023.2.3,99.72326793719536,36,2023-11-30 11h33.26.791729 +0000,
,,,,,,,,,,,,,,,,,,,,,,,19,0,19,0,644.7401582000311,,,,,,,,,,652.2229192999657,652.7139292999636,,,breit,4.473786299931817,,,,,,,,,,,,1.625904200016521,None,,,,,,,,,,Tasche,,,cuedRecallAdj,1,,,,,,,,,,,,,,,,,,,,,,,,,,,,,,,,,,,,,,,,,,,,,,,,,,,,,644.7303539999994,644.7401582000311,0,644.7401582000311,649.2193822999252,dick,return,4.473786299931817,None,649.2196458999533,649.2288529999787,649.2288529999787,652.2226547999308,breit,return,2.9931909000733867,None,,,,,1,2023-11-30_11h33.18.882,watkins1,2023.2.3,99.72326793719536,36,2023-11-30 11h33.26.791729 +0000,
,,,,,,,,,,,,,,,,,,,,,,,20,0,20,0,652.723837699974,,,,,,,,,,656.5530331999762,657.0422403999837,,,,3.8181519999634475,,,,,,,,,,,,None,None,,,,,,,,,,Flasche,,,cuedRecallAdj,1,,,,,,,,,,,,,,,,,,,,,,,,,,,,,,,,,,,,,,,,,,,,,,,,,,,,,652.7141744999681,652.723837699974,0,652.723837699974,656.5505045999307,,return,3.8181519999634475,None,656.5507679999573,656.5602312999545,656.5602312999545,656.5529327000258,,None,,,,,,,1,2023-11-30_11h33.18.882,watkins1,2023.2.3,99.72326793719536,36,2023-11-30 11h33.26.791729 +0000,
,,,,,,,,,,,,,,,,,,,,,,,21,0,21,0,657.052319600014,,,,,,,,,,663.2110321000218,663.7099705999717,,,,6.145625000004657,,,,,,,,,,,,None,None,,,,,,,,,,Hammer,,,cuedRecallAdj,1,,,,,,,,,,,,,,,,,,,,,,,,,,,,,,,,,,,,,,,,,,,,,,,,,,,,,657.0424856999889,657.052319600014,0,657.052319600014,663.2080572999548,kaputt,return,6.145625000004657,None,663.2083184999647,663.217877499992,663.217877499992,663.2109300999437,,None,,,,,,,1,2023-11-30_11h33.18.882,watkins1,2023.2.3,99.72326793719536,36,2023-11-30 11h33.26.791729 +0000,
,,,,,,,,,,,,,,,,,,,,,,,22,0,22,0,663.7198590999469,,,,,,,,,,668.2821010999614,668.7809965999331,,,,4.5501367000397295,,,,,,,,,,,,None,None,,,,,,,,,,Bürste,,,cuedRecallAdj,1,,,,,,,,,,,,,,,,,,,,,,,,,,,,,,,,,,,,,,,,,,,,,,,,,,,,,663.7102157999761,663.7198590999469,0,663.7198590999469,668.279137799982,sauber,return,4.5501367000397295,None,668.2793992999941,668.2888684000354,668.2888684000354,668.281999800005,,None,,,,,,,1,2023-11-30_11h33.18.882,watkins1,2023.2.3,99.72326793719536,36,2023-11-30 11h33.26.791729 +0000,
,,,,,,,,,,,,,,,,,,,,,,,23,0,23,0,668.7909417999908,,,,,,,,,,675.3115688000107,675.8101983999368,,,,6.51101000001654,,,,,,,,,,,,None,None,,,,,,,,,,Kiste,,,cuedRecallAdj,1,,,,,,,,,,,,,,,,,,,,,,,,,,,,,,,,,,,,,,,,,,,,,,,,,,,,,668.7812426999444,668.7909417999908,0,668.7909417999908,675.3085622999351,glänzend,return,6.51101000001654,None,675.3088282999815,675.3181603000266,675.3181603000266,675.3114667999325,,None,,,,,,,1,2023-11-30_11h33.18.882,watkins1,2023.2.3,99.72326793719536,36,2023-11-30 11h33.26.791729 +0000,
,,,,,,,,,,,,,,,,,,,,,,,24,0,24,0,675.8201957999263,,,,,,,,,,679.8303417999996,680.3289502999978,,,,4.0017781999194995,,,,,,,,,,,,None,None,,,,,,,,,,Kette,,,cuedRecallAdj,1,,,,,,,,,,,,,,,,,,,,,,,,,,,,,,,,,,,,,,,,,,,,,,,,,,,,,675.8104411999229,675.8201957999263,0,675.8201957999263,679.8273365999339,kratzig,return,4.0017781999194995,None,679.8276058000047,679.8369526999304,679.8369526999304,679.8302422999404,,None,,,,,,,1,2023-11-30_11h33.18.882,watkins1,2023.2.3,99.72326793719536,36,2023-11-30 11h33.26.791729 +0000,
,,,,,,,,,,,,,,,,,,,,,,,25,0,25,0,680.3390088999877,,,,,,,,,,686.9276645999635,687.41924009996,,,,6.362871999968775,,,,,,,,,,,,0.22016380005516112,None,,,,,,,,,,Schlüssel,,,cuedRecallAdj,1,,,,,,,,,,,,,,,,,,,,,,,,,,,,,,,,,,,,,,,,,,,,,,,,,,,,,680.3291927999817,680.3390088999877,0,680.3390088999877,686.706696899957,hässlich,return,6.362871999968775,None,686.706961399992,686.7161937999772,686.7161937999772,686.9274001999293,,return,0.20164300000760704,None,,,,,1,2023-11-30_11h33.18.882,watkins1,2023.2.3,99.72326793719536,36,2023-11-30 11h33.26.791729 +0000,
,,,,,,,,,,,,,,,,,,,,,,,26,0,26,0,687.4291974999942,,,,,,,,,,697.8231718000025,698.3147829999216,,,sportlich,4.752741700038314,,,,,,,,,,,,3.4840177999576554,None,,,,,,,,,,Brille,,,cuedRecallAdj,1,,,,,,,,,,,,,,,,,,,,,,,,,,,,,,,,,,,,,,,,,,,,,,,,,,,,,687.4194794000359,687.4291974999942,0,687.4291974999942,692.1894046999514,matt,return,4.752741700038314,None,692.1896718000062,692.1992251999909,692.1992251999909,697.8229088999797,sportlich,return,5.61503820004873,None,,,,,1,2023-11-30_11h33.18.882,watkins1,2023.2.3,99.72326793719536,36,2023-11-30 11h33.26.791729 +0000,
,,,,,,,,,,,,,,,,,,,,,,,27,0,27,0,698.3247474000091,,,,,,,,,,703.4268413999816,703.9180706000188,,,,3.6811810999643058,,,,,,,,,,,,1.4150918000377715,None,,,,,,,,,,Socke,,,cuedRecallAdj,1,,,,,,,,,,,,,,,,,,,,,,,,,,,,,,,,,,,,,,,,,,,,,,,,,,,,,698.3150221999967,698.3247474000091,0,698.3247474000091,702.0107313999906,flach,return,3.6811810999643058,None,702.010995300021,702.0202845999738,702.0202845999738,703.4265745999292,,return,1.4015518000815064,None,,,,,1,2023-11-30_11h33.18.882,watkins1,2023.2.3,99.72326793719536,36,2023-11-30 11h33.26.791729 +0000,
,,,,,,,,,,,,,,,,,,,,,,,28,0,28,0,703.9281245999737,,,,,,,,,,706.210752199986,706.7096474999562,,,,2.269748799968511,,,,,,,,,,,,None,None,,,,,,,,,,Kerze,,,cuedRecallAdj,1,,,,,,,,,,,,,,,,,,,,,,,,,,,,,,,,,,,,,,,,,,,,,,,,,,,,,703.9183126999997,703.9281245999737,0,703.9281245999737,706.2077173999278,bunt,return,2.269748799968511,None,706.2079825999681,706.2174918999663,706.2174918999663,706.2106492000166,,None,,,,,,,1,2023-11-30_11h33.18.882,watkins1,2023.2.3,99.72326793719536,36,2023-11-30 11h33.26.791729 +0000,
,,,,,,,,,,,,,,,,,,,,,,,29,0,29,0,706.7195692999521,,,,,,,,,,711.714049299946,712.2128963000141,,,,4.990294600022025,,,,,,,,,,,,None,None,,,,,,,,,,Vase,,,cuedRecallAdj,1,,,,,,,,,,,,,,,,,,,,,,,,,,,,,,,,,,,,,,,,,,,,,,,,,,,,,706.7098918999545,706.7195692999521,0,706.7195692999521,711.711210599984,teuer,return,4.990294600022025,None,711.7114735000068,711.7207162999548,711.7207162999548,711.7139476999873,,None,,,,,,,1,2023-11-30_11h33.18.882,watkins1,2023.2.3,99.72326793719536,36,2023-11-30 11h33.26.791729 +0000,
,,,,,,,,,,,,,,,,,,,,,,,,,,,,,,,,,,,,,,,,,,,,,,,,,,,,,,,,,,,,,,,,,,,,,1,,,,,,,,,,,,,,,,,,,,,,,,,,,,,,,,,,,,,,,,,,,,,,,,,,,,,,,,,,,,,,,,,,,,,,712.2296501999954,q,2502.8833184000105,None,1,2023-11-30_11h33.18.882,watkins1,2023.2.3,99.72326793719536,36,2023-11-30 11h33.26.791729 +0000,
