Equation,CorrectResponse,Correctbutton,trials_7.thisRepN,trials_7.thisTrialN,trials_7.thisN,trials_7.thisIndex,trials.thisRepN,trials.thisTrialN,trials.thisN,trials.thisIndex,trials_3.thisRepN,trials_3.thisTrialN,trials_3.thisN,trials_3.thisIndex,trials_2.thisRepN,trials_2.thisTrialN,trials_2.thisN,trials_2.thisIndex,trials_4.thisRepN,trials_4.thisTrialN,trials_4.thisN,trials_4.thisIndex,trials_5.thisRepN,trials_5.thisTrialN,trials_5.thisN,trials_5.thisIndex,thisRow.t,notes,code_marius.started,code_marius.stopped,welcome.started,welcome.stopped,instruction_study.started,instruction_study.stopped,fixationcross.started,fixationcross.stopped,blanc.started,blanc.stopped,study_control_probe.started,study_control_probe.stopped,responseKey,responseTime,scale_answer_2.keys,study_control_probe_2.started,study_control_probe_2.stopped,scale_answer_3.keys,scale_answer_3.rt,scale_answer_3.duration,blanc_2.started,blanc_2.stopped,test_attr_probe.started,test_attr_probe.stopped,recalled_attr,firstKeyTime,secondWordTime,blanc_3.started,blanc_3.stopped,test_sub_probe.started,test_sub_probe.stopped,recalled_sub,instruction_probe_end.started,instruction_probe_end.stopped,study.started,study.stopped,substantive,adjective,wordpair,task,condition,liste_sub_phase1,liste_adj_phase1,scale_answer.keys,scale_answer.rt,scale_answer.duration,code_defineWordsInit.started,code_defineWordsInit.stopped,liste_sub_phase2,study_control.started,study_control.stopped,scale_answer_4.keys,restudy_same.started,restudy_same.stopped,scale_answer_5.keys,restudy_different.started,restudy_different.stopped,scale_answer_6.keys,scale_answer_6.rt,scale_answer_6.duration,test_attr.started,test_attr.stopped,test_sub.started,test_sub.stopped,scale_answer_4.rt,scale_answer_4.duration,distractortask.started,equation_text.started,distractortask.stopped,mouse_answer.x,mouse_answer.y,mouse_answer.leftButton,mouse_answer.midButton,mouse_answer.rightButton,mouse_answer.time,mouse_answer.clicked_name,feedback_distractortask.started,feedback_distractortask.stopped,free_recall.started,text_enter.started,key_resp.started,free_recall.stopped,key_resp.keys,key_resp.rt,key_resp.duration,free_recalled_sub,mouse_continue.x,mouse_continue.y,mouse_continue.leftButton,mouse_continue.midButton,mouse_continue.rightButton,mouse_continue.time,mouse_continue.clicked_name,cued_recall.started,text_enter_2.started,correct,key_continue.started,cued_recall.stopped,recalled_attr1,key_continue.keys,key_continue.rt,key_continue.duration,cued_recall_2.started,text_enter_3.started,key_continue_2.started,cued_recall_2.stopped,recalled_attr2,key_continue_2.keys,key_continue_2.rt,key_continue_2.duration,key_resp_8.started,key_resp_8.keys,key_resp_8.rt,key_resp_8.duration,condition,date,expName,psychopyVersion,frameRate,participant,expStart,
,,,,,,,,,,,,,,,,,,,,,,,,,,,,,0.11757689993828535,0.11764500010758638,0.11765309982001781,4.261284499894828,,,,,,,,,,,,,,,,,,,,,,,,,,,,,,,,,,,,,1,,,,,,,,,,,,,,,,,,,,,,,,,,,,,,,,,,,,,,,,,,,,,,,,,,,,,,,,,,,,,,,,,,,,,,,,,,1,2024-01-10_12h37.45.529,watkins1,2023.2.3,99.6952314690443,82,2024-01-10 12h37.53.195814 +0000,
,,,,,,,,,,,,,,,,,,,,,,,,,,,,,,,,,4.2613324001431465,60.97127430001274,,,,,,,,,,,,,,,,,,,,,,,,,,,,,,,,,,,1,,,,,,,,,,,,,,,,,,,,,,,,,,,,,,,,,,,,,,,,,,,,,,,,,,,,,,,,,,,,,,,,,,,,,,,,,,1,2024-01-10_12h37.45.529,watkins1,2023.2.3,99.6952314690443,82,2024-01-10 12h37.53.195814 +0000,
,,,0,0,0,0,,,,,,,,,,,,,,,,,,,,,61.98488420015201,,,,,,,,60.97129159979522,61.97489670012146,68.47724309982732,68.96861490001902,62.46689969999716,68.47707979986444,1,2.6421971996314824,None,68.96862579975277,74.97917009983212,1,2.6421971996314824,None,74.97946480009705,74.97948849992827,74.97949569998309,74.97957739979029,,None,None,74.97975119994953,74.97977249976248,74.97977939993143,74.9798523997888,,,,,,,,,,1,,,,,,,,,,,,,,,,,,,,,,,,,,,,,,,,,,,,,,,,,,,,,,,,,,,,,,,,,,,,,,,,,,,,,,,,,,1,2024-01-10_12h37.45.529,watkins1,2023.2.3,99.6952314690443,82,2024-01-10 12h37.53.195814 +0000,
,,,,,,,,,,,,,,,,,,,,,,,,,,,,,,,,,,,,,,,,,,,,,,,,,,,,,,,,,,,,,74.97996510006487,77.5274264998734,,,,,,,1,,,,,,,,,,,,,,,,,,,,,,,,,,,,,,,,,,,,,,,,,,,,,,,,,,,,,,,,,,,,,,,,,,,,,,,,,,1,2024-01-10_12h37.45.529,watkins1,2023.2.3,99.6952314690443,82,2024-01-10 12h37.53.195814 +0000,
,,,,,,,0,0,0,0,,,,,,,,,,,,,,,,,78.53996679978445,,,,,,,,77.52744239987805,78.52998440014198,78.53043980011716,79.02208339981735,,,1,2.4600394000299275,,,,,,,,,,,,,,,,,,,,,79.02209409978241,85.02609309973195,Bürste,schwer,"['Bürste', 'schwer']",restudy_diff,1,"['Bürste', 'Schere', 'Hut', 'Trommel', 'Jacke', 'Stift', 'Flasche', 'Kiste', 'Ring', 'Vase', 'Tasche', 'Rucksack', 'Telefon', 'Tasse', 'Eimer', 'Schlüssel', 'Brille', 'Kette', 'Kamera', 'Fahrrad', 'Kerze', 'Geige']",['schwer'],1,2.4600394000299275,None,,,,,,,,,,,,,,,,,,,,,,,,,,,,,,,,,,,,,,,,,,,,,,,,,,,,,,,,,,,,,,,,,,,,,1,2024-01-10_12h37.45.529,watkins1,2023.2.3,99.6952314690443,82,2024-01-10 12h37.53.195814 +0000,
,,,,,,,1,0,1,0,,,,,,,,,,,,,,,,,85.03558530006558,,,,,,,,,,85.02667789999396,85.51759189972654,,,1,1.5223249001428485,,,,,,,,,,,,,,,,,,,,,85.51760279992595,91.52528179995716,Schere,nass,"['Schere', 'nass']",control,1,"['Bürste', 'Schere', 'Hut', 'Trommel', 'Jacke', 'Stift', 'Flasche', 'Kiste', 'Ring', 'Vase', 'Tasche', 'Rucksack', 'Telefon', 'Tasse', 'Eimer', 'Schlüssel', 'Brille', 'Kette', 'Kamera', 'Fahrrad', 'Kerze', 'Geige']","['schwer', 'nass']",1,1.5223249001428485,None,,,,,,,,,,,,,,,,,,,,,,,,,,,,,,,,,,,,,,,,,,,,,,,,,,,,,,,,,,,,,,,,,,,,,1,2024-01-10_12h37.45.529,watkins1,2023.2.3,99.6952314690443,82,2024-01-10 12h37.53.195814 +0000,
,,,,,,,2,0,2,0,,,,,,,,,,,,,,,,,91.53467659978196,,,,,,,,,,91.52574840001762,92.01705269981176,,,3,2.2551965001039207,,,,,,,,,,,,,,,,,,,,,92.0170633001253,98.02179200015962,Hut,neu,"['Hut', 'neu']",control,1,"['Bürste', 'Schere', 'Hut', 'Trommel', 'Jacke', 'Stift', 'Flasche', 'Kiste', 'Ring', 'Vase', 'Tasche', 'Rucksack', 'Telefon', 'Tasse', 'Eimer', 'Schlüssel', 'Brille', 'Kette', 'Kamera', 'Fahrrad', 'Kerze', 'Geige']","['schwer', 'nass', 'neu']",3,2.2551965001039207,None,,,,,,,,,,,,,,,,,,,,,,,,,,,,,,,,,,,,,,,,,,,,,,,,,,,,,,,,,,,,,,,,,,,,,1,2024-01-10_12h37.45.529,watkins1,2023.2.3,99.6952314690443,82,2024-01-10 12h37.53.195814 +0000,
,,,,,,,3,0,3,0,,,,,,,,,,,,,,,,,98.03128769993782,,,,,,,,,,98.02227529976517,98.51338090002537,,,3,2.4705777000635862,,,,,,,,,,,,,,,,,,,,,98.51339079998434,104.51531299995258,Trommel,hohl,"['Trommel', 'hohl']",restudy_diff,1,"['Bürste', 'Schere', 'Hut', 'Trommel', 'Jacke', 'Stift', 'Flasche', 'Kiste', 'Ring', 'Vase', 'Tasche', 'Rucksack', 'Telefon', 'Tasse', 'Eimer', 'Schlüssel', 'Brille', 'Kette', 'Kamera', 'Fahrrad', 'Kerze', 'Geige']","['schwer', 'nass', 'neu', 'hohl']",3,2.4705777000635862,None,,,,,,,,,,,,,,,,,,,,,,,,,,,,,,,,,,,,,,,,,,,,,,,,,,,,,,,,,,,,,,,,,,,,,1,2024-01-10_12h37.45.529,watkins1,2023.2.3,99.6952314690443,82,2024-01-10 12h37.53.195814 +0000,
,,,,,,,4,0,4,0,,,,,,,,,,,,,,,,,104.52478529978544,,,,,,,,,,104.51579539990053,105.0068634999916,,,1,1.0733813000842929,,,,,,,,,,,,,,,,,,,,,105.00687439972535,111.01069399993867,Jacke,krumm,"['Jacke', 'krumm']",restudy_diff,1,"['Bürste', 'Schere', 'Hut', 'Trommel', 'Jacke', 'Stift', 'Flasche', 'Kiste', 'Ring', 'Vase', 'Tasche', 'Rucksack', 'Telefon', 'Tasse', 'Eimer', 'Schlüssel', 'Brille', 'Kette', 'Kamera', 'Fahrrad', 'Kerze', 'Geige']","['schwer', 'nass', 'neu', 'hohl', 'krumm']",1,1.0733813000842929,None,,,,,,,,,,,,,,,,,,,,,,,,,,,,,,,,,,,,,,,,,,,,,,,,,,,,,,,,,,,,,,,,,,,,,1,2024-01-10_12h37.45.529,watkins1,2023.2.3,99.6952314690443,82,2024-01-10 12h37.53.195814 +0000,
,,,,,,,5,0,5,0,,,,,,,,,,,,,,,,,111.02013899991289,,,,,,,,,,111.01116129988804,111.50227910000831,,,2,1.7057189997285604,,,,,,,,,,,,,,,,,,,,,111.50228990009055,117.50703709991649,Stift,breit,"['Stift', 'breit']",restudy_diff,1,"['Bürste', 'Schere', 'Hut', 'Trommel', 'Jacke', 'Stift', 'Flasche', 'Kiste', 'Ring', 'Vase', 'Tasche', 'Rucksack', 'Telefon', 'Tasse', 'Eimer', 'Schlüssel', 'Brille', 'Kette', 'Kamera', 'Fahrrad', 'Kerze', 'Geige']","['schwer', 'nass', 'neu', 'hohl', 'krumm', 'breit']",2,1.7057189997285604,None,,,,,,,,,,,,,,,,,,,,,,,,,,,,,,,,,,,,,,,,,,,,,,,,,,,,,,,,,,,,,,,,,,,,,1,2024-01-10_12h37.45.529,watkins1,2023.2.3,99.6952314690443,82,2024-01-10 12h37.53.195814 +0000,
,,,,,,,6,0,6,0,,,,,,,,,,,,,,,,,117.51655030017719,,,,,,,,,,117.50750260008499,117.99902419978753,,,2,2.5207963003776968,,,,,,,,,,,,,,,,,,,,,117.99903480010107,124.00840539997444,Flasche,gepunktet,"['Flasche', 'gepunktet']",control,1,"['Bürste', 'Schere', 'Hut', 'Trommel', 'Jacke', 'Stift', 'Flasche', 'Kiste', 'Ring', 'Vase', 'Tasche', 'Rucksack', 'Telefon', 'Tasse', 'Eimer', 'Schlüssel', 'Brille', 'Kette', 'Kamera', 'Fahrrad', 'Kerze', 'Geige']","['schwer', 'nass', 'neu', 'hohl', 'krumm', 'breit', 'gepunktet']",2,2.5207963003776968,None,,,,,,,,,,,,,,,,,,,,,,,,,,,,,,,,,,,,,,,,,,,,,,,,,,,,,,,,,,,,,,,,,,,,,1,2024-01-10_12h37.45.529,watkins1,2023.2.3,99.6952314690443,82,2024-01-10 12h37.53.195814 +0000,
,,,,,,,7,0,7,0,,,,,,,,,,,,,,,,,124.0179280997254,,,,,,,,,,124.00887589994818,124.49996929988265,,,3,2.348791300319135,,,,,,,,,,,,,,,,,,,,,124.49997969996184,130.50531669985503,Kiste,glatt,"['Kiste', 'glatt']",restudy_diff,1,"['Bürste', 'Schere', 'Hut', 'Trommel', 'Jacke', 'Stift', 'Flasche', 'Kiste', 'Ring', 'Vase', 'Tasche', 'Rucksack', 'Telefon', 'Tasse', 'Eimer', 'Schlüssel', 'Brille', 'Kette', 'Kamera', 'Fahrrad', 'Kerze', 'Geige']","['schwer', 'nass', 'neu', 'hohl', 'krumm', 'breit', 'gepunktet', 'glatt']",3,2.348791300319135,None,,,,,,,,,,,,,,,,,,,,,,,,,,,,,,,,,,,,,,,,,,,,,,,,,,,,,,,,,,,,,,,,,,,,,1,2024-01-10_12h37.45.529,watkins1,2023.2.3,99.6952314690443,82,2024-01-10 12h37.53.195814 +0000,
,,,,,,,8,0,8,0,,,,,,,,,,,,,,,,,130.51481800014153,,,,,,,,,,130.50587480003014,130.9967288998887,,,3,1.0038660997524858,,,,,,,,,,,,,,,,,,,,,130.9967391998507,136.99765540007502,Ring,hübsch,"['Ring', 'hübsch']",restudy_diff,1,"['Bürste', 'Schere', 'Hut', 'Trommel', 'Jacke', 'Stift', 'Flasche', 'Kiste', 'Ring', 'Vase', 'Tasche', 'Rucksack', 'Telefon', 'Tasse', 'Eimer', 'Schlüssel', 'Brille', 'Kette', 'Kamera', 'Fahrrad', 'Kerze', 'Geige']","['schwer', 'nass', 'neu', 'hohl', 'krumm', 'breit', 'gepunktet', 'glatt', 'hübsch']",3,1.0038660997524858,None,,,,,,,,,,,,,,,,,,,,,,,,,,,,,,,,,,,,,,,,,,,,,,,,,,,,,,,,,,,,,,,,,,,,,1,2024-01-10_12h37.45.529,watkins1,2023.2.3,99.6952314690443,82,2024-01-10 12h37.53.195814 +0000,
,,,,,,,9,0,9,0,,,,,,,,,,,,,,,,,137.0071697998792,,,,,,,,,,136.99812659993768,137.4892619997263,,,1,1.0788516998291016,,,,,,,,,,,,,,,,,,,,,137.4892723998055,143.49190609995276,Vase,kratzig,"['Vase', 'kratzig']",control,1,"['Bürste', 'Schere', 'Hut', 'Trommel', 'Jacke', 'Stift', 'Flasche', 'Kiste', 'Ring', 'Vase', 'Tasche', 'Rucksack', 'Telefon', 'Tasse', 'Eimer', 'Schlüssel', 'Brille', 'Kette', 'Kamera', 'Fahrrad', 'Kerze', 'Geige']","['schwer', 'nass', 'neu', 'hohl', 'krumm', 'breit', 'gepunktet', 'glatt', 'hübsch', 'kratzig']",1,1.0788516998291016,None,,,,,,,,,,,,,,,,,,,,,,,,,,,,,,,,,,,,,,,,,,,,,,,,,,,,,,,,,,,,,,,,,,,,,1,2024-01-10_12h37.45.529,watkins1,2023.2.3,99.6952314690443,82,2024-01-10 12h37.53.195814 +0000,
,,,,,,,10,0,10,0,,,,,,,,,,,,,,,,,143.50140389986336,,,,,,,,,,143.49237790005282,143.98342800000682,,,3,2.153884599916637,,,,,,,,,,,,,,,,,,,,,143.98343829996884,149.99268630007282,Tasche,kaputt,"['Tasche', 'kaputt']",restudy_diff,1,"['Bürste', 'Schere', 'Hut', 'Trommel', 'Jacke', 'Stift', 'Flasche', 'Kiste', 'Ring', 'Vase', 'Tasche', 'Rucksack', 'Telefon', 'Tasse', 'Eimer', 'Schlüssel', 'Brille', 'Kette', 'Kamera', 'Fahrrad', 'Kerze', 'Geige']","['schwer', 'nass', 'neu', 'hohl', 'krumm', 'breit', 'gepunktet', 'glatt', 'hübsch', 'kratzig', 'kaputt']",3,2.153884599916637,None,,,,,,,,,,,,,,,,,,,,,,,,,,,,,,,,,,,,,,,,,,,,,,,,,,,,,,,,,,,,,,,,,,,,,1,2024-01-10_12h37.45.529,watkins1,2023.2.3,99.6952314690443,82,2024-01-10 12h37.53.195814 +0000,
,,,,,,,11,0,11,0,,,,,,,,,,,,,,,,,150.0020849001594,,,,,,,,,,149.9931462998502,150.48408239986748,,,3,2.1571805998682976,,,,,,,,,,,,,,,,,,,,,150.48409309983253,156.48597919987515,Rucksack,klobig,"['Rucksack', 'klobig']",restudy_diff,1,"['Bürste', 'Schere', 'Hut', 'Trommel', 'Jacke', 'Stift', 'Flasche', 'Kiste', 'Ring', 'Vase', 'Tasche', 'Rucksack', 'Telefon', 'Tasse', 'Eimer', 'Schlüssel', 'Brille', 'Kette', 'Kamera', 'Fahrrad', 'Kerze', 'Geige']","['schwer', 'nass', 'neu', 'hohl', 'krumm', 'breit', 'gepunktet', 'glatt', 'hübsch', 'kratzig', 'kaputt', 'klobig']",3,2.1571805998682976,None,,,,,,,,,,,,,,,,,,,,,,,,,,,,,,,,,,,,,,,,,,,,,,,,,,,,,,,,,,,,,,,,,,,,,1,2024-01-10_12h37.45.529,watkins1,2023.2.3,99.6952314690443,82,2024-01-10 12h37.53.195814 +0000,
,,,,,,,12,0,12,0,,,,,,,,,,,,,,,,,156.49544870015234,,,,,,,,,,156.48645070008934,156.97758310008794,,,1,1.5667210002429783,,,,,,,,,,,,,,,,,,,,,156.97759350016713,162.9830175000243,Telefon,dunkel,"['Telefon', 'dunkel']",restudy_diff,1,"['Bürste', 'Schere', 'Hut', 'Trommel', 'Jacke', 'Stift', 'Flasche', 'Kiste', 'Ring', 'Vase', 'Tasche', 'Rucksack', 'Telefon', 'Tasse', 'Eimer', 'Schlüssel', 'Brille', 'Kette', 'Kamera', 'Fahrrad', 'Kerze', 'Geige']","['schwer', 'nass', 'neu', 'hohl', 'krumm', 'breit', 'gepunktet', 'glatt', 'hübsch', 'kratzig', 'kaputt', 'klobig', 'dunkel']",1,1.5667210002429783,None,,,,,,,,,,,,,,,,,,,,,,,,,,,,,,,,,,,,,,,,,,,,,,,,,,,,,,,,,,,,,,,,,,,,,1,2024-01-10_12h37.45.529,watkins1,2023.2.3,99.6952314690443,82,2024-01-10 12h37.53.195814 +0000,
,,,,,,,13,0,13,0,,,,,,,,,,,,,,,,,162.99251639982685,,,,,,,,,,162.98349520005286,163.47476339992136,,,2,2.2466185996308923,,,,,,,,,,,,,,,,,,,,,163.4747733999975,169.4753531999886,Tasse,gut,"['Tasse', 'gut']",control,1,"['Bürste', 'Schere', 'Hut', 'Trommel', 'Jacke', 'Stift', 'Flasche', 'Kiste', 'Ring', 'Vase', 'Tasche', 'Rucksack', 'Telefon', 'Tasse', 'Eimer', 'Schlüssel', 'Brille', 'Kette', 'Kamera', 'Fahrrad', 'Kerze', 'Geige']","['schwer', 'nass', 'neu', 'hohl', 'krumm', 'breit', 'gepunktet', 'glatt', 'hübsch', 'kratzig', 'kaputt', 'klobig', 'dunkel', 'gut']",2,2.2466185996308923,None,,,,,,,,,,,,,,,,,,,,,,,,,,,,,,,,,,,,,,,,,,,,,,,,,,,,,,,,,,,,,,,,,,,,,1,2024-01-10_12h37.45.529,watkins1,2023.2.3,99.6952314690443,82,2024-01-10 12h37.53.195814 +0000,
,,,,,,,14,0,14,0,,,,,,,,,,,,,,,,,169.4848170997575,,,,,,,,,,169.47583090001717,169.96684989985079,,,1,2.1134092998690903,,,,,,,,,,,,,,,,,,,,,169.96686029992998,175.97150690015405,Eimer,biegsam,"['Eimer', 'biegsam']",restudy_diff,1,"['Bürste', 'Schere', 'Hut', 'Trommel', 'Jacke', 'Stift', 'Flasche', 'Kiste', 'Ring', 'Vase', 'Tasche', 'Rucksack', 'Telefon', 'Tasse', 'Eimer', 'Schlüssel', 'Brille', 'Kette', 'Kamera', 'Fahrrad', 'Kerze', 'Geige']","['schwer', 'nass', 'neu', 'hohl', 'krumm', 'breit', 'gepunktet', 'glatt', 'hübsch', 'kratzig', 'kaputt', 'klobig', 'dunkel', 'gut', 'biegsam']",1,2.1134092998690903,None,,,,,,,,,,,,,,,,,,,,,,,,,,,,,,,,,,,,,,,,,,,,,,,,,,,,,,,,,,,,,,,,,,,,,1,2024-01-10_12h37.45.529,watkins1,2023.2.3,99.6952314690443,82,2024-01-10 12h37.53.195814 +0000,
,,,,,,,15,0,15,0,,,,,,,,,,,,,,,,,175.9810518999584,,,,,,,,,,175.97196500003338,176.46309550013393,,,1,1.402218900155276,,,,,,,,,,,,,,,,,,,,,176.46310639986768,182.4732304001227,Schlüssel,zart,"['Schlüssel', 'zart']",restudy_diff,1,"['Bürste', 'Schere', 'Hut', 'Trommel', 'Jacke', 'Stift', 'Flasche', 'Kiste', 'Ring', 'Vase', 'Tasche', 'Rucksack', 'Telefon', 'Tasse', 'Eimer', 'Schlüssel', 'Brille', 'Kette', 'Kamera', 'Fahrrad', 'Kerze', 'Geige']","['schwer', 'nass', 'neu', 'hohl', 'krumm', 'breit', 'gepunktet', 'glatt', 'hübsch', 'kratzig', 'kaputt', 'klobig', 'dunkel', 'gut', 'biegsam', 'zart']",1,1.402218900155276,None,,,,,,,,,,,,,,,,,,,,,,,,,,,,,,,,,,,,,,,,,,,,,,,,,,,,,,,,,,,,,,,,,,,,,1,2024-01-10_12h37.45.529,watkins1,2023.2.3,99.6952314690443,82,2024-01-10 12h37.53.195814 +0000,
,,,,,,,16,0,16,0,,,,,,,,,,,,,,,,,182.48273519985378,,,,,,,,,,182.47371939988807,182.96482420014217,,,3,0.9552127998322248,,,,,,,,,,,,,,,,,,,,,182.9648345997557,188.9666153001599,Brille,groß,"['Brille', 'groß']",restudy_diff,1,"['Bürste', 'Schere', 'Hut', 'Trommel', 'Jacke', 'Stift', 'Flasche', 'Kiste', 'Ring', 'Vase', 'Tasche', 'Rucksack', 'Telefon', 'Tasse', 'Eimer', 'Schlüssel', 'Brille', 'Kette', 'Kamera', 'Fahrrad', 'Kerze', 'Geige']","['schwer', 'nass', 'neu', 'hohl', 'krumm', 'breit', 'gepunktet', 'glatt', 'hübsch', 'kratzig', 'kaputt', 'klobig', 'dunkel', 'gut', 'biegsam', 'zart', 'groß']",3,0.9552127998322248,None,,,,,,,,,,,,,,,,,,,,,,,,,,,,,,,,,,,,,,,,,,,,,,,,,,,,,,,,,,,,,,,,,,,,,1,2024-01-10_12h37.45.529,watkins1,2023.2.3,99.6952314690443,82,2024-01-10 12h37.53.195814 +0000,
,,,,,,,17,0,17,0,,,,,,,,,,,,,,,,,188.9760960000567,,,,,,,,,,188.96709850011393,189.45840679993853,,,3,2.918724099639803,,,,,,,,,,,,,,,,,,,,,189.45841760002077,195.4620304000564,Kette,gestreift,"['Kette', 'gestreift']",control,1,"['Bürste', 'Schere', 'Hut', 'Trommel', 'Jacke', 'Stift', 'Flasche', 'Kiste', 'Ring', 'Vase', 'Tasche', 'Rucksack', 'Telefon', 'Tasse', 'Eimer', 'Schlüssel', 'Brille', 'Kette', 'Kamera', 'Fahrrad', 'Kerze', 'Geige']","['schwer', 'nass', 'neu', 'hohl', 'krumm', 'breit', 'gepunktet', 'glatt', 'hübsch', 'kratzig', 'kaputt', 'klobig', 'dunkel', 'gut', 'biegsam', 'zart', 'groß', 'gestreift']",3,2.918724099639803,None,,,,,,,,,,,,,,,,,,,,,,,,,,,,,,,,,,,,,,,,,,,,,,,,,,,,,,,,,,,,,,,,,,,,,1,2024-01-10_12h37.45.529,watkins1,2023.2.3,99.6952314690443,82,2024-01-10 12h37.53.195814 +0000,
,,,,,,,18,0,18,0,,,,,,,,,,,,,,,,,195.47151830000803,,,,,,,,,,195.46251339977607,195.95342939998955,,,1,1.1116697997786105,,,,,,,,,,,,,,,,,,,,,195.95344049995765,201.9558808999136,Kamera,elegant,"['Kamera', 'elegant']",restudy_diff,1,"['Bürste', 'Schere', 'Hut', 'Trommel', 'Jacke', 'Stift', 'Flasche', 'Kiste', 'Ring', 'Vase', 'Tasche', 'Rucksack', 'Telefon', 'Tasse', 'Eimer', 'Schlüssel', 'Brille', 'Kette', 'Kamera', 'Fahrrad', 'Kerze', 'Geige']","['schwer', 'nass', 'neu', 'hohl', 'krumm', 'breit', 'gepunktet', 'glatt', 'hübsch', 'kratzig', 'kaputt', 'klobig', 'dunkel', 'gut', 'biegsam', 'zart', 'groß', 'gestreift', 'elegant']",1,1.1116697997786105,None,,,,,,,,,,,,,,,,,,,,,,,,,,,,,,,,,,,,,,,,,,,,,,,,,,,,,,,,,,,,,,,,,,,,,1,2024-01-10_12h37.45.529,watkins1,2023.2.3,99.6952314690443,82,2024-01-10 12h37.53.195814 +0000,
,,,,,,,19,0,19,0,,,,,,,,,,,,,,,,,201.96534289978445,,,,,,,,,,201.9563798001036,202.44736390002072,,,1,1.0574842998757958,,,,,,,,,,,,,,,,,,,,,202.44737479975447,208.4524444998242,Fahrrad,durchsichtig,"['Fahrrad', 'durchsichtig']",restudy_diff,1,"['Bürste', 'Schere', 'Hut', 'Trommel', 'Jacke', 'Stift', 'Flasche', 'Kiste', 'Ring', 'Vase', 'Tasche', 'Rucksack', 'Telefon', 'Tasse', 'Eimer', 'Schlüssel', 'Brille', 'Kette', 'Kamera', 'Fahrrad', 'Kerze', 'Geige']","['schwer', 'nass', 'neu', 'hohl', 'krumm', 'breit', 'gepunktet', 'glatt', 'hübsch', 'kratzig', 'kaputt', 'klobig', 'dunkel', 'gut', 'biegsam', 'zart', 'groß', 'gestreift', 'elegant', 'durchsichtig']",1,1.0574842998757958,None,,,,,,,,,,,,,,,,,,,,,,,,,,,,,,,,,,,,,,,,,,,,,,,,,,,,,,,,,,,,,,,,,,,,,1,2024-01-10_12h37.45.529,watkins1,2023.2.3,99.6952314690443,82,2024-01-10 12h37.53.195814 +0000,
,,,,,,,20,0,20,0,,,,,,,,,,,,,,,,,208.46190099976957,,,,,,,,,,208.45291189989075,208.94381309999153,,,3,1.3694107998162508,,,,,,,,,,,,,,,,,,,,,208.94382339995354,214.9445170997642,Kerze,winzig,"['Kerze', 'winzig']",control,1,"['Bürste', 'Schere', 'Hut', 'Trommel', 'Jacke', 'Stift', 'Flasche', 'Kiste', 'Ring', 'Vase', 'Tasche', 'Rucksack', 'Telefon', 'Tasse', 'Eimer', 'Schlüssel', 'Brille', 'Kette', 'Kamera', 'Fahrrad', 'Kerze', 'Geige']","['schwer', 'nass', 'neu', 'hohl', 'krumm', 'breit', 'gepunktet', 'glatt', 'hübsch', 'kratzig', 'kaputt', 'klobig', 'dunkel', 'gut', 'biegsam', 'zart', 'groß', 'gestreift', 'elegant', 'durchsichtig', 'winzig']",3,1.3694107998162508,None,,,,,,,,,,,,,,,,,,,,,,,,,,,,,,,,,,,,,,,,,,,,,,,,,,,,,,,,,,,,,,,,,,,,,1,2024-01-10_12h37.45.529,watkins1,2023.2.3,99.6952314690443,82,2024-01-10 12h37.53.195814 +0000,
,,,,,,,21,0,21,0,,,,,,,,,,,,,,,,,214.954034099821,,,,,,,,,,214.94499209988862,215.436113699805,,,1,1.7642446998506784,,,,,,,,,,,,,,,,,,,,,215.4361267001368,221.43699189973995,Geige,nachhaltig,"['Geige', 'nachhaltig']",restudy_diff,1,"['Bürste', 'Schere', 'Hut', 'Trommel', 'Jacke', 'Stift', 'Flasche', 'Kiste', 'Ring', 'Vase', 'Tasche', 'Rucksack', 'Telefon', 'Tasse', 'Eimer', 'Schlüssel', 'Brille', 'Kette', 'Kamera', 'Fahrrad', 'Kerze', 'Geige']","['schwer', 'nass', 'neu', 'hohl', 'krumm', 'breit', 'gepunktet', 'glatt', 'hübsch', 'kratzig', 'kaputt', 'klobig', 'dunkel', 'gut', 'biegsam', 'zart', 'groß', 'gestreift', 'elegant', 'durchsichtig', 'winzig', 'nachhaltig']",1,1.7642446998506784,None,,,,,,,,,,,,,,,,,,,,,,,,,,,,,,,,,,,,,,,,,,,,,,,,,,,,,,,,,,,,,,,,,,,,,1,2024-01-10_12h37.45.529,watkins1,2023.2.3,99.6952314690443,82,2024-01-10 12h37.53.195814 +0000,
,,,,,,,,,,,0,0,0,0,,,,,,,,,,,,,221.44641249999404,,,,,,,,,,221.43781240005046,221.92847249982879,,,3,0.842536199837923,,,,,,,,,,,,None,None,,,,,,,,,,Jacke,dick,"['Jacke', 'dick']",restudy_diff,1,,,,,,221.43773839995265,221.4377870997414,"['Jacke', 'Ring', 'Fahrrad', 'Buch', 'Blume', 'Kiste', 'Eimer', 'Brille', 'Rucksack', 'Hammer', 'Geige', 'Schlüssel', 'Trommel', 'Würfel', 'Telefon', 'Kamera', 'Stift', 'Lampe', 'Tasche', 'Uhr', 'Bürste', 'Löffel', 'Socke']",221.9284835997969,221.9313839999959,None,221.93156079994515,221.93415350001305,None,221.93432120000944,227.93939059972763,3,0.842536199837923,None,227.93979129986838,227.94110779976472,227.94111989997327,227.94216059986502,,,,,,,,,,,,,,,,,,,,,,,,,,,,,,,,,,,,,,,,,,,,,,,,,,,1,2024-01-10_12h37.45.529,watkins1,2023.2.3,99.6952314690443,82,2024-01-10 12h37.53.195814 +0000,
,,,,,,,,,,,1,0,1,0,,,,,,,,,,,,,227.94883240014315,,,,,,,,,,227.94242889992893,228.4410115997307,,,3,0.9555025002919137,,,,,,,,,,,,None,None,,,,,,,,,,Ring,matt,"['Ring', 'matt']",restudy_diff,1,,,,,,227.94236329989508,227.9424016997218,"['Jacke', 'Ring', 'Fahrrad', 'Buch', 'Blume', 'Kiste', 'Eimer', 'Brille', 'Rucksack', 'Hammer', 'Geige', 'Schlüssel', 'Trommel', 'Würfel', 'Telefon', 'Kamera', 'Stift', 'Lampe', 'Tasche', 'Uhr', 'Bürste', 'Löffel', 'Socke']",228.44102209992707,228.44354810006917,None,228.44366599991918,228.44608999975026,None,228.44619529973716,234.45350439986214,3,0.9555025002919137,None,234.45377949997783,234.4549569999799,234.4549690000713,234.45601269975305,,,,,,,,,,,,,,,,,,,,,,,,,,,,,,,,,,,,,,,,,,,,,,,,,,,1,2024-01-10_12h37.45.529,watkins1,2023.2.3,99.6952314690443,82,2024-01-10 12h37.53.195814 +0000,
,,,,,,,,,,,2,0,2,0,,,,,,,,,,,,,234.4629778000526,,,,,,,,,,234.45628130016848,234.9549408000894,,,1,1.128839099779725,,,,,,,,,,,,None,None,,,,,,,,,,Fahrrad,sportlich,"['Fahrrad', 'sportlich']",restudy_diff,1,,,,,,234.45621669990942,234.45625409996137,"['Jacke', 'Ring', 'Fahrrad', 'Buch', 'Blume', 'Kiste', 'Eimer', 'Brille', 'Rucksack', 'Hammer', 'Geige', 'Schlüssel', 'Trommel', 'Würfel', 'Telefon', 'Kamera', 'Stift', 'Lampe', 'Tasche', 'Uhr', 'Bürste', 'Löffel', 'Socke']",234.95495169982314,234.95757409976795,None,234.95769569976255,234.96028830017895,None,234.9603955000639,240.9649470001459,1,1.128839099779725,None,240.96522289980203,240.96654269983992,240.96655459981412,240.96780449990183,,,,,,,,,,,,,,,,,,,,,,,,,,,,,,,,,,,,,,,,,,,,,,,,,,,1,2024-01-10_12h37.45.529,watkins1,2023.2.3,99.6952314690443,82,2024-01-10 12h37.53.195814 +0000,
,,,,,,,,,,,3,0,3,0,,,,,,,,,,,,,240.97440479975194,,,,,,,,,,240.96807119995356,241.4665302997455,,,[],[],,,,,,,,,,,,None,None,,,,,,,,,,Buch,strahlend,"['Buch', 'strahlend']",control,1,,,,,,240.9680070998147,240.96804459998384,"['Jacke', 'Ring', 'Fahrrad', 'Buch', 'Blume', 'Kiste', 'Eimer', 'Brille', 'Rucksack', 'Hammer', 'Geige', 'Schlüssel', 'Trommel', 'Würfel', 'Telefon', 'Kamera', 'Stift', 'Lampe', 'Tasche', 'Uhr', 'Bürste', 'Löffel', 'Socke']",241.46654090005904,247.4710269998759,2,247.47137229982764,247.53655919991434,None,247.53671160014346,247.53979389974847,None,,,247.53991900011897,247.54117289977148,247.54118619998917,247.542613199912,1.518268700223416,None,,,,,,,,,,,,,,,,,,,,,,,,,,,,,,,,,,,,,,,,,,,,,,,,,1,2024-01-10_12h37.45.529,watkins1,2023.2.3,99.6952314690443,82,2024-01-10 12h37.53.195814 +0000,
,,,,,,,,,,,4,0,4,0,,,,,,,,,,,,,247.5465458999388,,,,,,,,,,247.54292020015419,248.0406722999178,,,[],[],,,,,,,,,,,,None,None,,,,,,,,,,Blume,lustig,"['Blume', 'lustig']",control,1,,,,,,247.54283910011873,247.54289259994403,"['Jacke', 'Ring', 'Fahrrad', 'Buch', 'Blume', 'Kiste', 'Eimer', 'Brille', 'Rucksack', 'Hammer', 'Geige', 'Schlüssel', 'Trommel', 'Würfel', 'Telefon', 'Kamera', 'Stift', 'Lampe', 'Tasche', 'Uhr', 'Bürste', 'Löffel', 'Socke']",248.04068360012025,254.0505563998595,1,254.05082429992035,254.0534737999551,None,254.0535821998492,254.05608939984813,None,,,254.0561947999522,254.05734049994498,254.05735189979896,254.058507299982,1.2484164000488818,None,,,,,,,,,,,,,,,,,,,,,,,,,,,,,,,,,,,,,,,,,,,,,,,,,1,2024-01-10_12h37.45.529,watkins1,2023.2.3,99.6952314690443,82,2024-01-10 12h37.53.195814 +0000,
,,,,,,,,,,,5,0,5,0,,,,,,,,,,,,,254.06208229996264,,,,,,,,,,254.05876899976283,254.55512689985335,,,3,1.0511389998719096,,,,,,,,,,,,None,None,,,,,,,,,,Kiste,lang,"['Kiste', 'lang']",restudy_diff,1,,,,,,254.05870629986748,254.0587439001538,"['Jacke', 'Ring', 'Fahrrad', 'Buch', 'Blume', 'Kiste', 'Eimer', 'Brille', 'Rucksack', 'Hammer', 'Geige', 'Schlüssel', 'Trommel', 'Würfel', 'Telefon', 'Kamera', 'Stift', 'Lampe', 'Tasche', 'Uhr', 'Bürste', 'Löffel', 'Socke']",254.55513719981536,254.55684150010347,None,254.55695999972522,254.55839519994333,None,254.5584992999211,260.56224549980834,3,1.0511389998719096,None,260.56251529976726,260.5638032001443,260.56382549973205,260.5648726997897,,,,,,,,,,,,,,,,,,,,,,,,,,,,,,,,,,,,,,,,,,,,,,,,,,,1,2024-01-10_12h37.45.529,watkins1,2023.2.3,99.6952314690443,82,2024-01-10 12h37.53.195814 +0000,
,,,,,,,,,,,6,0,6,0,,,,,,,,,,,,,260.5716840000823,,,,,,,,,,260.5651378999464,261.06375119974837,,,3,1.3082002000883222,,,,,,,,,,,,None,None,,,,,,,,,,Eimer,praktisch,"['Eimer', 'praktisch']",restudy_diff,1,,,,,,260.56507469993085,260.5651119998656,"['Jacke', 'Ring', 'Fahrrad', 'Buch', 'Blume', 'Kiste', 'Eimer', 'Brille', 'Rucksack', 'Hammer', 'Geige', 'Schlüssel', 'Trommel', 'Würfel', 'Telefon', 'Kamera', 'Stift', 'Lampe', 'Tasche', 'Uhr', 'Bürste', 'Löffel', 'Socke']",261.06376239983365,261.066322799772,None,261.06644190009683,261.06896949978545,None,261.06907460000366,267.07700889976695,3,1.3082002000883222,None,267.07728220010176,267.07857020013034,267.07858199998736,267.07981349993497,,,,,,,,,,,,,,,,,,,,,,,,,,,,,,,,,,,,,,,,,,,,,,,,,,,1,2024-01-10_12h37.45.529,watkins1,2023.2.3,99.6952314690443,82,2024-01-10 12h37.53.195814 +0000,
,,,,,,,,,,,7,0,7,0,,,,,,,,,,,,,267.0864454000257,,,,,,,,,,267.08007849985734,267.57853929977864,,,3,1.0718851001001894,,,,,,,,,,,,None,None,,,,,,,,,,Brille,verspielt,"['Brille', 'verspielt']",restudy_diff,1,,,,,,267.0800148998387,267.08005290012807,"['Jacke', 'Ring', 'Fahrrad', 'Buch', 'Blume', 'Kiste', 'Eimer', 'Brille', 'Rucksack', 'Hammer', 'Geige', 'Schlüssel', 'Trommel', 'Würfel', 'Telefon', 'Kamera', 'Stift', 'Lampe', 'Tasche', 'Uhr', 'Bürste', 'Löffel', 'Socke']",267.57855039974675,267.58132380014285,None,267.5814415998757,267.58424599980935,None,267.5843531000428,273.5942734000273,3,1.0718851001001894,None,273.5945403999649,273.59583699982613,273.59584859991446,273.5970707000233,,,,,,,,,,,,,,,,,,,,,,,,,,,,,,,,,,,,,,,,,,,,,,,,,,,1,2024-01-10_12h37.45.529,watkins1,2023.2.3,99.6952314690443,82,2024-01-10 12h37.53.195814 +0000,
,,,,,,,,,,,8,0,8,0,,,,,,,,,,,,,273.60371259972453,,,,,,,,,,273.59733449993655,274.0959729999304,,,3,0.8677809997461736,,,,,,,,,,,,None,None,,,,,,,,,,Rucksack,bunt,"['Rucksack', 'bunt']",restudy_diff,1,,,,,,273.597271699924,273.59730939986184,"['Jacke', 'Ring', 'Fahrrad', 'Buch', 'Blume', 'Kiste', 'Eimer', 'Brille', 'Rucksack', 'Hammer', 'Geige', 'Schlüssel', 'Trommel', 'Würfel', 'Telefon', 'Kamera', 'Stift', 'Lampe', 'Tasche', 'Uhr', 'Bürste', 'Löffel', 'Socke']",274.0959839001298,274.0989178000018,None,274.0990348998457,274.1016951999627,None,274.10180469974875,280.10592619981617,3,0.8677809997461736,None,280.1061987001449,280.1075112000108,280.10752320010215,280.1085417000577,,,,,,,,,,,,,,,,,,,,,,,,,,,,,,,,,,,,,,,,,,,,,,,,,,,1,2024-01-10_12h37.45.529,watkins1,2023.2.3,99.6952314690443,82,2024-01-10 12h37.53.195814 +0000,
,,,,,,,,,,,9,0,9,0,,,,,,,,,,,,,280.1153434999287,,,,,,,,,,280.10880769975483,280.6073448001407,,,[],[],,,,,,,,,,,,None,None,,,,,,,,,,Hammer,niedlich,"['Hammer', 'niedlich']",control,1,,,,,,280.1087448000908,280.10878159990534,"['Jacke', 'Ring', 'Fahrrad', 'Buch', 'Blume', 'Kiste', 'Eimer', 'Brille', 'Rucksack', 'Hammer', 'Geige', 'Schlüssel', 'Trommel', 'Würfel', 'Telefon', 'Kamera', 'Stift', 'Lampe', 'Tasche', 'Uhr', 'Bürste', 'Löffel', 'Socke']",280.6073561999947,286.61043509980664,1,286.6107057998888,286.6134505998343,None,286.6135575999506,286.61610750015825,None,,,286.6162123000249,286.61738499999046,286.6173966997303,286.61861829971895,0.9940994000062346,None,,,,,,,,,,,,,,,,,,,,,,,,,,,,,,,,,,,,,,,,,,,,,,,,,1,2024-01-10_12h37.45.529,watkins1,2023.2.3,99.6952314690443,82,2024-01-10 12h37.53.195814 +0000,
,,,,,,,,,,,10,0,10,0,,,,,,,,,,,,,286.6222099000588,,,,,,,,,,286.61888490011916,287.1153754000552,,,1,1.2266279999166727,,,,,,,,,,,,None,None,,,,,,,,,,Geige,kalt,"['Geige', 'kalt']",restudy_diff,1,,,,,,286.61882269987836,286.61886110017076,"['Jacke', 'Ring', 'Fahrrad', 'Buch', 'Blume', 'Kiste', 'Eimer', 'Brille', 'Rucksack', 'Hammer', 'Geige', 'Schlüssel', 'Trommel', 'Würfel', 'Telefon', 'Kamera', 'Stift', 'Lampe', 'Tasche', 'Uhr', 'Bürste', 'Löffel', 'Socke']",287.1153873000294,287.1171675999649,None,287.1172866001725,287.11871509999037,None,287.11882050009444,293.12480629980564,1,1.2266279999166727,None,293.12511010002345,293.12636670004576,293.1263783001341,293.1274119000882,,,,,,,,,,,,,,,,,,,,,,,,,,,,,,,,,,,,,,,,,,,,,,,,,,,1,2024-01-10_12h37.45.529,watkins1,2023.2.3,99.6952314690443,82,2024-01-10 12h37.53.195814 +0000,
,,,,,,,,,,,11,0,11,0,,,,,,,,,,,,,293.13424179982394,,,,,,,,,,293.1276795999147,293.62618520017713,,,1,0.8964840997941792,,,,,,,,,,,,None,None,,,,,,,,,,Schlüssel,hässlich,"['Schlüssel', 'hässlich']",restudy_diff,1,,,,,,293.12761519989,293.1276535997167,"['Jacke', 'Ring', 'Fahrrad', 'Buch', 'Blume', 'Kiste', 'Eimer', 'Brille', 'Rucksack', 'Hammer', 'Geige', 'Schlüssel', 'Trommel', 'Würfel', 'Telefon', 'Kamera', 'Stift', 'Lampe', 'Tasche', 'Uhr', 'Bürste', 'Löffel', 'Socke']",293.62619630014524,293.62885749991983,None,293.62897619977593,293.6316248001531,None,293.6317308000289,299.64132829988375,1,0.8964840997941792,None,299.64160710014403,299.64297650009394,299.64298779983073,299.6441764999181,,,,,,,,,,,,,,,,,,,,,,,,,,,,,,,,,,,,,,,,,,,,,,,,,,,1,2024-01-10_12h37.45.529,watkins1,2023.2.3,99.6952314690443,82,2024-01-10 12h37.53.195814 +0000,
,,,,,,,,,,,12,0,12,0,,,,,,,,,,,,,299.6508502997458,,,,,,,,,,299.64444379974157,300.1430620001629,,,1,0.9484147001057863,,,,,,,,,,,,None,None,,,,,,,,,,Trommel,kurz,"['Trommel', 'kurz']",restudy_diff,1,,,,,,299.644377999939,299.64441559975967,"['Jacke', 'Ring', 'Fahrrad', 'Buch', 'Blume', 'Kiste', 'Eimer', 'Brille', 'Rucksack', 'Hammer', 'Geige', 'Schlüssel', 'Trommel', 'Würfel', 'Telefon', 'Kamera', 'Stift', 'Lampe', 'Tasche', 'Uhr', 'Bürste', 'Löffel', 'Socke']",300.1430727997795,300.14586229994893,None,300.1459805001505,300.14875529985875,None,300.1488606999628,306.15393419982865,1,0.9484147001057863,None,306.1542221000418,306.15556029975414,306.1555722998455,306.1566249001771,,,,,,,,,,,,,,,,,,,,,,,,,,,,,,,,,,,,,,,,,,,,,,,,,,,1,2024-01-10_12h37.45.529,watkins1,2023.2.3,99.6952314690443,82,2024-01-10 12h37.53.195814 +0000,
,,,,,,,,,,,13,0,13,0,,,,,,,,,,,,,306.16341170016676,,,,,,,,,,306.15689999982715,306.655576699879,,,[],[],,,,,,,,,,,,None,None,,,,,,,,,,Würfel,sauber,"['Würfel', 'sauber']",control,1,,,,,,306.15683230012655,306.15687329974025,"['Jacke', 'Ring', 'Fahrrad', 'Buch', 'Blume', 'Kiste', 'Eimer', 'Brille', 'Rucksack', 'Hammer', 'Geige', 'Schlüssel', 'Trommel', 'Würfel', 'Telefon', 'Kamera', 'Stift', 'Lampe', 'Tasche', 'Uhr', 'Bürste', 'Löffel', 'Socke']",306.6555878999643,312.6567991999909,2,312.65706369979307,312.65976119972765,None,312.65986499981955,312.662366699893,None,,,312.6624684999697,312.6636248999275,312.66363620013,312.66478599980474,2.200658400077373,None,,,,,,,,,,,,,,,,,,,,,,,,,,,,,,,,,,,,,,,,,,,,,,,,,1,2024-01-10_12h37.45.529,watkins1,2023.2.3,99.6952314690443,82,2024-01-10 12h37.53.195814 +0000,
,,,,,,,,,,,14,0,14,0,,,,,,,,,,,,,312.66835199994966,,,,,,,,,,312.66504979971796,313.1614052997902,,,3,1.7566455001942813,,,,,,,,,,,,None,None,,,,,,,,,,Telefon,schlicht,"['Telefon', 'schlicht']",restudy_diff,1,,,,,,312.6649883999489,312.665025500115,"['Jacke', 'Ring', 'Fahrrad', 'Buch', 'Blume', 'Kiste', 'Eimer', 'Brille', 'Rucksack', 'Hammer', 'Geige', 'Schlüssel', 'Trommel', 'Würfel', 'Telefon', 'Kamera', 'Stift', 'Lampe', 'Tasche', 'Uhr', 'Bürste', 'Löffel', 'Socke']",313.1614163997583,313.1630392000079,None,313.1631573997438,313.1646320000291,None,313.1647371998988,319.1747079999186,3,1.7566455001942813,None,319.1749777998775,319.1762823997997,319.17629439989105,319.17751249996945,,,,,,,,,,,,,,,,,,,,,,,,,,,,,,,,,,,,,,,,,,,,,,,,,,,1,2024-01-10_12h37.45.529,watkins1,2023.2.3,99.6952314690443,82,2024-01-10 12h37.53.195814 +0000,
,,,,,,,,,,,15,0,15,0,,,,,,,,,,,,,319.18414749996737,,,,,,,,,,319.1777781001292,319.676136800088,,,1,0.9358334997668862,,,,,,,,,,,,None,None,,,,,,,,,,Kamera,blass,"['Kamera', 'blass']",restudy_diff,1,,,,,,319.177712299861,319.1777495997958,"['Jacke', 'Ring', 'Fahrrad', 'Buch', 'Blume', 'Kiste', 'Eimer', 'Brille', 'Rucksack', 'Hammer', 'Geige', 'Schlüssel', 'Trommel', 'Würfel', 'Telefon', 'Kamera', 'Stift', 'Lampe', 'Tasche', 'Uhr', 'Bürste', 'Löffel', 'Socke']",319.67614750005305,319.67885629972443,None,319.6789726000279,319.68155039986596,None,319.6816555997357,325.68617680016905,1,0.9358334997668862,None,325.68645349983126,325.68777750013396,325.6877891998738,325.688958699815,,,,,,,,,,,,,,,,,,,,,,,,,,,,,,,,,,,,,,,,,,,,,,,,,,,1,2024-01-10_12h37.45.529,watkins1,2023.2.3,99.6952314690443,82,2024-01-10 12h37.53.195814 +0000,
,,,,,,,,,,,16,0,16,0,,,,,,,,,,,,,325.6965922997333,,,,,,,,,,325.6892288001254,326.18773540016264,,,3,2.5124131999909878,,,,,,,,,,,,None,None,,,,,,,,,,Stift,rustikal,"['Stift', 'rustikal']",restudy_diff,1,,,,,,325.68916429998353,325.68920269981027,"['Jacke', 'Ring', 'Fahrrad', 'Buch', 'Blume', 'Kiste', 'Eimer', 'Brille', 'Rucksack', 'Hammer', 'Geige', 'Schlüssel', 'Trommel', 'Würfel', 'Telefon', 'Kamera', 'Stift', 'Lampe', 'Tasche', 'Uhr', 'Bürste', 'Löffel', 'Socke']",326.1877462998964,326.1903781997971,None,326.19049789989367,326.19298689998686,None,326.19309249985963,332.1985415997915,3,2.5124131999909878,None,332.1988164000213,332.2001748997718,332.2001875001006,332.2014183998108,,,,,,,,,,,,,,,,,,,,,,,,,,,,,,,,,,,,,,,,,,,,,,,,,,,1,2024-01-10_12h37.45.529,watkins1,2023.2.3,99.6952314690443,82,2024-01-10 12h37.53.195814 +0000,
,,,,,,,,,,,17,0,17,0,,,,,,,,,,,,,332.20804349984974,,,,,,,,,,332.20169080002233,332.70019089989364,,,[],[],,,,,,,,,,,,None,None,,,,,,,,,,Lampe,teuer,"['Lampe', 'teuer']",control,1,,,,,,332.20162479998544,332.20166390016675,"['Jacke', 'Ring', 'Fahrrad', 'Buch', 'Blume', 'Kiste', 'Eimer', 'Brille', 'Rucksack', 'Hammer', 'Geige', 'Schlüssel', 'Trommel', 'Würfel', 'Telefon', 'Kamera', 'Stift', 'Lampe', 'Tasche', 'Uhr', 'Bürste', 'Löffel', 'Socke']",332.7002016999759,338.7009117999114,3,338.7011898998171,338.7038893001154,None,338.7039971998893,338.7064979998395,None,,,338.7066055997275,338.7078954000026,338.7079070000909,338.7090818998404,1.2921267999336123,None,,,,,,,,,,,,,,,,,,,,,,,,,,,,,,,,,,,,,,,,,,,,,,,,,1,2024-01-10_12h37.45.529,watkins1,2023.2.3,99.6952314690443,82,2024-01-10 12h37.53.195814 +0000,
,,,,,,,,,,,18,0,18,0,,,,,,,,,,,,,338.7127156998031,,,,,,,,,,338.709354700055,339.20631769998,,,3,1.2317784996703267,,,,,,,,,,,,None,None,,,,,,,,,,Tasche,robust,"['Tasche', 'robust']",restudy_diff,1,,,,,,338.7092908001505,338.7093301001005,"['Jacke', 'Ring', 'Fahrrad', 'Buch', 'Blume', 'Kiste', 'Eimer', 'Brille', 'Rucksack', 'Hammer', 'Geige', 'Schlüssel', 'Trommel', 'Würfel', 'Telefon', 'Kamera', 'Stift', 'Lampe', 'Tasche', 'Uhr', 'Bürste', 'Löffel', 'Socke']",339.2063286001794,339.20792039996013,None,339.20803810004145,339.20949140004814,None,339.20959590002894,345.21357759973034,3,1.2317784996703267,None,345.2138573001139,345.215200799983,345.21521280007437,345.21651110006496,,,,,,,,,,,,,,,,,,,,,,,,,,,,,,,,,,,,,,,,,,,,,,,,,,,1,2024-01-10_12h37.45.529,watkins1,2023.2.3,99.6952314690443,82,2024-01-10 12h37.53.195814 +0000,
,,,,,,,,,,,19,0,19,0,,,,,,,,,,,,,345.22307449998334,,,,,,,,,,345.21678429981694,345.7153059998527,,,[],[],,,,,,,,,,,,None,None,,,,,,,,,,Uhr,flach,"['Uhr', 'flach']",control,1,,,,,,345.2167193000205,345.21675750007853,"['Jacke', 'Ring', 'Fahrrad', 'Buch', 'Blume', 'Kiste', 'Eimer', 'Brille', 'Rucksack', 'Hammer', 'Geige', 'Schlüssel', 'Trommel', 'Würfel', 'Telefon', 'Kamera', 'Stift', 'Lampe', 'Tasche', 'Uhr', 'Bürste', 'Löffel', 'Socke']",345.71531690005213,351.7169225998223,1,351.71719630016014,351.7197019001469,None,351.7198109999299,351.7221508999355,None,,,351.7222547000274,351.7232734998688,351.7232848997228,351.72442970005795,2.7251083999872208,None,,,,,,,,,,,,,,,,,,,,,,,,,,,,,,,,,,,,,,,,,,,,,,,,,1,2024-01-10_12h37.45.529,watkins1,2023.2.3,99.6952314690443,82,2024-01-10 12h37.53.195814 +0000,
,,,,,,,,,,,20,0,20,0,,,,,,,,,,,,,351.72811829997227,,,,,,,,,,351.72469539986923,352.22070269985124,,,1,1.7052384996786714,,,,,,,,,,,,None,None,,,,,,,,,,Bürste,flauschig,"['Bürste', 'flauschig']",restudy_diff,1,,,,,,351.7246328997426,351.72467140015215,"['Jacke', 'Ring', 'Fahrrad', 'Buch', 'Blume', 'Kiste', 'Eimer', 'Brille', 'Rucksack', 'Hammer', 'Geige', 'Schlüssel', 'Trommel', 'Würfel', 'Telefon', 'Kamera', 'Stift', 'Lampe', 'Tasche', 'Uhr', 'Bürste', 'Löffel', 'Socke']",352.22071370016783,352.22232179995626,None,352.22244430007413,352.22389309993014,None,352.2239973000251,358.23263379978016,1,1.7052384996786714,None,358.2329099001363,358.2342932000756,358.23430480016395,358.2355495998636,,,,,,,,,,,,,,,,,,,,,,,,,,,,,,,,,,,,,,,,,,,,,,,,,,,1,2024-01-10_12h37.45.529,watkins1,2023.2.3,99.6952314690443,82,2024-01-10 12h37.53.195814 +0000,
,,,,,,,,,,,21,0,21,0,,,,,,,,,,,,,358.2421126998961,,,,,,,,,,358.2358142999001,358.73415909986943,,,[],[],,,,,,,,,,,,None,None,,,,,,,,,,Löffel,glänzend,"['Löffel', 'glänzend']",control,1,,,,,,358.2357512000017,358.23578860005364,"['Jacke', 'Ring', 'Fahrrad', 'Buch', 'Blume', 'Kiste', 'Eimer', 'Brille', 'Rucksack', 'Hammer', 'Geige', 'Schlüssel', 'Trommel', 'Würfel', 'Telefon', 'Kamera', 'Stift', 'Lampe', 'Tasche', 'Uhr', 'Bürste', 'Löffel', 'Socke']",358.73417019983754,364.7436776999384,3,364.74396219989285,364.74670760007575,None,364.74681679997593,364.74939259979874,None,,,364.7494978001341,364.7506761001423,364.7506878999993,364.75191049976274,0.8978439997881651,None,,,,,,,,,,,,,,,,,,,,,,,,,,,,,,,,,,,,,,,,,,,,,,,,,1,2024-01-10_12h37.45.529,watkins1,2023.2.3,99.6952314690443,82,2024-01-10 12h37.53.195814 +0000,
,,,,,,,,,,,22,0,22,0,,,,,,,,,,,,,364.75550170009956,,,,,,,,,,364.7521715997718,365.24863070016727,,,[],[],,,,,,,,,,,,None,None,,,,,,,,,,Socke,schmutzig,"['Socke', 'schmutzig']",control,1,,,,,,364.75211049988866,364.7521478999406,"['Jacke', 'Ring', 'Fahrrad', 'Buch', 'Blume', 'Kiste', 'Eimer', 'Brille', 'Rucksack', 'Hammer', 'Geige', 'Schlüssel', 'Trommel', 'Würfel', 'Telefon', 'Kamera', 'Stift', 'Lampe', 'Tasche', 'Uhr', 'Bürste', 'Löffel', 'Socke']",365.2486414001323,371.2579653998837,3,371.2582469000481,371.26105439988896,None,371.2611600998789,371.26374369999394,None,,,371.2638602000661,371.26502429973334,371.26503599993885,371.26626730011776,0.9683607001788914,None,,,,,,,,,,,,,,,,,,,,,,,,,,,,,,,,,,,,,,,,,,,,,,,,,1,2024-01-10_12h37.45.529,watkins1,2023.2.3,99.6952314690443,82,2024-01-10 12h37.53.195814 +0000,
,,,,,,,,,,,,,,,,,,,,,,,,,,,,,,,,,,,,,,,,,,,,,,,,,,,,,,,,,,,,,,,,,,,,,1,,,,,,,,,,,,,,,,,,,,,,,,,,,,,,,,,,,,,,,,,,,,,,,,,,,,,,,,,,,,,,,,,,,,,,,,,,1,2024-01-10_12h37.45.529,watkins1,2023.2.3,99.6952314690443,82,2024-01-10 12h37.53.195814 +0000,
(40 : 5) + 8 = 15 ,Incorrect,button_incorrect,,,,,,,,,,,,,0,0,0,7,,,,,,,,,385.35465240012854,,,,,,,,384.2999447998591,385.30386429978535,,,,,['button_incorrect'],[4.514110799878836],,,,,,,,,,,,,,,,,,,,,,,,,,distractorTask,1,,,,,,,,,,,,,,,,,,,,,,,,,,385.34328910009935,385.35465240012854,389.86259549995884,[-0.31296296296296294],[-0.39814814814814814],[1],[0],[0],[4.514110799878836],['button_incorrect'],389.8632815000601,390.86581900017336,,,,,,,,,,,,,,,,,,,,,,,,,,,,,,,,,,,,,1,2024-01-10_12h37.45.529,watkins1,2023.2.3,99.6952314690443,82,2024-01-10 12h37.53.195814 +0000,
(80 : 10) + 9 = 17 ,Correct,button_correct,,,,,,,,,,,,,0,1,1,3,,,,,,,,,390.87583239981905,,,,,,,,,,,,,,['button_correct'],[2.3368738000281155],,,,,,,,,,,,,,,,,,,,,,,,,,distractorTask,1,,,,,,,,,,,,,,,,,,,,,,,,,,390.86601690016687,390.87583239981905,393.20587179996073,[0.4083333333333333],[-0.4074074074074074],[1],[0],[0],[2.3368738000281155],['button_correct'],393.20625940011814,394.2096539000049,,,,,,,,,,,,,,,,,,,,,,,,,,,,,,,,,,,,,1,2024-01-10_12h37.45.529,watkins1,2023.2.3,99.6952314690443,82,2024-01-10 12h37.53.195814 +0000,
(2 x 5) + 3 = 13 ,Correct,button_correct,,,,,,,,,,,,,0,2,2,2,,,,,,,,,394.21972810011357,,,,,,,,,,,,,,['button_correct'],[1.975683799944818],,,,,,,,,,,,,,,,,,,,,,,,,,distractorTask,1,,,,,,,,,,,,,,,,,,,,,,,,,,394.2098513999954,394.21972810011357,396.1887146998197,[0.37037037037037035],[-0.38981481481481484],[1],[0],[0],[1.975683799944818],['button_correct'],396.1891068997793,397.19225740013644,,,,,,,,,,,,,,,,,,,,,,,,,,,,,,,,,,,,,1,2024-01-10_12h37.45.529,watkins1,2023.2.3,99.6952314690443,82,2024-01-10 12h37.53.195814 +0000,
(6 x 3) + 10 = 27 ,Incorrect,button_incorrect,,,,,,,,,,,,,0,3,3,8,,,,,,,,,397.2022508000955,,,,,,,,,,,,,,['button_incorrect'],[2.38782100006938],,,,,,,,,,,,,,,,,,,,,,,,,,distractorTask,1,,,,,,,,,,,,,,,,,,,,,,,,,,397.1924580000341,397.2022508000955,399.5825760997832,[-0.37037037037037035],[-0.3962962962962963],[1],[0],[0],[2.38782100006938],['button_incorrect'],399.5829708999954,400.5862706997432,,,,,,,,,,,,,,,,,,,,,,,,,,,,,,,,,,,,,1,2024-01-10_12h37.45.529,watkins1,2023.2.3,99.6952314690443,82,2024-01-10 12h37.53.195814 +0000,
(25 : 5) + 5 = 9 ,Incorrect,button_incorrect,,,,,,,,,,,,,0,4,4,6,,,,,,,,,400.5963118998334,,,,,,,,,,,,,,['button_incorrect'],[1.444690900389105],,,,,,,,,,,,,,,,,,,,,,,,,,distractorTask,1,,,,,,,,,,,,,,,,,,,,,,,,,,400.5864653000608,400.5963118998334,402.0328536997549,[-0.2851851851851852],[-0.38981481481481484],[1],[0],[0],[1.444690900389105],['button_incorrect'],402.03324780007824,403.03653919976205,,,,,,,,,,,,,,,,,,,,,,,,,,,,,,,,,,,,,1,2024-01-10_12h37.45.529,watkins1,2023.2.3,99.6952314690443,82,2024-01-10 12h37.53.195814 +0000,
(7 x 6) + 9 = 48 ,Incorrect,button_incorrect,,,,,,,,,,,,,0,5,5,9,,,,,,,,,403.0465235998854,,,,,,,,,,,,,,['button_incorrect'],[3.563593899831176],,,,,,,,,,,,,,,,,,,,,,,,,,distractorTask,1,,,,,,,,,,,,,,,,,,,,,,,,,,403.03673919988796,403.0465235998854,406.6020518997684,[-0.2962962962962963],[-0.4027777777777778],[1],[0],[0],[3.563593899831176],['button_incorrect'],406.6024390999228,407.6057374998927,,,,,,,,,,,,,,,,,,,,,,,,,,,,,,,,,,,,,1,2024-01-10_12h37.45.529,watkins1,2023.2.3,99.6952314690443,82,2024-01-10 12h37.53.195814 +0000,
(9 x 5) - 9 = 36 ,Correct,button_correct,,,,,,,,,,,,,0,6,6,4,,,,,,,,,407.61571760009974,,,,,,,,,,,,,,['button_correct'],"[3.7034053998067975, 4.2354958998039365]",,,,,,,,,,,,,,,,,,,,,,,,,,distractorTask,1,,,,,,,,,,,,,,,,,,,,,,,,,,407.60593169974163,407.61571760009974,411.8436581999995,"[0.42777777777777776, 0.40925925925925927]","[-0.40370370370370373, -0.4046296296296296]","[1, 1]","[0, 0]","[0, 0]","[3.7034053998067975, 4.2354958998039365]",['button_correct'],411.84406549995765,412.8475023000501,,,,,,,,,,,,,,,,,,,,,,,,,,,,,,,,,,,,,1,2024-01-10_12h37.45.529,watkins1,2023.2.3,99.6952314690443,82,2024-01-10 12h37.53.195814 +0000,
(54 : 6) - 10 = 0 ,Incorrect,button_incorrect,,,,,,,,,,,,,0,7,7,5,,,,,,,,,412.8574851001613,,,,,,,,,,,,,,['button_incorrect'],[4.738397799897939],,,,,,,,,,,,,,,,,,,,,,,,,,distractorTask,1,,,,,,,,,,,,,,,,,,,,,,,,,,412.8476979001425,412.8574851001613,417.5878134998493,[-0.32407407407407407],[-0.4083333333333333],[1],[0],[0],[4.738397799897939],['button_incorrect'],417.5882032001391,418.5913901999593,,,,,,,,,,,,,,,,,,,,,,,,,,,,,,,,,,,,,1,2024-01-10_12h37.45.529,watkins1,2023.2.3,99.6952314690443,82,2024-01-10 12h37.53.195814 +0000,
(4 : 2) + 4 = 6 ,Correct,button_correct,,,,,,,,,,,,,0,8,8,1,,,,,,,,,418.6013675997965,,,,,,,,,,,,,,['button_correct'],[2.388400100171566],,,,,,,,,,,,,,,,,,,,,,,,,,distractorTask,1,,,,,,,,,,,,,,,,,,,,,,,,,,418.5915859998204,418.6013675997965,420.98168839979917,[0.39814814814814814],[-0.37777777777777777],[1],[0],[0],[2.388400100171566],['button_correct'],420.98207250004634,421.98595919972286,,,,,,,,,,,,,,,,,,,,,,,,,,,,,,,,,,,,,1,2024-01-10_12h37.45.529,watkins1,2023.2.3,99.6952314690443,82,2024-01-10 12h37.53.195814 +0000,
(28 : 7) - 3 = 1 ,Correct,button_correct,,,,,,,,,,,,,0,9,9,0,,,,,,,,,421.99591149995103,,,,,,,,,,,,,,['button_correct'],[5.16998039977625],,,,,,,,,,,,,,,,,,,,,,,,,,distractorTask,1,,,,,,,,,,,,,,,,,,,,,,,,,,421.9861535001546,421.99591149995103,427.15785240009427,[0.3101851851851852],[-0.3824074074074074],[1],[0],[0],[5.16998039977625],['button_correct'],427.1582446000539,428.1617517997511,,,,,,,,,,,,,,,,,,,,,,,,,,,,,,,,,,,,,1,2024-01-10_12h37.45.529,watkins1,2023.2.3,99.6952314690443,82,2024-01-10 12h37.53.195814 +0000,
,,,,,,,,,,,,,,,,,,,,,,,,,,,,,,,,,,,,,,,,,,,,,,,,,,,,,,,,,,,,,,,,,,,,,1,,,,,,,,,,,,,,,,,,,,,,,,,,,,,,,,,,,,,,,,,,,,,,,,,,,,,,,,,,,,,,,,,,,,,,,,,,1,2024-01-10_12h37.45.529,watkins1,2023.2.3,99.6952314690443,82,2024-01-10 12h37.53.195814 +0000,
,,,,,,,,,,,,,,,,,,,0,0,0,0,,,,,436.22383969975635,,,,,,,,,,,,,,Uhr,4.421731300186366,,,,,,,,,,,,1.8472127001732588,None,,,,,,,,,,,,,freeRecallSub,1,,,,,,,,,,,,,,,,,,,,,,,,,,,,,,,,,,,,,,436.21516830008477,436.22383969975635,436.22383969975635,440.65262919990346,return,4.421731300186366,None,Uhr,[0.018518518518518517],[0.05555555555555555],[1],[0],[0],[1.0332594998180866],[],,,,,,,,,,,,,,,,,,,,,,1,2024-01-10_12h37.45.529,watkins1,2023.2.3,99.6952314690443,82,2024-01-10 12h37.53.195814 +0000,
,,,,,,,,,,,,,,,,,,,1,0,1,0,,,,,440.66441599978134,,,,,,,,,,,,,,Löffel,3.661153099965304,,,,,,,,,,,,2.1806554002687335,None,,,,,,,,,,,,,freeRecallSub,1,,,,,,,,,,,,,,,,,,,,,,,,,,,,,,,,,,,,,,440.6545031997375,440.66441599978134,440.66441599978134,444.3314927001484,return,3.661153099965304,None,Löffel,[],[],[],[],[],[],[],,,,,,,,,,,,,,,,,,,,,,1,2024-01-10_12h37.45.529,watkins1,2023.2.3,99.6952314690443,82,2024-01-10 12h37.53.195814 +0000,
,,,,,,,,,,,,,,,,,,,2,0,2,0,,,,,444.342206900008,,,,,,,,,,,,,,Blume,4.407368800137192,,,,,,,,,,,,0.7529690996743739,None,,,,,,,,,,,,,freeRecallSub,1,,,,,,,,,,,,,,,,,,,,,,,,,,,,,,,,,,,,,,444.33275499986485,444.342206900008,444.342206900008,448.7510919999331,return,4.407368800137192,None,Blume,[],[],[],[],[],[],[],,,,,,,,,,,,,,,,,,,,,,1,2024-01-10_12h37.45.529,watkins1,2023.2.3,99.6952314690443,82,2024-01-10 12h37.53.195814 +0000,
,,,,,,,,,,,,,,,,,,,3,0,3,0,,,,,448.76162160001695,,,,,,,,,,,,,,Kette,16.203871599864215,,,,,,,,,,,,15.003000800032169,None,,,,,,,,,,,,,freeRecallSub,1,,,,,,,,,,,,,,,,,,,,,,,,,,,,,,,,,,,,,,448.75235009985045,448.76162160001695,448.76162160001695,464.9705791999586,return,16.203871599864215,None,Kette,[],[],[],[],[],[],[],,,,,,,,,,,,,,,,,,,,,,1,2024-01-10_12h37.45.529,watkins1,2023.2.3,99.6952314690443,82,2024-01-10 12h37.53.195814 +0000,
,,,,,,,,,,,,,,,,,,,4,0,4,0,,,,,464.9813864999451,,,,,,,,,,,,,,Vase,5.224097300320864,,,,,,,,,,,,0.4921192000620067,None,,,,,,,,,,,,,freeRecallSub,1,,,,,,,,,,,,,,,,,,,,,,,,,,,,,,,,,,,,,,464.9718034998514,464.9813864999451,464.9813864999451,470.21375440014526,return,5.224097300320864,None,Vase,[],[],[],[],[],[],[],,,,,,,,,,,,,,,,,,,,,,1,2024-01-10_12h37.45.529,watkins1,2023.2.3,99.6952314690443,82,2024-01-10 12h37.53.195814 +0000,
,,,,,,,,,,,,,,,,,,,5,0,5,0,,,,,470.22494089975953,,,,,,,,,,,,,,Hut,2.35662280023098,,,,,,,,,,,,0.7338635995984077,None,,,,,,,,,,,,,freeRecallSub,1,,,,,,,,,,,,,,,,,,,,,,,,,,,,,,,,,,,,,,470.21500909980386,470.22494089975953,470.22494089975953,472.5856296001002,return,2.35662280023098,None,Hut,[],[],[],[],[],[],[],,,,,,,,,,,,,,,,,,,,,,1,2024-01-10_12h37.45.529,watkins1,2023.2.3,99.6952314690443,82,2024-01-10 12h37.53.195814 +0000,
,,,,,,,,,,,,,,,,,,,6,0,6,0,,,,,472.59670859994367,,,,,,,,,,,,,,Katze,13.808768399991095,,,,,,,,,,,,7.983704999554902,None,,,,,,,,,,,,,freeRecallSub,1,,,,,,,,,,,,,,,,,,,,,,,,,,,,,,,,,,,,,,472.586881400086,472.59670859994367,472.59670859994367,486.41463829996064,return,13.808768399991095,None,Katze,[],[],[],[],[],[],[],,,,,,,,,,,,,,,,,,,,,,1,2024-01-10_12h37.45.529,watkins1,2023.2.3,99.6952314690443,82,2024-01-10 12h37.53.195814 +0000,
,,,,,,,,,,,,,,,,,,,7,0,7,0,,,,,486.42585479980335,,,,,,,,,,,,,,Jacke,14.451654700096697,,,,,,,,,,,,1.5270676999352872,None,,,,,,,,,,,,,freeRecallSub,1,,,,,,,,,,,,,,,,,,,,,,,,,,,,,,,,,,,,,,486.4159236000851,486.42585479980335,486.42585479980335,500.8787539000623,return,14.451654700096697,None,Jacke,[],[],[],[],[],[],[],,,,,,,,,,,,,,,,,,,,,,1,2024-01-10_12h37.45.529,watkins1,2023.2.3,99.6952314690443,82,2024-01-10 12h37.53.195814 +0000,
,,,,,,,,,,,,,,,,,,,8,0,8,0,,,,,500.89076490001753,,,,,,,,,,,,,,Socke,0.9307467001490295,,,,,,,,,,,,0.09268679982051253,None,,,,,,,,,,,,,freeRecallSub,1,,,,,,,,,,,,,,,,,,,,,,,,,,,,,,,,,,,,,,500.8800409999676,500.89076490001753,500.89076490001753,501.8269151998684,return,0.9307467001490295,None,Socke,[],[],[],[],[],[],[],,,,,,,,,,,,,,,,,,,,,,1,2024-01-10_12h37.45.529,watkins1,2023.2.3,99.6952314690443,82,2024-01-10 12h37.53.195814 +0000,
,,,,,,,,,,,,,,,,,,,9,0,9,0,,,,,501.8389285998419,,,,,,,,,,,,,,Hund,7.574513700325042,,,,,,,,,,,,5.354650000110269,None,,,,,,,,,,,,,freeRecallSub,1,,,,,,,,,,,,,,,,,,,,,,,,,,,,,,,,,,,,,,501.8281938000582,501.8389285998419,501.8389285998419,509.42208899976686,return,7.574513700325042,None,Hund,[],[],[],[],[],[],[],,,,,,,,,,,,,,,,,,,,,,1,2024-01-10_12h37.45.529,watkins1,2023.2.3,99.6952314690443,82,2024-01-10 12h37.53.195814 +0000,
,,,,,,,,,,,,,,,,,,,10,0,10,0,,,,,509.4341636998579,,,,,,,,,,,,,,Kiste,29.60321220010519,,,,,,,,,,,,28.511692399624735,None,,,,,,,,,,,,,freeRecallSub,1,,,,,,,,,,,,,,,,,,,,,,,,,,,,,,,,,,,,,,509.42334860004485,509.4341636998579,509.4341636998579,539.0397092998028,return,29.60321220010519,None,Kiste,[],[],[],[],[],[],[],,,,,,,,,,,,,,,,,,,,,,1,2024-01-10_12h37.45.529,watkins1,2023.2.3,99.6952314690443,82,2024-01-10 12h37.53.195814 +0000,
,,,,,,,,,,,,,,,,,,,11,0,11,0,,,,,539.051734500099,,,,,,,,,,,,,,Eimer,22.705728300381452,,,,,,,,,,,,21.54203739995137,None,,,,,,,,,,,,,freeRecallSub,1,,,,,,,,,,,,,,,,,,,,,,,,,,,,,,,,,,,,,,539.0409746998921,539.051734500099,539.051734500099,561.7580785001628,return,22.705728300381452,None,Eimer,[],[],[],[],[],[],[],,,,,,,,,,,,,,,,,,,,,,1,2024-01-10_12h37.45.529,watkins1,2023.2.3,99.6952314690443,82,2024-01-10 12h37.53.195814 +0000,
,,,,,,,,,,,,,,,,,,,12,0,12,0,,,,,561.770493300166,,,,,,,,,,,,,,,[],,,,,,,,,,,,None,None,,,,,,,,,,,,,freeRecallSub,1,,,,,,,,,,,,,,,,,,,,,,,,,,,,,,,,,,,,,,561.7593231997453,561.770493300166,561.770493300166,594.0368316997774,None,,,,"[0.31666666666666665, 0.31666666666666665]","[-0.425, -0.4111111111111111]","[1, 1]","[0, 0]","[0, 0]","[31.901212299708277, 32.27252379991114]","['button_continue', 'continue_text']",,,,,,,,,,,,,,,,,,,,,,1,2024-01-10_12h37.45.529,watkins1,2023.2.3,99.6952314690443,82,2024-01-10 12h37.53.195814 +0000,
,,,,,,,,,,,,,,,,,,,,,,,,,,,,,,,,,,,,,,,,,,,,,,,,,,,,,,,,,,,,,,,,,,,,,1,,,,,,,,,,,,,,,,,,,,,,,,,,,,,,,,,,,,,,,,,,,,,,,,,,,,,,,,,,,,,,,,,,,,,,,,,,1,2024-01-10_12h37.45.529,watkins1,2023.2.3,99.6952314690443,82,2024-01-10 12h37.53.195814 +0000,
,,,,,,,,,,,,,,,,,,,,,,,0,0,0,0,606.0908542000689,,,,,,,,,,613.4663049997762,613.9647634997964,,,,7.370578399859369,,,,,,,,,,,,None,None,,,,,,,,,,Hut,,,cuedRecallAdj,1,,,,,,,,,,,,,,,,,,,,,,,,,,,,,,,,,,,,,,,,,,,,,,,,,,,,,606.0818652999587,606.0908542000689,0,606.0908542000689,613.4631372997537,neu,return,7.370578399859369,None,613.463533999864,613.4726257999428,613.4726257999428,613.4661551997997,,None,,,,,,,1,2024-01-10_12h37.45.529,watkins1,2023.2.3,99.6952314690443,82,2024-01-10 12h37.53.195814 +0000,
,,,,,,,,,,,,,,,,,,,,,,,1,0,1,0,613.9747509001754,,,,,,,,,,646.8660813998431,647.3647006000392,,,,32.88663400011137,,,,,,,,,,,,None,None,,,,,,,,,,Würfel,,,cuedRecallAdj,1,,,,,,,,,,,,,,,,,,,,,,,,,,,,,,,,,,,,,,,,,,,,,,,,,,,,,613.965008799918,613.9747509001754,0,613.9747509001754,646.8629222000018,klein,return,32.88663400011137,None,646.8631851999089,646.8725280999206,646.8725280999206,646.8659799997695,,None,,,,,,,1,2024-01-10_12h37.45.529,watkins1,2023.2.3,99.6952314690443,82,2024-01-10 12h37.53.195814 +0000,
,,,,,,,,,,,,,,,,,,,,,,,2,0,2,0,647.3746575997211,,,,,,,,,,661.8956738999113,662.3871166999452,,,alt,4.590616900008172,,,,,,,,,,,,9.157561299856752,None,,,,,,,,,,Kamera,,,cuedRecallAdj,1,,,,,,,,,,,,,,,,,,,,,,,,,,,,,,,,,,,,,,,,,,,,,,,,,,,,,647.3649788000621,647.3746575997211,0,647.3746575997211,651.9740169001743,elegant,return,4.590616900008172,None,651.97429500008,651.9836987997405,651.9836987997405,661.8953169998713,alt,return,9.901655500289053,None,,,,,1,2024-01-10_12h37.45.529,watkins1,2023.2.3,99.6952314690443,82,2024-01-10 12h37.53.195814 +0000,
,,,,,,,,,,,,,,,,,,,,,,,3,0,3,0,662.3970737000927,,,,,,,,,,692.1116412999108,692.6029873001389,,,alt,3.472318799700588,,,,,,,,,,,,25.605867499951273,None,,,,,,,,,,Ring,,,cuedRecallAdj,1,,,,,,,,,,,,,,,,,,,,,,,,,,,,,,,,,,,,,,,,,,,,,,,,,,,,,662.3873617998324,662.3970737000927,0,662.3970737000927,665.8718658001162,hübsch,return,3.472318799700588,None,665.8721253997646,665.8814197997563,665.8814197997563,692.1113706999458,alt,return,26.22791159991175,None,,,,,1,2024-01-10_12h37.45.529,watkins1,2023.2.3,99.6952314690443,82,2024-01-10 12h37.53.195814 +0000,
,,,,,,,,,,,,,,,,,,,,,,,4,0,4,0,692.6129494998604,,,,,,,,,,708.1581170000136,708.6494724000804,,,spitz,10.888437599875033,,,,,,,,,,,,3.3228943003341556,None,,,,,,,,,,Stift,,,cuedRecallAdj,1,,,,,,,,,,,,,,,,,,,,,,,,,,,,,,,,,,,,,,,,,,,,,,,,,,,,,692.6032281997614,692.6129494998604,0,692.6129494998604,703.5085614998825,dick,return,10.888437599875033,None,703.5088260001503,703.5181927001104,703.5181927001104,708.1578478999436,spitz,return,4.639151100069284,None,,,,,1,2024-01-10_12h37.45.529,watkins1,2023.2.3,99.6952314690443,82,2024-01-10 12h37.53.195814 +0000,
,,,,,,,,,,,,,,,,,,,,,,,5,0,5,0,708.6594277997501,,,,,,,,,,713.3826077999547,713.8813344999216,,,,4.7139800996519625,,,,,,,,,,,,None,None,,,,,,,,,,Schere,,,cuedRecallAdj,1,,,,,,,,,,,,,,,,,,,,,,,,,,,,,,,,,,,,,,,,,,,,,,,,,,,,,708.6497141001746,708.6594277997501,0,708.6594277997501,713.3793930001557,nass,return,4.7139800996519625,None,713.3796525001526,713.3889171001501,713.3889171001501,713.3825077000074,,None,,,,,,,1,2024-01-10_12h37.45.529,watkins1,2023.2.3,99.6952314690443,82,2024-01-10 12h37.53.195814 +0000,
,,,,,,,,,,,,,,,,,,,,,,,6,0,6,0,713.8913545999676,,,,,,,,,,720.8039322998375,721.3026358000934,,,,6.905967100057751,,,,,,,,,,,,None,None,,,,,,,,,,Blume,,,cuedRecallAdj,1,,,,,,,,,,,,,,,,,,,,,,,,,,,,,,,,,,,,,,,,,,,,,,,,,,,,,713.8815803001635,713.8913545999676,0,713.8913545999676,720.8010148997419,witzig,return,6.905967100057751,None,720.8012728998438,720.8105584001169,720.8105584001169,720.8038293998688,,None,,,,,,,1,2024-01-10_12h37.45.529,watkins1,2023.2.3,99.6952314690443,82,2024-01-10 12h37.53.195814 +0000,
,,,,,,,,,,,,,,,,,,,,,,,7,0,7,0,721.3126797000878,,,,,,,,,,763.0601699999534,763.5586121999659,,,,41.74060959974304,,,,,,,,,,,,None,None,,,,,,,,,,Kerze,,,cuedRecallAdj,1,,,,,,,,,,,,,,,,,,,,,,,,,,,,,,,,,,,,,,,,,,,,,,,,,,,,,721.302878299728,721.3126797000878,0,721.3126797000878,763.0570693998598,nachhaltig,return,41.74060959974304,None,763.0573387998156,763.0666661998257,763.0666661998257,763.0600628997199,,None,,,,,,,1,2024-01-10_12h37.45.529,watkins1,2023.2.3,99.6952314690443,82,2024-01-10 12h37.53.195814 +0000,
,,,,,,,,,,,,,,,,,,,,,,,8,0,8,0,763.5686634001322,,,,,,,,,,766.7449054997414,767.2439210000448,,,,3.164626399986446,,,,,,,,,,,,None,None,,,,,,,,,,Uhr,,,cuedRecallAdj,1,,,,,,,,,,,,,,,,,,,,,,,,,,,,,,,,,,,,,,,,,,,,,,,,,,,,,763.5588584998623,763.5686634001322,0,763.5686634001322,766.7421532999724,flach,return,3.164626399986446,None,766.7424115999602,766.7518576001748,766.7518576001748,766.7448053001426,,None,,,,,,,1,2024-01-10_12h37.45.529,watkins1,2023.2.3,99.6952314690443,82,2024-01-10 12h37.53.195814 +0000,
,,,,,,,,,,,,,,,,,,,,,,,9,0,9,0,767.253947999794,,,,,,,,,,774.6581238997169,775.1568450001068,,,,7.399349300190806,,,,,,,,,,,,None,None,,,,,,,,,,Tasse,,,cuedRecallAdj,1,,,,,,,,,,,,,,,,,,,,,,,,,,,,,,,,,,,,,,,,,,,,,,,,,,,,,767.2441658000462,767.253947999794,0,767.253947999794,774.6551585998386,glatt,return,7.399349300190806,None,774.6554231997579,774.6647326997481,774.6647326997481,774.6580146998167,,None,,,,,,,1,2024-01-10_12h37.45.529,watkins1,2023.2.3,99.6952314690443,82,2024-01-10 12h37.53.195814 +0000,
,,,,,,,,,,,,,,,,,,,,,,,10,0,10,0,775.166793699842,,,,,,,,,,783.203600499779,783.7023547999561,,,,8.030431000050157,,,,,,,,,,,,None,None,,,,,,,,,,Socke,,,cuedRecallAdj,1,,,,,,,,,,,,,,,,,,,,,,,,,,,,,,,,,,,,,,,,,,,,,,,,,,,,,775.1570887998678,775.166793699842,0,775.166793699842,783.2005726001225,schmutzig,return,8.030431000050157,None,783.200831499882,783.2102143000811,783.2102143000811,783.2035018000752,,None,,,,,,,1,2024-01-10_12h37.45.529,watkins1,2023.2.3,99.6952314690443,82,2024-01-10 12h37.53.195814 +0000,
,,,,,,,,,,,,,,,,,,,,,,,11,0,11,0,783.7123012999073,,,,,,,,,,797.1022895998321,797.6007932000794,,,,13.38085009995848,,,,,,,,,,,,None,None,,,,,,,,,,Löffel,,,cuedRecallAdj,1,,,,,,,,,,,,,,,,,,,,,,,,,,,,,,,,,,,,,,,,,,,,,,,,,,,,,783.7025909000076,783.7123012999073,0,783.7123012999073,797.0990423001349,spitz,return,13.38085009995848,None,797.0993340997957,797.1086443001404,797.1086443001404,797.1021897001192,,None,,,,,,,1,2024-01-10_12h37.45.529,watkins1,2023.2.3,99.6952314690443,82,2024-01-10 12h37.53.195814 +0000,
,,,,,,,,,,,,,,,,,,,,,,,12,0,12,0,797.6106973001733,,,,,,,,,,821.7029510000721,822.1943280999549,,,eckig,3.658708400093019,,,,,,,,,,,,19.32078059995547,None,,,,,,,,,,Brille,,,cuedRecallAdj,1,,,,,,,,,,,,,,,,,,,,,,,,,,,,,,,,,,,,,,,,,,,,,,,,,,,,,797.6010348000564,797.6106973001733,0,797.6106973001733,801.2765554999933,groß,return,3.658708400093019,None,801.2768246000633,801.2862562998198,801.2862562998198,821.7026828001253,eckig,return,20.41492410004139,None,,,,,1,2024-01-10_12h37.45.529,watkins1,2023.2.3,99.6952314690443,82,2024-01-10 12h37.53.195814 +0000,
,,,,,,,,,,,,,,,,,,,,,,,13,0,13,0,822.204272300005,,,,,,,,,,834.084462299943,834.5757510997355,,,glatt,6.728933800011873,,,,,,,,,,,,4.246952600311488,None,,,,,,,,,,Eimer,,,cuedRecallAdj,1,,,,,,,,,,,,,,,,,,,,,,,,,,,,,,,,,,,,,,,,,,,,,,,,,,,,,822.1945778997615,822.204272300005,0,822.204272300005,828.9427998997271,biegsam,return,6.728933800011873,None,828.9430668000132,828.9525684998371,828.9525684998371,834.0841959998943,glatt,return,5.124669899698347,None,,,,,1,2024-01-10_12h37.45.529,watkins1,2023.2.3,99.6952314690443,82,2024-01-10 12h37.53.195814 +0000,
,,,,,,,,,,,,,,,,,,,,,,,14,0,14,0,834.58566540014,,,,,,,,,,862.5236741001718,863.0150589998811,,,alt,16.939564500004053,,,,,,,,,,,,10.543109300080687,None,,,,,,,,,,Jacke,,,cuedRecallAdj,1,,,,,,,,,,,,,,,,,,,,,,,,,,,,,,,,,,,,,,,,,,,,,,,,,,,,,834.5759960999712,834.58566540014,0,834.58566540014,851.527418400161,lang,return,16.939564500004053,None,851.5276913000271,851.5370382997207,851.5370382997207,862.523407000117,alt,return,10.980180500075221,None,,,,,1,2024-01-10_12h37.45.529,watkins1,2023.2.3,99.6952314690443,82,2024-01-10 12h37.53.195814 +0000,
,,,,,,,,,,,,,,,,,,,,,,,15,0,15,0,863.0250086998567,,,,,,,,,,866.5733929001726,867.0716753001325,,,,3.5401240000501275,,,,,,,,,,,,None,None,,,,,,,,,,Buch,,,cuedRecallAdj,1,,,,,,,,,,,,,,,,,,,,,,,,,,,,,,,,,,,,,,,,,,,,,,,,,,,,,863.0153071000241,863.0250086998567,0,863.0250086998567,866.570101799909,leuchtend,return,3.5401240000501275,None,866.5703598000109,866.5796515997499,866.5796515997499,866.5732942000031,,None,,,,,,,1,2024-01-10_12h37.45.529,watkins1,2023.2.3,99.6952314690443,82,2024-01-10 12h37.53.195814 +0000,
,,,,,,,,,,,,,,,,,,,,,,,16,0,16,0,867.0815758998506,,,,,,,,,,875.2165445000865,875.7079301998019,,,groß,2.4835461997427046,,,,,,,,,,,,4.79936879966408,None,,,,,,,,,,Rucksack,,,cuedRecallAdj,1,,,,,,,,,,,,,,,,,,,,,,,,,,,,,,,,,,,,,,,,,,,,,,,,,,,,,867.0719216000289,867.0815758998506,0,867.0815758998506,869.5726755997166,klobig,return,2.4835461997427046,None,869.5729433000088,869.5823968998156,869.5823968998156,875.216280200053,groß,return,5.630795200355351,None,,,,,1,2024-01-10_12h37.45.529,watkins1,2023.2.3,99.6952314690443,82,2024-01-10 12h37.53.195814 +0000,
,,,,,,,,,,,,,,,,,,,,,,,17,0,17,0,875.7178760999814,,,,,,,,,,879.735087600071,880.226619000081,,,laut,1.6872498001903296,,,,,,,,,,,,1.7665423001162708,None,,,,,,,,,,Trommel,,,cuedRecallAdj,1,,,,,,,,,,,,,,,,,,,,,,,,,,,,,,,,,,,,,,,,,,,,,,,,,,,,,875.708168500103,875.7178760999814,0,875.7178760999814,877.4151654001325,hohl,return,1.6872498001903296,None,877.415433799848,877.4249040000141,877.4249040000141,879.7348186997697,laut,return,2.3002924998290837,None,,,,,1,2024-01-10_12h37.45.529,watkins1,2023.2.3,99.6952314690443,82,2024-01-10 12h37.53.195814 +0000,
,,,,,,,,,,,,,,,,,,,,,,,18,0,18,0,880.2365258997306,,,,,,,,,,888.4346154001541,888.9329218999483,,,,8.192683400120586,,,,,,,,,,,,None,None,,,,,,,,,,Lampe,,,cuedRecallAdj,1,,,,,,,,,,,,,,,,,,,,,,,,,,,,,,,,,,,,,,,,,,,,,,,,,,,,,880.2268642000854,880.2365258997306,0,880.2365258997306,888.4312362000346,glatt,return,8.192683400120586,None,888.4314967999235,888.4407850997522,888.4407850997522,888.4345169998705,,None,,,,,,,1,2024-01-10_12h37.45.529,watkins1,2023.2.3,99.6952314690443,82,2024-01-10 12h37.53.195814 +0000,
,,,,,,,,,,,,,,,,,,,,,,,19,0,19,0,888.9428667998873,,,,,,,,,,897.4794979998842,897.9709799997509,,,alt,4.670328799635172,,,,,,,,,,,,3.021689399611205,None,,,,,,,,,,Fahrrad,,,cuedRecallAdj,1,,,,,,,,,,,,,,,,,,,,,,,,,,,,,,,,,,,,,,,,,,,,,,,,,,,,,888.9331682999618,888.9428667998873,0,888.9428667998873,893.6232113000005,durchsichtig,return,4.670328799635172,None,893.6234761998057,893.6328794998117,893.6328794998117,897.4792296001688,alt,return,3.836226699873805,None,,,,,1,2024-01-10_12h37.45.529,watkins1,2023.2.3,99.6952314690443,82,2024-01-10 12h37.53.195814 +0000,
,,,,,,,,,,,,,,,,,,,,,,,20,0,20,0,897.98094030004,,,,,,,,,,901.1779684000649,901.6765251997858,,,,3.1922452999278903,,,,,,,,,,,,None,None,,,,,,,,,,Vase,,,cuedRecallAdj,1,,,,,,,,,,,,,,,,,,,,,,,,,,,,,,,,,,,,,,,,,,,,,,,,,,,,,897.9712256998755,897.98094030004,0,897.98094030004,901.1747816000134,kratzig,return,3.1922452999278903,None,901.1750483000651,901.1843710001558,901.1843710001558,901.1778665999882,,None,,,,,,,1,2024-01-10_12h37.45.529,watkins1,2023.2.3,99.6952314690443,82,2024-01-10 12h37.53.195814 +0000,
,,,,,,,,,,,,,,,,,,,,,,,21,0,21,0,901.6864750999957,,,,,,,,,,908.0968240001239,908.5952419000678,,,,6.4067043997347355,,,,,,,,,,,,None,None,,,,,,,,,,Kette,,,cuedRecallAdj,1,,,,,,,,,,,,,,,,,,,,,,,,,,,,,,,,,,,,,,,,,,,,,,,,,,,,,901.6767714000307,901.6864750999957,0,901.6864750999957,908.0937059000134,gestreift,return,6.4067043997347355,None,908.0939877000637,908.1032475000247,908.1032475000247,908.0967211001553,,None,,,,,,,1,2024-01-10_12h37.45.529,watkins1,2023.2.3,99.6952314690443,82,2024-01-10 12h37.53.195814 +0000,
,,,,,,,,,,,,,,,,,,,,,,,22,0,22,0,908.605162799824,,,,,,,,,,919.5126423998736,920.0039682001807,,,glatt,3.4881200999952853,,,,,,,,,,,,5.704124600160867,None,,,,,,,,,,Kiste,,,cuedRecallAdj,1,,,,,,,,,,,,,,,,,,,,,,,,,,,,,,,,,,,,,,,,,,,,,,,,,,,,,908.5954875000753,908.605162799824,0,908.605162799824,912.1004296001047,lang,return,3.4881200999952853,None,912.100694600027,912.1099931001663,912.1099931001663,919.5123549997807,glatt,return,7.399228499736637,None,,,,,1,2024-01-10_12h37.45.529,watkins1,2023.2.3,99.6952314690443,82,2024-01-10 12h37.53.195814 +0000,
,,,,,,,,,,,,,,,,,,,,,,,23,0,23,0,920.0139192999341,,,,,,,,,,932.9787448998541,933.4700675001368,,,bunt,10.567142100073397,,,,,,,,,,,,0.9935363996773958,None,,,,,,,,,,Tasche,,,cuedRecallAdj,1,,,,,,,,,,,,,,,,,,,,,,,,,,,,,,,,,,,,,,,,,,,,,,,,,,,,,920.0042153000832,920.0139192999341,0,920.0139192999341,930.5884231999516,tief,return,10.567142100073397,None,930.588686299976,930.59814620018,930.59814620018,932.9784781998023,bunt,return,2.3749213996343315,None,,,,,1,2024-01-10_12h37.45.529,watkins1,2023.2.3,99.6952314690443,82,2024-01-10 12h37.53.195814 +0000,
,,,,,,,,,,,,,,,,,,,,,,,24,0,24,0,933.4799732998945,,,,,,,,,,958.0536587000825,958.5451616998762,,,klein,11.205112500116229,,,,,,,,,,,,11.266453300137073,12.381389799993485,,,,,,,,,,Schlüssel,,,cuedRecallAdj,1,,,,,,,,,,,,,,,,,,,,,,,,,,,,,,,,,,,,,,,,,,,,,,,,,,,,,933.4703127997927,933.4799732998945,0,933.4799732998945,944.687452299986,schmal,return,11.205112500116229,None,944.6877215001732,944.6970051000826,944.6970051000826,958.0533906999044,klein,return,13.348140199668705,None,,,,,1,2024-01-10_12h37.45.529,watkins1,2023.2.3,99.6952314690443,82,2024-01-10 12h37.53.195814 +0000,
,,,,,,,,,,,,,,,,,,,,,,,25,0,25,0,958.5552146001719,,,,,,,,,,963.1379955001175,963.6364929997362,,,,4.569921599701047,,,,,,,,,,,,None,None,,,,,,,,,,Hammer,,,cuedRecallAdj,1,,,,,,,,,,,,,,,,,,,,,,,,,,,,,,,,,,,,,,,,,,,,,,,,,,,,,958.5454055001028,958.5552146001719,0,958.5552146001719,963.1347558000125,laut,return,4.569921599701047,None,963.1350932000205,963.1445329999551,963.1445329999551,963.1378907999024,,None,,,,,,,1,2024-01-10_12h37.45.529,watkins1,2023.2.3,99.6952314690443,82,2024-01-10 12h37.53.195814 +0000,
,,,,,,,,,,,,,,,,,,,,,,,26,0,26,0,963.6465444001369,,,,,,,,,,990.5904276999645,991.0817430000752,,,laut,23.07052020030096,,,,,,,,,,,,3.3128069997765124,None,,,,,,,,,,Geige,,,cuedRecallAdj,1,,,,,,,,,,,,,,,,,,,,,,,,,,,,,,,,,,,,,,,,,,,,,,,,,,,,,963.6367338001728,963.6465444001369,0,963.6465444001369,986.7239999999292,alt,return,23.07052020030096,None,986.724266699981,986.7335415999405,986.7335415999405,990.5901627000421,laut,return,3.855572400148958,None,,,,,1,2024-01-10_12h37.45.529,watkins1,2023.2.3,99.6952314690443,82,2024-01-10 12h37.53.195814 +0000,
,,,,,,,,,,,,,,,,,,,,,,,27,0,27,0,991.091755699832,,,,,,,,,,1001.375368299894,1001.8666739999317,,,tief,4.089367300271988,,,,,,,,,,,,5.010307800024748,None,,,,,,,,,,Telefon,,,cuedRecallAdj,1,,,,,,,,,,,,,,,,,,,,,,,,,,,,,,,,,,,,,,,,,,,,,,,,,,,,,991.0819874000736,991.091755699832,0,991.091755699832,995.1892128000036,dunkel,return,4.089367300271988,None,995.1894743000157,995.1989000998437,995.1989000998437,1001.3750833999366,tief,return,6.17421289999038,None,,,,,1,2024-01-10_12h37.45.529,watkins1,2023.2.3,99.6952314690443,82,2024-01-10 12h37.53.195814 +0000,
,,,,,,,,,,,,,,,,,,,,,,,28,0,28,0,1001.8765746001154,,,,,,,,,,1005.1240723999217,1005.6223323000595,,,,3.2405015998519957,,,,,,,,,,,,None,None,,,,,,,,,,Flasche,,,cuedRecallAdj,1,,,,,,,,,,,,,,,,,,,,,,,,,,,,,,,,,,,,,,,,,,,,,,,,,,,,,1001.8669171999209,1001.8765746001154,0,1001.8765746001154,1005.1207273001783,voll,return,3.2405015998519957,None,1005.1210113000125,1005.1302856998518,1005.1302856998518,1005.1239673998207,,None,,,,,,,1,2024-01-10_12h37.45.529,watkins1,2023.2.3,99.6952314690443,82,2024-01-10 12h37.53.195814 +0000,
,,,,,,,,,,,,,,,,,,,,,,,29,0,29,0,1005.6323337000795,,,,,,,,,,1023.9496713001281,1024.4411772000603,,,kratzig,3.700776499696076,,,,,,,,,,,,12.411362399812788,None,,,,,,,,,,Bürste,,,cuedRecallAdj,1,,,,,,,,,,,,,,,,,,,,,,,,,,,,,,,,,,,,,,,,,,,,,,,,,,,,,1005.6225700997747,1005.6323337000795,0,1005.6323337000795,1009.3383609000593,schwer,return,3.700776499696076,None,1009.3386176000349,1009.3479035999626,1009.3479035999626,1023.9494047998451,kratzig,return,14.59317889995873,None,,,,,1,2024-01-10_12h37.45.529,watkins1,2023.2.3,99.6952314690443,82,2024-01-10 12h37.53.195814 +0000,
,,,,,,,,,,,,,,,,,,,,,,,,,,,,,,,,,,,,,,,,,,,,,,,,,,,,,,,,,,,,,,,,,,,,,1,,,,,,,,,,,,,,,,,,,,,,,,,,,,,,,,,,,,,,,,,,,,,,,,,,,,,,,,,,,,,,,,,,,,,,1024.4581022001803,q,2672.208941800054,None,1,2024-01-10_12h37.45.529,watkins1,2023.2.3,99.6952314690443,82,2024-01-10 12h37.53.195814 +0000,
