Equation,CorrectResponse,Correctbutton,trials_7.thisRepN,trials_7.thisTrialN,trials_7.thisN,trials_7.thisIndex,trials.thisRepN,trials.thisTrialN,trials.thisN,trials.thisIndex,trials_3.thisRepN,trials_3.thisTrialN,trials_3.thisN,trials_3.thisIndex,trials_2.thisRepN,trials_2.thisTrialN,trials_2.thisN,trials_2.thisIndex,trials_4.thisRepN,trials_4.thisTrialN,trials_4.thisN,trials_4.thisIndex,trials_5.thisRepN,trials_5.thisTrialN,trials_5.thisN,trials_5.thisIndex,thisRow.t,notes,code_marius.started,code_marius.stopped,welcome.started,welcome.stopped,instruction_study.started,instruction_study.stopped,fixationcross.started,fixationcross.stopped,blanc.started,blanc.stopped,study_control_probe.started,study_control_probe.stopped,responseKey,responseTime,scale_answer_2.keys,study_control_probe_2.started,study_control_probe_2.stopped,scale_answer_3.keys,scale_answer_3.rt,scale_answer_3.duration,blanc_2.started,blanc_2.stopped,test_attr_probe.started,test_attr_probe.stopped,recalled_attr,firstKeyTime,secondWordTime,blanc_3.started,blanc_3.stopped,test_sub_probe.started,test_sub_probe.stopped,recalled_sub,instruction_probe_end.started,instruction_probe_end.stopped,study.started,study.stopped,substantive,adjective,wordpair,task,condition,liste_sub_phase1,liste_adj_phase1,scale_answer.keys,scale_answer.rt,scale_answer.duration,code_defineWordsInit.started,code_defineWordsInit.stopped,liste_sub_phase2,study_control.started,study_control.stopped,scale_answer_4.keys,restudy_same.started,restudy_same.stopped,scale_answer_5.keys,scale_answer_5.rt,scale_answer_5.duration,restudy_different.started,restudy_different.stopped,scale_answer_6.keys,test_attr.started,test_attr.stopped,test_sub.started,test_sub.stopped,correct,distractortask.started,equation_text.started,distractortask.stopped,mouse_answer.x,mouse_answer.y,mouse_answer.leftButton,mouse_answer.midButton,mouse_answer.rightButton,mouse_answer.time,mouse_answer.clicked_name,feedback_distractortask.started,feedback_distractortask.stopped,free_recall.started,text_enter.started,key_resp.started,free_recall.stopped,key_resp.keys,key_resp.rt,key_resp.duration,free_recalled_sub,mouse_continue.x,mouse_continue.y,mouse_continue.leftButton,mouse_continue.midButton,mouse_continue.rightButton,mouse_continue.time,mouse_continue.clicked_name,cued_recall.started,text_enter_2.started,key_continue.started,cued_recall.stopped,recalled_attr1,key_continue.keys,key_continue.rt,key_continue.duration,cued_recall_2.started,text_enter_3.started,key_continue_2.started,cued_recall_2.stopped,recalled_attr2,key_continue_2.keys,key_resp_8.started,key_resp_8.keys,key_resp_8.rt,key_resp_8.duration,condition,date,expName,psychopyVersion,frameRate,participant,expStart,
,,,,,,,,,,,,,,,,,,,,,,,,,,,,,0.12088680034503341,0.12095519993454218,0.12096340022981167,5.81848550029099,,,,,,,,,,,,,,,,,,,,,,,,,,,,,,,,,,,,,3,,,,,,,,,,,,,,,,,,,,,,,,,,,,,,,,,,,,,,,,,,,,,,,,,,,,,,,,,,,,,,,,,,,,,,3,2024-01-09_10h43.26.831,watkins1,2023.2.3,99.76236623175906,77,2024-01-09 10h43.34.511997 +0000,
,,,,,,,,,,,,,,,,,,,,,,,,,,,,,,,,,5.8185336999595165,25.65127390017733,,,,,,,,,,,,,,,,,,,,,,,,,,,,,,,,,,,3,,,,,,,,,,,,,,,,,,,,,,,,,,,,,,,,,,,,,,,,,,,,,,,,,,,,,,,,,,,,,,,,,,,,,,3,2024-01-09_10h43.26.831,watkins1,2023.2.3,99.76236623175906,77,2024-01-09 10h43.34.511997 +0000,
,,,0,0,0,0,,,,,,,,,,,,,,,,,,,,,26.665041600354016,,,,,,,,25.651289999950677,26.65509370015934,33.15321939997375,33.64446120010689,27.14707210008055,33.15305110020563,2,4.265517100226134,None,33.64447160018608,39.64584550028667,2,4.265517100226134,None,39.64613630017266,40.137358400039375,40.13736920012161,46.141563900280744,ve,None,None,46.1417904002592,46.141814100090414,46.141821400262415,46.1419045003131,,,,,,,,,,3,,,,,,,,,,,,,,,,,,,,,,,,,,,,,,,,,,,,,,,,,,,,,,,,,,,,,,,,,,,,,,,,,,,,,,3,2024-01-09_10h43.26.831,watkins1,2023.2.3,99.76236623175906,77,2024-01-09 10h43.34.511997 +0000,
,,,,,,,,,,,,,,,,,,,,,,,,,,,,,,,,,,,,,,,,,,,,,,,,,,,,,,,,,,,,,46.142027700319886,53.25313260033727,,,,,,,3,,,,,,,,,,,,,,,,,,,,,,,,,,,,,,,,,,,,,,,,,,,,,,,,,,,,,,,,,,,,,,,,,,,,,,3,2024-01-09_10h43.26.831,watkins1,2023.2.3,99.76236623175906,77,2024-01-09 10h43.34.511997 +0000,
,,,,,,,0,0,0,0,,,,,,,,,,,,,,,,,54.26649000030011,,,,,,,,53.25314939999953,54.25654949992895,54.25701430020854,54.7485178001225,,,2,3.3252183999866247,,,,,,,,,,,,,,,,,,,,,54.74852850008756,60.752635000273585,Kamera,kurz,"['Kamera', 'kurz']",test_adj,3,"['Kamera', 'Ring', 'Kette', 'Fahrrad', 'Bürste', 'Vase', 'Socke', 'Schere', 'Trommel', 'Buch', 'Tasche', 'Jacke', 'Hammer', 'Uhr', 'Löffel', 'Telefon', 'Stift', 'Kerze', 'Brille', 'Geige', 'Blume', 'Rucksack', 'Würfel', 'Tasse', 'Eimer', 'Flasche', 'Lampe', 'Kiste', 'Hut', 'Schlüssel']",['kurz'],2,3.3252183999866247,None,,,,,,,,,,,,,,,,,,,,,,,,,,,,,,,,,,,,,,,,,,,,,,,,,,,,,,,,,,,,,,,,,3,2024-01-09_10h43.26.831,watkins1,2023.2.3,99.76236623175906,77,2024-01-09 10h43.34.511997 +0000,
,,,,,,,1,0,1,0,,,,,,,,,,,,,,,,,60.76206459989771,,,,,,,,,,60.75328329997137,61.24404489994049,,,3,4.503137600142509,,,,,,,,,,,,,,,,,,,,,61.24405470024794,67.25018440000713,Ring,glatt,"['Ring', 'glatt']",test_adj,3,"['Kamera', 'Ring', 'Kette', 'Fahrrad', 'Bürste', 'Vase', 'Socke', 'Schere', 'Trommel', 'Buch', 'Tasche', 'Jacke', 'Hammer', 'Uhr', 'Löffel', 'Telefon', 'Stift', 'Kerze', 'Brille', 'Geige', 'Blume', 'Rucksack', 'Würfel', 'Tasse', 'Eimer', 'Flasche', 'Lampe', 'Kiste', 'Hut', 'Schlüssel']","['kurz', 'glatt']",3,4.503137600142509,None,,,,,,,,,,,,,,,,,,,,,,,,,,,,,,,,,,,,,,,,,,,,,,,,,,,,,,,,,,,,,,,,,3,2024-01-09_10h43.26.831,watkins1,2023.2.3,99.76236623175906,77,2024-01-09 10h43.34.511997 +0000,
,,,,,,,2,0,2,0,,,,,,,,,,,,,,,,,67.25962130026892,,,,,,,,,,67.25069850031286,67.74167590029538,,,2,4.6381132998503745,,,,,,,,,,,,,,,,,,,,,67.74168620025739,73.74259519996122,Kette,breit,"['Kette', 'breit']",restudy,3,"['Kamera', 'Ring', 'Kette', 'Fahrrad', 'Bürste', 'Vase', 'Socke', 'Schere', 'Trommel', 'Buch', 'Tasche', 'Jacke', 'Hammer', 'Uhr', 'Löffel', 'Telefon', 'Stift', 'Kerze', 'Brille', 'Geige', 'Blume', 'Rucksack', 'Würfel', 'Tasse', 'Eimer', 'Flasche', 'Lampe', 'Kiste', 'Hut', 'Schlüssel']","['kurz', 'glatt', 'breit']",2,4.6381132998503745,None,,,,,,,,,,,,,,,,,,,,,,,,,,,,,,,,,,,,,,,,,,,,,,,,,,,,,,,,,,,,,,,,,3,2024-01-09_10h43.26.831,watkins1,2023.2.3,99.76236623175906,77,2024-01-09 10h43.34.511997 +0000,
,,,,,,,3,0,3,0,,,,,,,,,,,,,,,,,73.75203630002216,,,,,,,,,,73.74312169989571,74.23427430028096,,,1,1.7132560997270048,,,,,,,,,,,,,,,,,,,,,74.23428429989144,80.23499449994415,Fahrrad,niedlich,"['Fahrrad', 'niedlich']",test_adj,3,"['Kamera', 'Ring', 'Kette', 'Fahrrad', 'Bürste', 'Vase', 'Socke', 'Schere', 'Trommel', 'Buch', 'Tasche', 'Jacke', 'Hammer', 'Uhr', 'Löffel', 'Telefon', 'Stift', 'Kerze', 'Brille', 'Geige', 'Blume', 'Rucksack', 'Würfel', 'Tasse', 'Eimer', 'Flasche', 'Lampe', 'Kiste', 'Hut', 'Schlüssel']","['kurz', 'glatt', 'breit', 'niedlich']",1,1.7132560997270048,None,,,,,,,,,,,,,,,,,,,,,,,,,,,,,,,,,,,,,,,,,,,,,,,,,,,,,,,,,,,,,,,,,3,2024-01-09_10h43.26.831,watkins1,2023.2.3,99.76236623175906,77,2024-01-09 10h43.34.511997 +0000,
,,,,,,,4,0,4,0,,,,,,,,,,,,,,,,,80.24438600009307,,,,,,,,,,80.23552440013736,80.72620970010757,,,2,3.1001599999144673,,,,,,,,,,,,,,,,,,,,,80.72622160008177,86.72788760019466,Bürste,groß,"['Bürste', 'groß']",test_adj,3,"['Kamera', 'Ring', 'Kette', 'Fahrrad', 'Bürste', 'Vase', 'Socke', 'Schere', 'Trommel', 'Buch', 'Tasche', 'Jacke', 'Hammer', 'Uhr', 'Löffel', 'Telefon', 'Stift', 'Kerze', 'Brille', 'Geige', 'Blume', 'Rucksack', 'Würfel', 'Tasse', 'Eimer', 'Flasche', 'Lampe', 'Kiste', 'Hut', 'Schlüssel']","['kurz', 'glatt', 'breit', 'niedlich', 'groß']",2,3.1001599999144673,None,,,,,,,,,,,,,,,,,,,,,,,,,,,,,,,,,,,,,,,,,,,,,,,,,,,,,,,,,,,,,,,,,3,2024-01-09_10h43.26.831,watkins1,2023.2.3,99.76236623175906,77,2024-01-09 10h43.34.511997 +0000,
,,,,,,,5,0,5,0,,,,,,,,,,,,,,,,,86.73732790024951,,,,,,,,,,86.72841709991917,87.2193379001692,,,1,4.744561800267547,,,,,,,,,,,,,,,,,,,,,87.21934790024534,93.220882399939,Vase,nachhaltig,"['Vase', 'nachhaltig']",restudy,3,"['Kamera', 'Ring', 'Kette', 'Fahrrad', 'Bürste', 'Vase', 'Socke', 'Schere', 'Trommel', 'Buch', 'Tasche', 'Jacke', 'Hammer', 'Uhr', 'Löffel', 'Telefon', 'Stift', 'Kerze', 'Brille', 'Geige', 'Blume', 'Rucksack', 'Würfel', 'Tasse', 'Eimer', 'Flasche', 'Lampe', 'Kiste', 'Hut', 'Schlüssel']","['kurz', 'glatt', 'breit', 'niedlich', 'groß', 'nachhaltig']",1,4.744561800267547,None,,,,,,,,,,,,,,,,,,,,,,,,,,,,,,,,,,,,,,,,,,,,,,,,,,,,,,,,,,,,,,,,,3,2024-01-09_10h43.26.831,watkins1,2023.2.3,99.76236623175906,77,2024-01-09 10h43.34.511997 +0000,
,,,,,,,6,0,6,0,,,,,,,,,,,,,,,,,93.2303245998919,,,,,,,,,,93.22141740005463,93.71244159992784,,,2,3.7071183999069035,,,,,,,,,,,,,,,,,,,,,93.7124522998929,99.71559830009937,Socke,winzig,"['Socke', 'winzig']",restudy,3,"['Kamera', 'Ring', 'Kette', 'Fahrrad', 'Bürste', 'Vase', 'Socke', 'Schere', 'Trommel', 'Buch', 'Tasche', 'Jacke', 'Hammer', 'Uhr', 'Löffel', 'Telefon', 'Stift', 'Kerze', 'Brille', 'Geige', 'Blume', 'Rucksack', 'Würfel', 'Tasse', 'Eimer', 'Flasche', 'Lampe', 'Kiste', 'Hut', 'Schlüssel']","['kurz', 'glatt', 'breit', 'niedlich', 'groß', 'nachhaltig', 'winzig']",2,3.7071183999069035,None,,,,,,,,,,,,,,,,,,,,,,,,,,,,,,,,,,,,,,,,,,,,,,,,,,,,,,,,,,,,,,,,,3,2024-01-09_10h43.26.831,watkins1,2023.2.3,99.76236623175906,77,2024-01-09 10h43.34.511997 +0000,
,,,,,,,7,0,7,0,,,,,,,,,,,,,,,,,99.72506180033088,,,,,,,,,,99.71614150004461,100.20701260026544,,,1,3.2610359000973403,,,,,,,,,,,,,,,,,,,,,100.2070233002305,106.21643220027909,Schere,biegsam,"['Schere', 'biegsam']",restudy,3,"['Kamera', 'Ring', 'Kette', 'Fahrrad', 'Bürste', 'Vase', 'Socke', 'Schere', 'Trommel', 'Buch', 'Tasche', 'Jacke', 'Hammer', 'Uhr', 'Löffel', 'Telefon', 'Stift', 'Kerze', 'Brille', 'Geige', 'Blume', 'Rucksack', 'Würfel', 'Tasse', 'Eimer', 'Flasche', 'Lampe', 'Kiste', 'Hut', 'Schlüssel']","['kurz', 'glatt', 'breit', 'niedlich', 'groß', 'nachhaltig', 'winzig', 'biegsam']",1,3.2610359000973403,None,,,,,,,,,,,,,,,,,,,,,,,,,,,,,,,,,,,,,,,,,,,,,,,,,,,,,,,,,,,,,,,,,3,2024-01-09_10h43.26.831,watkins1,2023.2.3,99.76236623175906,77,2024-01-09 10h43.34.511997 +0000,
,,,,,,,8,0,8,0,,,,,,,,,,,,,,,,,106.22587809991091,,,,,,,,,,106.2169527001679,106.70784800034016,,,1,1.9358767000958323,,,,,,,,,,,,,,,,,,,,,106.70785900019109,112.71643770020455,Trommel,nass,"['Trommel', 'nass']",test_adj,3,"['Kamera', 'Ring', 'Kette', 'Fahrrad', 'Bürste', 'Vase', 'Socke', 'Schere', 'Trommel', 'Buch', 'Tasche', 'Jacke', 'Hammer', 'Uhr', 'Löffel', 'Telefon', 'Stift', 'Kerze', 'Brille', 'Geige', 'Blume', 'Rucksack', 'Würfel', 'Tasse', 'Eimer', 'Flasche', 'Lampe', 'Kiste', 'Hut', 'Schlüssel']","['kurz', 'glatt', 'breit', 'niedlich', 'groß', 'nachhaltig', 'winzig', 'biegsam', 'nass']",1,1.9358767000958323,None,,,,,,,,,,,,,,,,,,,,,,,,,,,,,,,,,,,,,,,,,,,,,,,,,,,,,,,,,,,,,,,,,3,2024-01-09_10h43.26.831,watkins1,2023.2.3,99.76236623175906,77,2024-01-09 10h43.34.511997 +0000,
,,,,,,,9,0,9,0,,,,,,,,,,,,,,,,,112.72577220015228,,,,,,,,,,112.71696700016037,113.20783130032942,,,2,2.420798299834132,,,,,,,,,,,,,,,,,,,,,113.20784209994599,119.21399560011923,Buch,lustig,"['Buch', 'lustig']",restudy,3,"['Kamera', 'Ring', 'Kette', 'Fahrrad', 'Bürste', 'Vase', 'Socke', 'Schere', 'Trommel', 'Buch', 'Tasche', 'Jacke', 'Hammer', 'Uhr', 'Löffel', 'Telefon', 'Stift', 'Kerze', 'Brille', 'Geige', 'Blume', 'Rucksack', 'Würfel', 'Tasse', 'Eimer', 'Flasche', 'Lampe', 'Kiste', 'Hut', 'Schlüssel']","['kurz', 'glatt', 'breit', 'niedlich', 'groß', 'nachhaltig', 'winzig', 'biegsam', 'nass', 'lustig']",2,2.420798299834132,None,,,,,,,,,,,,,,,,,,,,,,,,,,,,,,,,,,,,,,,,,,,,,,,,,,,,,,,,,,,,,,,,,3,2024-01-09_10h43.26.831,watkins1,2023.2.3,99.76236623175906,77,2024-01-09 10h43.34.511997 +0000,
,,,,,,,10,0,10,0,,,,,,,,,,,,,,,,,119.22338719991967,,,,,,,,,,119.21451590023935,119.70551560027525,,,1,2.770555299706757,,,,,,,,,,,,,,,,,,,,,119.705526500009,125.71309670014307,Tasche,durchsichtig,"['Tasche', 'durchsichtig']",test_adj,3,"['Kamera', 'Ring', 'Kette', 'Fahrrad', 'Bürste', 'Vase', 'Socke', 'Schere', 'Trommel', 'Buch', 'Tasche', 'Jacke', 'Hammer', 'Uhr', 'Löffel', 'Telefon', 'Stift', 'Kerze', 'Brille', 'Geige', 'Blume', 'Rucksack', 'Würfel', 'Tasse', 'Eimer', 'Flasche', 'Lampe', 'Kiste', 'Hut', 'Schlüssel']","['kurz', 'glatt', 'breit', 'niedlich', 'groß', 'nachhaltig', 'winzig', 'biegsam', 'nass', 'lustig', 'durchsichtig']",1,2.770555299706757,None,,,,,,,,,,,,,,,,,,,,,,,,,,,,,,,,,,,,,,,,,,,,,,,,,,,,,,,,,,,,,,,,,3,2024-01-09_10h43.26.831,watkins1,2023.2.3,99.76236623175906,77,2024-01-09 10h43.34.511997 +0000,
,,,,,,,11,0,11,0,,,,,,,,,,,,,,,,,125.72252970002592,,,,,,,,,,125.71361429989338,126.20447480026633,,,3,2.1910391999408603,,,,,,,,,,,,,,,,,,,,,126.20448510022834,132.20627060020342,Jacke,dunkel,"['Jacke', 'dunkel']",test_adj,3,"['Kamera', 'Ring', 'Kette', 'Fahrrad', 'Bürste', 'Vase', 'Socke', 'Schere', 'Trommel', 'Buch', 'Tasche', 'Jacke', 'Hammer', 'Uhr', 'Löffel', 'Telefon', 'Stift', 'Kerze', 'Brille', 'Geige', 'Blume', 'Rucksack', 'Würfel', 'Tasse', 'Eimer', 'Flasche', 'Lampe', 'Kiste', 'Hut', 'Schlüssel']","['kurz', 'glatt', 'breit', 'niedlich', 'groß', 'nachhaltig', 'winzig', 'biegsam', 'nass', 'lustig', 'durchsichtig', 'dunkel']",3,2.1910391999408603,None,,,,,,,,,,,,,,,,,,,,,,,,,,,,,,,,,,,,,,,,,,,,,,,,,,,,,,,,,,,,,,,,,3,2024-01-09_10h43.26.831,watkins1,2023.2.3,99.76236623175906,77,2024-01-09 10h43.34.511997 +0000,
,,,,,,,12,0,12,0,,,,,,,,,,,,,,,,,132.2156930998899,,,,,,,,,,132.2067899000831,132.6976169999689,,,3,2.154085300397128,,,,,,,,,,,,,,,,,,,,,132.69762700004503,138.70767550030723,Hammer,lang,"['Hammer', 'lang']",restudy,3,"['Kamera', 'Ring', 'Kette', 'Fahrrad', 'Bürste', 'Vase', 'Socke', 'Schere', 'Trommel', 'Buch', 'Tasche', 'Jacke', 'Hammer', 'Uhr', 'Löffel', 'Telefon', 'Stift', 'Kerze', 'Brille', 'Geige', 'Blume', 'Rucksack', 'Würfel', 'Tasse', 'Eimer', 'Flasche', 'Lampe', 'Kiste', 'Hut', 'Schlüssel']","['kurz', 'glatt', 'breit', 'niedlich', 'groß', 'nachhaltig', 'winzig', 'biegsam', 'nass', 'lustig', 'durchsichtig', 'dunkel', 'lang']",3,2.154085300397128,None,,,,,,,,,,,,,,,,,,,,,,,,,,,,,,,,,,,,,,,,,,,,,,,,,,,,,,,,,,,,,,,,,3,2024-01-09_10h43.26.831,watkins1,2023.2.3,99.76236623175906,77,2024-01-09 10h43.34.511997 +0000,
,,,,,,,13,0,13,0,,,,,,,,,,,,,,,,,138.716971100308,,,,,,,,,,138.70821620011702,139.19912320002913,,,2,4.61174469999969,,,,,,,,,,,,,,,,,,,,,139.19913380034268,145.2049348000437,Uhr,glänzend,"['Uhr', 'glänzend']",restudy,3,"['Kamera', 'Ring', 'Kette', 'Fahrrad', 'Bürste', 'Vase', 'Socke', 'Schere', 'Trommel', 'Buch', 'Tasche', 'Jacke', 'Hammer', 'Uhr', 'Löffel', 'Telefon', 'Stift', 'Kerze', 'Brille', 'Geige', 'Blume', 'Rucksack', 'Würfel', 'Tasse', 'Eimer', 'Flasche', 'Lampe', 'Kiste', 'Hut', 'Schlüssel']","['kurz', 'glatt', 'breit', 'niedlich', 'groß', 'nachhaltig', 'winzig', 'biegsam', 'nass', 'lustig', 'durchsichtig', 'dunkel', 'lang', 'glänzend']",2,4.61174469999969,None,,,,,,,,,,,,,,,,,,,,,,,,,,,,,,,,,,,,,,,,,,,,,,,,,,,,,,,,,,,,,,,,,3,2024-01-09_10h43.26.831,watkins1,2023.2.3,99.76236623175906,77,2024-01-09 10h43.34.511997 +0000,
,,,,,,,14,0,14,0,,,,,,,,,,,,,,,,,145.21434239996597,,,,,,,,,,145.20545920031145,145.69634120026603,,,1,2.274504399858415,,,,,,,,,,,,,,,,,,,,,145.6963519002311,151.69825119990855,Löffel,elegant,"['Löffel', 'elegant']",restudy,3,"['Kamera', 'Ring', 'Kette', 'Fahrrad', 'Bürste', 'Vase', 'Socke', 'Schere', 'Trommel', 'Buch', 'Tasche', 'Jacke', 'Hammer', 'Uhr', 'Löffel', 'Telefon', 'Stift', 'Kerze', 'Brille', 'Geige', 'Blume', 'Rucksack', 'Würfel', 'Tasse', 'Eimer', 'Flasche', 'Lampe', 'Kiste', 'Hut', 'Schlüssel']","['kurz', 'glatt', 'breit', 'niedlich', 'groß', 'nachhaltig', 'winzig', 'biegsam', 'nass', 'lustig', 'durchsichtig', 'dunkel', 'lang', 'glänzend', 'elegant']",1,2.274504399858415,None,,,,,,,,,,,,,,,,,,,,,,,,,,,,,,,,,,,,,,,,,,,,,,,,,,,,,,,,,,,,,,,,,3,2024-01-09_10h43.26.831,watkins1,2023.2.3,99.76236623175906,77,2024-01-09 10h43.34.511997 +0000,
,,,,,,,15,0,15,0,,,,,,,,,,,,,,,,,151.70770730031654,,,,,,,,,,151.69877699995413,152.18968100007623,,,2,2.4469113000668585,,,,,,,,,,,,,,,,,,,,,152.18969190027565,158.19962189998478,Telefon,gut,"['Telefon', 'gut']",restudy,3,"['Kamera', 'Ring', 'Kette', 'Fahrrad', 'Bürste', 'Vase', 'Socke', 'Schere', 'Trommel', 'Buch', 'Tasche', 'Jacke', 'Hammer', 'Uhr', 'Löffel', 'Telefon', 'Stift', 'Kerze', 'Brille', 'Geige', 'Blume', 'Rucksack', 'Würfel', 'Tasse', 'Eimer', 'Flasche', 'Lampe', 'Kiste', 'Hut', 'Schlüssel']","['kurz', 'glatt', 'breit', 'niedlich', 'groß', 'nachhaltig', 'winzig', 'biegsam', 'nass', 'lustig', 'durchsichtig', 'dunkel', 'lang', 'glänzend', 'elegant', 'gut']",2,2.4469113000668585,None,,,,,,,,,,,,,,,,,,,,,,,,,,,,,,,,,,,,,,,,,,,,,,,,,,,,,,,,,,,,,,,,,3,2024-01-09_10h43.26.831,watkins1,2023.2.3,99.76236623175906,77,2024-01-09 10h43.34.511997 +0000,
,,,,,,,16,0,16,0,,,,,,,,,,,,,,,,,158.20908660022542,,,,,,,,,,158.20014530001208,158.69112890027463,,,1,3.1773817003704607,,,,,,,,,,,,,,,,,,,,,158.69113930035383,164.69432289991528,Stift,klobig,"['Stift', 'klobig']",restudy,3,"['Kamera', 'Ring', 'Kette', 'Fahrrad', 'Bürste', 'Vase', 'Socke', 'Schere', 'Trommel', 'Buch', 'Tasche', 'Jacke', 'Hammer', 'Uhr', 'Löffel', 'Telefon', 'Stift', 'Kerze', 'Brille', 'Geige', 'Blume', 'Rucksack', 'Würfel', 'Tasse', 'Eimer', 'Flasche', 'Lampe', 'Kiste', 'Hut', 'Schlüssel']","['kurz', 'glatt', 'breit', 'niedlich', 'groß', 'nachhaltig', 'winzig', 'biegsam', 'nass', 'lustig', 'durchsichtig', 'dunkel', 'lang', 'glänzend', 'elegant', 'gut', 'klobig']",1,3.1773817003704607,None,,,,,,,,,,,,,,,,,,,,,,,,,,,,,,,,,,,,,,,,,,,,,,,,,,,,,,,,,,,,,,,,,3,2024-01-09_10h43.26.831,watkins1,2023.2.3,99.76236623175906,77,2024-01-09 10h43.34.511997 +0000,
,,,,,,,17,0,17,0,,,,,,,,,,,,,,,,,164.7037090002559,,,,,,,,,,164.69485149998218,165.18602540018037,,,1,2.754635199904442,,,,,,,,,,,,,,,,,,,,,165.18603600002825,171.18875840026885,Kerze,zart,"['Kerze', 'zart']",restudy,3,"['Kamera', 'Ring', 'Kette', 'Fahrrad', 'Bürste', 'Vase', 'Socke', 'Schere', 'Trommel', 'Buch', 'Tasche', 'Jacke', 'Hammer', 'Uhr', 'Löffel', 'Telefon', 'Stift', 'Kerze', 'Brille', 'Geige', 'Blume', 'Rucksack', 'Würfel', 'Tasse', 'Eimer', 'Flasche', 'Lampe', 'Kiste', 'Hut', 'Schlüssel']","['kurz', 'glatt', 'breit', 'niedlich', 'groß', 'nachhaltig', 'winzig', 'biegsam', 'nass', 'lustig', 'durchsichtig', 'dunkel', 'lang', 'glänzend', 'elegant', 'gut', 'klobig', 'zart']",1,2.754635199904442,None,,,,,,,,,,,,,,,,,,,,,,,,,,,,,,,,,,,,,,,,,,,,,,,,,,,,,,,,,,,,,,,,,3,2024-01-09_10h43.26.831,watkins1,2023.2.3,99.76236623175906,77,2024-01-09 10h43.34.511997 +0000,
,,,,,,,18,0,18,0,,,,,,,,,,,,,,,,,171.1981438002549,,,,,,,,,,171.18929570028558,171.68015700019896,,,1,2.388057299889624,,,,,,,,,,,,,,,,,,,,,171.68016680004075,177.68095399998128,Brille,schwer,"['Brille', 'schwer']",test_adj,3,"['Kamera', 'Ring', 'Kette', 'Fahrrad', 'Bürste', 'Vase', 'Socke', 'Schere', 'Trommel', 'Buch', 'Tasche', 'Jacke', 'Hammer', 'Uhr', 'Löffel', 'Telefon', 'Stift', 'Kerze', 'Brille', 'Geige', 'Blume', 'Rucksack', 'Würfel', 'Tasse', 'Eimer', 'Flasche', 'Lampe', 'Kiste', 'Hut', 'Schlüssel']","['kurz', 'glatt', 'breit', 'niedlich', 'groß', 'nachhaltig', 'winzig', 'biegsam', 'nass', 'lustig', 'durchsichtig', 'dunkel', 'lang', 'glänzend', 'elegant', 'gut', 'klobig', 'zart', 'schwer']",1,2.388057299889624,None,,,,,,,,,,,,,,,,,,,,,,,,,,,,,,,,,,,,,,,,,,,,,,,,,,,,,,,,,,,,,,,,,3,2024-01-09_10h43.26.831,watkins1,2023.2.3,99.76236623175906,77,2024-01-09 10h43.34.511997 +0000,
,,,,,,,19,0,19,0,,,,,,,,,,,,,,,,,177.6904027001001,,,,,,,,,,177.68147000018507,178.17235510004684,,,1,3.831183699890971,,,,,,,,,,,,,,,,,,,,,178.1723656002432,184.1732769003138,Geige,bunt,"['Geige', 'bunt']",test_adj,3,"['Kamera', 'Ring', 'Kette', 'Fahrrad', 'Bürste', 'Vase', 'Socke', 'Schere', 'Trommel', 'Buch', 'Tasche', 'Jacke', 'Hammer', 'Uhr', 'Löffel', 'Telefon', 'Stift', 'Kerze', 'Brille', 'Geige', 'Blume', 'Rucksack', 'Würfel', 'Tasse', 'Eimer', 'Flasche', 'Lampe', 'Kiste', 'Hut', 'Schlüssel']","['kurz', 'glatt', 'breit', 'niedlich', 'groß', 'nachhaltig', 'winzig', 'biegsam', 'nass', 'lustig', 'durchsichtig', 'dunkel', 'lang', 'glänzend', 'elegant', 'gut', 'klobig', 'zart', 'schwer', 'bunt']",1,3.831183699890971,None,,,,,,,,,,,,,,,,,,,,,,,,,,,,,,,,,,,,,,,,,,,,,,,,,,,,,,,,,,,,,,,,,3,2024-01-09_10h43.26.831,watkins1,2023.2.3,99.76236623175906,77,2024-01-09 10h43.34.511997 +0000,
,,,,,,,20,0,20,0,,,,,,,,,,,,,,,,,184.182696999982,,,,,,,,,,184.17380160000175,184.6647586002946,,,2,3.235588800162077,,,,,,,,,,,,,,,,,,,,,184.66476960014552,190.6751951999031,Blume,rustikal,"['Blume', 'rustikal']",restudy,3,"['Kamera', 'Ring', 'Kette', 'Fahrrad', 'Bürste', 'Vase', 'Socke', 'Schere', 'Trommel', 'Buch', 'Tasche', 'Jacke', 'Hammer', 'Uhr', 'Löffel', 'Telefon', 'Stift', 'Kerze', 'Brille', 'Geige', 'Blume', 'Rucksack', 'Würfel', 'Tasse', 'Eimer', 'Flasche', 'Lampe', 'Kiste', 'Hut', 'Schlüssel']","['kurz', 'glatt', 'breit', 'niedlich', 'groß', 'nachhaltig', 'winzig', 'biegsam', 'nass', 'lustig', 'durchsichtig', 'dunkel', 'lang', 'glänzend', 'elegant', 'gut', 'klobig', 'zart', 'schwer', 'bunt', 'rustikal']",2,3.235588800162077,None,,,,,,,,,,,,,,,,,,,,,,,,,,,,,,,,,,,,,,,,,,,,,,,,,,,,,,,,,,,,,,,,,3,2024-01-09_10h43.26.831,watkins1,2023.2.3,99.76236623175906,77,2024-01-09 10h43.34.511997 +0000,
,,,,,,,21,0,21,0,,,,,,,,,,,,,,,,,190.6846000002697,,,,,,,,,,190.67571870004758,191.16660899994895,,,3,4.301807099953294,,,,,,,,,,,,,,,,,,,,,191.16661910014227,197.16957030026242,Rucksack,robust,"['Rucksack', 'robust']",restudy,3,"['Kamera', 'Ring', 'Kette', 'Fahrrad', 'Bürste', 'Vase', 'Socke', 'Schere', 'Trommel', 'Buch', 'Tasche', 'Jacke', 'Hammer', 'Uhr', 'Löffel', 'Telefon', 'Stift', 'Kerze', 'Brille', 'Geige', 'Blume', 'Rucksack', 'Würfel', 'Tasse', 'Eimer', 'Flasche', 'Lampe', 'Kiste', 'Hut', 'Schlüssel']","['kurz', 'glatt', 'breit', 'niedlich', 'groß', 'nachhaltig', 'winzig', 'biegsam', 'nass', 'lustig', 'durchsichtig', 'dunkel', 'lang', 'glänzend', 'elegant', 'gut', 'klobig', 'zart', 'schwer', 'bunt', 'rustikal', 'robust']",3,4.301807099953294,None,,,,,,,,,,,,,,,,,,,,,,,,,,,,,,,,,,,,,,,,,,,,,,,,,,,,,,,,,,,,,,,,,3,2024-01-09_10h43.26.831,watkins1,2023.2.3,99.76236623175906,77,2024-01-09 10h43.34.511997 +0000,
,,,,,,,22,0,22,0,,,,,,,,,,,,,,,,,197.17890780000016,,,,,,,,,,197.17010390013456,197.6609284002334,,,2,2.942560600116849,,,,,,,,,,,,,,,,,,,,,197.6609388999641,203.66592090018094,Würfel,flauschig,"['Würfel', 'flauschig']",test_adj,3,"['Kamera', 'Ring', 'Kette', 'Fahrrad', 'Bürste', 'Vase', 'Socke', 'Schere', 'Trommel', 'Buch', 'Tasche', 'Jacke', 'Hammer', 'Uhr', 'Löffel', 'Telefon', 'Stift', 'Kerze', 'Brille', 'Geige', 'Blume', 'Rucksack', 'Würfel', 'Tasse', 'Eimer', 'Flasche', 'Lampe', 'Kiste', 'Hut', 'Schlüssel']","['kurz', 'glatt', 'breit', 'niedlich', 'groß', 'nachhaltig', 'winzig', 'biegsam', 'nass', 'lustig', 'durchsichtig', 'dunkel', 'lang', 'glänzend', 'elegant', 'gut', 'klobig', 'zart', 'schwer', 'bunt', 'rustikal', 'robust', 'flauschig']",2,2.942560600116849,None,,,,,,,,,,,,,,,,,,,,,,,,,,,,,,,,,,,,,,,,,,,,,,,,,,,,,,,,,,,,,,,,,3,2024-01-09_10h43.26.831,watkins1,2023.2.3,99.76236623175906,77,2024-01-09 10h43.34.511997 +0000,
,,,,,,,23,0,23,0,,,,,,,,,,,,,,,,,203.67533589992672,,,,,,,,,,203.66647410020232,204.15730109997094,,,3,3.5824194997549057,,,,,,,,,,,,,,,,,,,,,204.15731110004708,210.15818249993026,Tasse,kaputt,"['Tasse', 'kaputt']",test_adj,3,"['Kamera', 'Ring', 'Kette', 'Fahrrad', 'Bürste', 'Vase', 'Socke', 'Schere', 'Trommel', 'Buch', 'Tasche', 'Jacke', 'Hammer', 'Uhr', 'Löffel', 'Telefon', 'Stift', 'Kerze', 'Brille', 'Geige', 'Blume', 'Rucksack', 'Würfel', 'Tasse', 'Eimer', 'Flasche', 'Lampe', 'Kiste', 'Hut', 'Schlüssel']","['kurz', 'glatt', 'breit', 'niedlich', 'groß', 'nachhaltig', 'winzig', 'biegsam', 'nass', 'lustig', 'durchsichtig', 'dunkel', 'lang', 'glänzend', 'elegant', 'gut', 'klobig', 'zart', 'schwer', 'bunt', 'rustikal', 'robust', 'flauschig', 'kaputt']",3,3.5824194997549057,None,,,,,,,,,,,,,,,,,,,,,,,,,,,,,,,,,,,,,,,,,,,,,,,,,,,,,,,,,,,,,,,,,3,2024-01-09_10h43.26.831,watkins1,2023.2.3,99.76236623175906,77,2024-01-09 10h43.34.511997 +0000,
,,,,,,,24,0,24,0,,,,,,,,,,,,,,,,,210.16763749998063,,,,,,,,,,210.158727100119,210.64961790014058,,,2,2.290093900170177,,,,,,,,,,,,,,,,,,,,,210.64962840033695,216.6527984002605,Eimer,teuer,"['Eimer', 'teuer']",test_adj,3,"['Kamera', 'Ring', 'Kette', 'Fahrrad', 'Bürste', 'Vase', 'Socke', 'Schere', 'Trommel', 'Buch', 'Tasche', 'Jacke', 'Hammer', 'Uhr', 'Löffel', 'Telefon', 'Stift', 'Kerze', 'Brille', 'Geige', 'Blume', 'Rucksack', 'Würfel', 'Tasse', 'Eimer', 'Flasche', 'Lampe', 'Kiste', 'Hut', 'Schlüssel']","['kurz', 'glatt', 'breit', 'niedlich', 'groß', 'nachhaltig', 'winzig', 'biegsam', 'nass', 'lustig', 'durchsichtig', 'dunkel', 'lang', 'glänzend', 'elegant', 'gut', 'klobig', 'zart', 'schwer', 'bunt', 'rustikal', 'robust', 'flauschig', 'kaputt', 'teuer']",2,2.290093900170177,None,,,,,,,,,,,,,,,,,,,,,,,,,,,,,,,,,,,,,,,,,,,,,,,,,,,,,,,,,,,,,,,,,3,2024-01-09_10h43.26.831,watkins1,2023.2.3,99.76236623175906,77,2024-01-09 10h43.34.511997 +0000,
,,,,,,,25,0,25,0,,,,,,,,,,,,,,,,,216.6622688001953,,,,,,,,,,216.65331949992105,217.14420509990305,,,2,4.484072600025684,,,,,,,,,,,,,,,,,,,,,217.14421549998224,223.15378900012,Flasche,hässlich,"['Flasche', 'hässlich']",test_adj,3,"['Kamera', 'Ring', 'Kette', 'Fahrrad', 'Bürste', 'Vase', 'Socke', 'Schere', 'Trommel', 'Buch', 'Tasche', 'Jacke', 'Hammer', 'Uhr', 'Löffel', 'Telefon', 'Stift', 'Kerze', 'Brille', 'Geige', 'Blume', 'Rucksack', 'Würfel', 'Tasse', 'Eimer', 'Flasche', 'Lampe', 'Kiste', 'Hut', 'Schlüssel']","['kurz', 'glatt', 'breit', 'niedlich', 'groß', 'nachhaltig', 'winzig', 'biegsam', 'nass', 'lustig', 'durchsichtig', 'dunkel', 'lang', 'glänzend', 'elegant', 'gut', 'klobig', 'zart', 'schwer', 'bunt', 'rustikal', 'robust', 'flauschig', 'kaputt', 'teuer', 'hässlich']",2,4.484072600025684,None,,,,,,,,,,,,,,,,,,,,,,,,,,,,,,,,,,,,,,,,,,,,,,,,,,,,,,,,,,,,,,,,,3,2024-01-09_10h43.26.831,watkins1,2023.2.3,99.76236623175906,77,2024-01-09 10h43.34.511997 +0000,
,,,,,,,26,0,26,0,,,,,,,,,,,,,,,,,223.16326860012487,,,,,,,,,,223.15431659994647,223.6451803999953,,,3,2.4872031998820603,,,,,,,,,,,,,,,,,,,,,223.6451906999573,229.64879890019074,Lampe,schmutzig,"['Lampe', 'schmutzig']",test_adj,3,"['Kamera', 'Ring', 'Kette', 'Fahrrad', 'Bürste', 'Vase', 'Socke', 'Schere', 'Trommel', 'Buch', 'Tasche', 'Jacke', 'Hammer', 'Uhr', 'Löffel', 'Telefon', 'Stift', 'Kerze', 'Brille', 'Geige', 'Blume', 'Rucksack', 'Würfel', 'Tasse', 'Eimer', 'Flasche', 'Lampe', 'Kiste', 'Hut', 'Schlüssel']","['kurz', 'glatt', 'breit', 'niedlich', 'groß', 'nachhaltig', 'winzig', 'biegsam', 'nass', 'lustig', 'durchsichtig', 'dunkel', 'lang', 'glänzend', 'elegant', 'gut', 'klobig', 'zart', 'schwer', 'bunt', 'rustikal', 'robust', 'flauschig', 'kaputt', 'teuer', 'hässlich', 'schmutzig']",3,2.4872031998820603,None,,,,,,,,,,,,,,,,,,,,,,,,,,,,,,,,,,,,,,,,,,,,,,,,,,,,,,,,,,,,,,,,,3,2024-01-09_10h43.26.831,watkins1,2023.2.3,99.76236623175906,77,2024-01-09 10h43.34.511997 +0000,
,,,,,,,27,0,27,0,,,,,,,,,,,,,,,,,229.65826479997486,,,,,,,,,,229.64931630017236,230.14030020032078,,,3,3.3044646000489593,,,,,,,,,,,,,,,,,,,,,230.14031190006062,236.14269790006801,Kiste,matt,"['Kiste', 'matt']",test_adj,3,"['Kamera', 'Ring', 'Kette', 'Fahrrad', 'Bürste', 'Vase', 'Socke', 'Schere', 'Trommel', 'Buch', 'Tasche', 'Jacke', 'Hammer', 'Uhr', 'Löffel', 'Telefon', 'Stift', 'Kerze', 'Brille', 'Geige', 'Blume', 'Rucksack', 'Würfel', 'Tasse', 'Eimer', 'Flasche', 'Lampe', 'Kiste', 'Hut', 'Schlüssel']","['kurz', 'glatt', 'breit', 'niedlich', 'groß', 'nachhaltig', 'winzig', 'biegsam', 'nass', 'lustig', 'durchsichtig', 'dunkel', 'lang', 'glänzend', 'elegant', 'gut', 'klobig', 'zart', 'schwer', 'bunt', 'rustikal', 'robust', 'flauschig', 'kaputt', 'teuer', 'hässlich', 'schmutzig', 'matt']",3,3.3044646000489593,None,,,,,,,,,,,,,,,,,,,,,,,,,,,,,,,,,,,,,,,,,,,,,,,,,,,,,,,,,,,,,,,,,3,2024-01-09_10h43.26.831,watkins1,2023.2.3,99.76236623175906,77,2024-01-09 10h43.34.511997 +0000,
,,,,,,,28,0,28,0,,,,,,,,,,,,,,,,,236.15213369997218,,,,,,,,,,236.14322509989142,236.63416730007157,,,3,3.6502547999843955,,,,,,,,,,,,,,,,,,,,,236.63417820027098,242.6390101001598,Hut,hohl,"['Hut', 'hohl']",restudy,3,"['Kamera', 'Ring', 'Kette', 'Fahrrad', 'Bürste', 'Vase', 'Socke', 'Schere', 'Trommel', 'Buch', 'Tasche', 'Jacke', 'Hammer', 'Uhr', 'Löffel', 'Telefon', 'Stift', 'Kerze', 'Brille', 'Geige', 'Blume', 'Rucksack', 'Würfel', 'Tasse', 'Eimer', 'Flasche', 'Lampe', 'Kiste', 'Hut', 'Schlüssel']","['kurz', 'glatt', 'breit', 'niedlich', 'groß', 'nachhaltig', 'winzig', 'biegsam', 'nass', 'lustig', 'durchsichtig', 'dunkel', 'lang', 'glänzend', 'elegant', 'gut', 'klobig', 'zart', 'schwer', 'bunt', 'rustikal', 'robust', 'flauschig', 'kaputt', 'teuer', 'hässlich', 'schmutzig', 'matt', 'hohl']",3,3.6502547999843955,None,,,,,,,,,,,,,,,,,,,,,,,,,,,,,,,,,,,,,,,,,,,,,,,,,,,,,,,,,,,,,,,,,3,2024-01-09_10h43.26.831,watkins1,2023.2.3,99.76236623175906,77,2024-01-09 10h43.34.511997 +0000,
,,,,,,,29,0,29,0,,,,,,,,,,,,,,,,,242.64843090018257,,,,,,,,,,242.6395447999239,243.13044030033052,,,2,3.40180080011487,,,,,,,,,,,,,,,,,,,,,243.13045220030472,249.13955620024353,Schlüssel,krumm,"['Schlüssel', 'krumm']",restudy,3,"['Kamera', 'Ring', 'Kette', 'Fahrrad', 'Bürste', 'Vase', 'Socke', 'Schere', 'Trommel', 'Buch', 'Tasche', 'Jacke', 'Hammer', 'Uhr', 'Löffel', 'Telefon', 'Stift', 'Kerze', 'Brille', 'Geige', 'Blume', 'Rucksack', 'Würfel', 'Tasse', 'Eimer', 'Flasche', 'Lampe', 'Kiste', 'Hut', 'Schlüssel']","['kurz', 'glatt', 'breit', 'niedlich', 'groß', 'nachhaltig', 'winzig', 'biegsam', 'nass', 'lustig', 'durchsichtig', 'dunkel', 'lang', 'glänzend', 'elegant', 'gut', 'klobig', 'zart', 'schwer', 'bunt', 'rustikal', 'robust', 'flauschig', 'kaputt', 'teuer', 'hässlich', 'schmutzig', 'matt', 'hohl', 'krumm']",2,3.40180080011487,None,,,,,,,,,,,,,,,,,,,,,,,,,,,,,,,,,,,,,,,,,,,,,,,,,,,,,,,,,,,,,,,,,3,2024-01-09_10h43.26.831,watkins1,2023.2.3,99.76236623175906,77,2024-01-09 10h43.34.511997 +0000,
,,,,,,,,,,,0,0,0,0,,,,,,,,,,,,,249.14902850007638,,,,,,,,,,249.14041250012815,249.63108980003744,,,[],[],,,,,,,,,,,,None,None,,,,,,,,,,Schere,biegsam,"['Schere', 'biegsam']",restudy,3,,,,,,249.14033610001206,249.1403855001554,"['Schere', 'Lampe', 'Flasche', 'Vase', 'Kiste', 'Hammer', 'Rucksack', 'Kerze', 'Eimer', 'Bürste', 'Tasse', 'Geige', 'Würfel', 'Uhr', 'Trommel', 'Schlüssel', 'Tasche', 'Telefon', 'Fahrrad', 'Jacke', 'Kamera', 'Brille', 'Stift', 'Ring', 'Kette', 'Hut', 'Blume', 'Löffel', 'Buch', 'Socke']",249.6311005000025,249.6338496999815,None,249.63403480034322,255.63874500012025,1,2.538068199995905,None,255.63917110022157,255.6419283002615,None,255.64208730030805,255.64327510027215,255.64328709989786,255.64447920024395,,,,,,,,,,,,,,,,,,,,,,,,,,,,,,,,,,,,,,,,,,,,,,,3,2024-01-09_10h43.26.831,watkins1,2023.2.3,99.76236623175906,77,2024-01-09 10h43.34.511997 +0000,
,,,,,,,,,,,1,0,1,0,,,,,,,,,,,,,255.6481473003514,,,,,,,,,,255.6447629001923,256.14026430016384,,,[],[],,,,,,,,,,,schmutzig,None,None,,,,,,,,,,Lampe,schmutzig,"['Lampe', 'schmutzig']",test_adj,3,,,,,,255.64469720004126,255.6447360003367,"['Schere', 'Lampe', 'Flasche', 'Vase', 'Kiste', 'Hammer', 'Rucksack', 'Kerze', 'Eimer', 'Bürste', 'Tasse', 'Geige', 'Würfel', 'Uhr', 'Trommel', 'Schlüssel', 'Tasche', 'Telefon', 'Fahrrad', 'Jacke', 'Kamera', 'Brille', 'Stift', 'Ring', 'Kette', 'Hut', 'Blume', 'Löffel', 'Buch', 'Socke']",256.1402755002491,256.14309959998354,None,256.1432282999158,256.1446605003439,None,,,256.144769300241,256.1461962000467,None,256.146303600166,262.1491404999979,262.1491551003419,262.15066120028496,0,,,,,,,,,,,,,,,,,,,,,,,,,,,,,,,,,,,,,,,,,,,,,,3,2024-01-09_10h43.26.831,watkins1,2023.2.3,99.76236623175906,77,2024-01-09 10h43.34.511997 +0000,
,,,,,,,,,,,2,0,2,0,,,,,,,,,,,,,262.1589665003121,,,,,,,,,,262.1509501002729,262.6408778000623,,,[],[],,,,,,,,,,,hässlich,None,None,,,,,,,,,,Flasche,hässlich,"['Flasche', 'hässlich']",test_adj,3,,,,,,262.15088300034404,262.150921900291,"['Schere', 'Lampe', 'Flasche', 'Vase', 'Kiste', 'Hammer', 'Rucksack', 'Kerze', 'Eimer', 'Bürste', 'Tasse', 'Geige', 'Würfel', 'Uhr', 'Trommel', 'Schlüssel', 'Tasche', 'Telefon', 'Fahrrad', 'Jacke', 'Kamera', 'Brille', 'Stift', 'Ring', 'Kette', 'Hut', 'Blume', 'Löffel', 'Buch', 'Socke']",262.6408889000304,262.6437633000314,None,262.6438931003213,262.6465569003485,None,,,262.64666790002957,262.649325999897,None,262.64943710016087,268.655116900336,268.65513150021434,268.6564819999039,0,,,,,,,,,,,,,,,,,,,,,,,,,,,,,,,,,,,,,,,,,,,,,,3,2024-01-09_10h43.26.831,watkins1,2023.2.3,99.76236623175906,77,2024-01-09 10h43.34.511997 +0000,
,,,,,,,,,,,3,0,3,0,,,,,,,,,,,,,268.6648822003044,,,,,,,,,,268.65676850033924,269.146933299955,,,[],[],,,,,,,,,,,,None,None,,,,,,,,,,Vase,nachhaltig,"['Vase', 'nachhaltig']",restudy,3,,,,,,268.656699700281,268.6567400000058,"['Schere', 'Lampe', 'Flasche', 'Vase', 'Kiste', 'Hammer', 'Rucksack', 'Kerze', 'Eimer', 'Bürste', 'Tasse', 'Geige', 'Würfel', 'Uhr', 'Trommel', 'Schlüssel', 'Tasche', 'Telefon', 'Fahrrad', 'Jacke', 'Kamera', 'Brille', 'Stift', 'Ring', 'Kette', 'Hut', 'Blume', 'Löffel', 'Buch', 'Socke']",269.1469443999231,269.14955320023,None,269.1496776002459,275.1522755003534,2,3.534976900089532,None,275.1525701000355,275.1552259000018,None,275.1553378999233,275.15667590033263,275.1566881001927,275.15794460009784,,,,,,,,,,,,,,,,,,,,,,,,,,,,,,,,,,,,,,,,,,,,,,,3,2024-01-09_10h43.26.831,watkins1,2023.2.3,99.76236623175906,77,2024-01-09 10h43.34.511997 +0000,
,,,,,,,,,,,4,0,4,0,,,,,,,,,,,,,275.16174580017105,,,,,,,,,,275.1582289999351,275.6536727002822,,,[],[],,,,,,,,,,,matt,None,None,,,,,,,,,,Kiste,matt,"['Kiste', 'matt']",test_adj,3,,,,,,275.1581629002467,275.1582015999593,"['Schere', 'Lampe', 'Flasche', 'Vase', 'Kiste', 'Hammer', 'Rucksack', 'Kerze', 'Eimer', 'Bürste', 'Tasse', 'Geige', 'Würfel', 'Uhr', 'Trommel', 'Schlüssel', 'Tasche', 'Telefon', 'Fahrrad', 'Jacke', 'Kamera', 'Brille', 'Stift', 'Ring', 'Kette', 'Hut', 'Blume', 'Löffel', 'Buch', 'Socke']",275.65368360001594,275.65642460016534,None,275.65654839994386,275.6581494002603,None,,,275.6582590001635,275.6596776000224,None,275.65978750027716,281.66167089994997,281.6616851002909,281.66285490011796,0,,,,,,,,,,,,,,,,,,,,,,,,,,,,,,,,,,,,,,,,,,,,,,3,2024-01-09_10h43.26.831,watkins1,2023.2.3,99.76236623175906,77,2024-01-09 10h43.34.511997 +0000,
,,,,,,,,,,,5,0,5,0,,,,,,,,,,,,,281.67144880024716,,,,,,,,,,281.66314060008153,282.15347560029477,,,[],[],,,,,,,,,,,,None,None,,,,,,,,,,Hammer,lang,"['Hammer', 'lang']",restudy,3,,,,,,281.66307369992137,281.6631125002168,"['Schere', 'Lampe', 'Flasche', 'Vase', 'Kiste', 'Hammer', 'Rucksack', 'Kerze', 'Eimer', 'Bürste', 'Tasse', 'Geige', 'Würfel', 'Uhr', 'Trommel', 'Schlüssel', 'Tasche', 'Telefon', 'Fahrrad', 'Jacke', 'Kamera', 'Brille', 'Stift', 'Ring', 'Kette', 'Hut', 'Blume', 'Löffel', 'Buch', 'Socke']",282.15348620014265,282.15607680007815,None,282.1562002999708,288.1573211001232,3,2.592555799987167,None,288.15762200020254,288.1602441002615,None,288.1603602003306,288.16186890006065,288.1618810999207,288.1629449003376,,,,,,,,,,,,,,,,,,,,,,,,,,,,,,,,,,,,,,,,,,,,,,,3,2024-01-09_10h43.26.831,watkins1,2023.2.3,99.76236623175906,77,2024-01-09 10h43.34.511997 +0000,
,,,,,,,,,,,6,0,6,0,,,,,,,,,,,,,288.1666753999889,,,,,,,,,,288.16322700027376,288.6589957000688,,,[],[],,,,,,,,,,,,None,None,,,,,,,,,,Rucksack,robust,"['Rucksack', 'robust']",restudy,3,,,,,,288.1631617001258,288.1632002000697,"['Schere', 'Lampe', 'Flasche', 'Vase', 'Kiste', 'Hammer', 'Rucksack', 'Kerze', 'Eimer', 'Bürste', 'Tasse', 'Geige', 'Würfel', 'Uhr', 'Trommel', 'Schlüssel', 'Tasche', 'Telefon', 'Fahrrad', 'Jacke', 'Kamera', 'Brille', 'Stift', 'Ring', 'Kette', 'Hut', 'Blume', 'Löffel', 'Buch', 'Socke']",288.6590088000521,288.6617713002488,None,288.6618973999284,294.6677355999127,3,2.0148163000121713,None,294.66803030017763,294.67075509997085,None,294.6708658002317,294.672059699893,294.67207100009546,294.6732223001309,,,,,,,,,,,,,,,,,,,,,,,,,,,,,,,,,,,,,,,,,,,,,,,3,2024-01-09_10h43.26.831,watkins1,2023.2.3,99.76236623175906,77,2024-01-09 10h43.34.511997 +0000,
,,,,,,,,,,,7,0,7,0,,,,,,,,,,,,,294.6770126000047,,,,,,,,,,294.6734970002435,295.1691093002446,,,[],[],,,,,,,,,,,,None,None,,,,,,,,,,Kerze,zart,"['Kerze', 'zart']",restudy,3,,,,,,294.67343370011076,294.67347089992836,"['Schere', 'Lampe', 'Flasche', 'Vase', 'Kiste', 'Hammer', 'Rucksack', 'Kerze', 'Eimer', 'Bürste', 'Tasse', 'Geige', 'Würfel', 'Uhr', 'Trommel', 'Schlüssel', 'Tasche', 'Telefon', 'Fahrrad', 'Jacke', 'Kamera', 'Brille', 'Stift', 'Ring', 'Kette', 'Hut', 'Blume', 'Löffel', 'Buch', 'Socke']",295.1691207000986,295.1718164002523,None,295.1719404999167,301.1779968999326,1,3.3529582996852696,None,301.17831089999527,301.1809233999811,None,301.18103770026937,301.1822081999853,301.1822202000767,301.1832767003216,,,,,,,,,,,,,,,,,,,,,,,,,,,,,,,,,,,,,,,,,,,,,,,3,2024-01-09_10h43.26.831,watkins1,2023.2.3,99.76236623175906,77,2024-01-09 10h43.34.511997 +0000,
,,,,,,,,,,,8,0,8,0,,,,,,,,,,,,,301.1874274001457,,,,,,,,,,301.1835659001954,301.6797555000521,,,[],[],,,,,,,,,,,teuer,None,None,,,,,,,,,,Eimer,teuer,"['Eimer', 'teuer']",test_adj,3,,,,,,301.1834998000413,301.1835393002257,"['Schere', 'Lampe', 'Flasche', 'Vase', 'Kiste', 'Hammer', 'Rucksack', 'Kerze', 'Eimer', 'Bürste', 'Tasse', 'Geige', 'Würfel', 'Uhr', 'Trommel', 'Schlüssel', 'Tasche', 'Telefon', 'Fahrrad', 'Jacke', 'Kamera', 'Brille', 'Stift', 'Ring', 'Kette', 'Hut', 'Blume', 'Löffel', 'Buch', 'Socke']",301.6797660002485,301.6824545003474,None,301.6825775001198,301.6839956003241,None,,,301.6841084002517,301.6855262001045,None,301.68563410034403,307.68743340019137,307.6874480000697,307.6887516002171,0,,,,,,,,,,,,,,,,,,,,,,,,,,,,,,,,,,,,,,,,,,,,,,3,2024-01-09_10h43.26.831,watkins1,2023.2.3,99.76236623175906,77,2024-01-09 10h43.34.511997 +0000,
,,,,,,,,,,,9,0,9,0,,,,,,,,,,,,,307.6972127002664,,,,,,,,,,307.6890524001792,308.1791699002497,,,[],[],,,,,,,,,,,lang,None,None,,,,,,,,,,Bürste,groß,"['Bürste', 'groß']",test_adj,3,,,,,,307.68897200003266,307.6890227003023,"['Schere', 'Lampe', 'Flasche', 'Vase', 'Kiste', 'Hammer', 'Rucksack', 'Kerze', 'Eimer', 'Bürste', 'Tasse', 'Geige', 'Würfel', 'Uhr', 'Trommel', 'Schlüssel', 'Tasche', 'Telefon', 'Fahrrad', 'Jacke', 'Kamera', 'Brille', 'Stift', 'Ring', 'Kette', 'Hut', 'Blume', 'Löffel', 'Buch', 'Socke']",308.1791803999804,308.18188320007175,None,308.1820045001805,308.18467460013926,None,,,308.1847883001901,308.18731190031394,None,308.1874206000939,314.1922570001334,314.19227149989456,314.19344890024513,0,,,,,,,,,,,,,,,,,,,,,,,,,,,,,,,,,,,,,,,,,,,,,,3,2024-01-09_10h43.26.831,watkins1,2023.2.3,99.76236623175906,77,2024-01-09 10h43.34.511997 +0000,
,,,,,,,,,,,10,0,10,0,,,,,,,,,,,,,314.2020809999667,,,,,,,,,,314.1937367999926,314.68464819993824,,,[],[],,,,,,,,,,,kapput,None,None,,,,,,,,,,Tasse,kaputt,"['Tasse', 'kaputt']",test_adj,3,,,,,,314.1936685000546,314.193708000239,"['Schere', 'Lampe', 'Flasche', 'Vase', 'Kiste', 'Hammer', 'Rucksack', 'Kerze', 'Eimer', 'Bürste', 'Tasse', 'Geige', 'Würfel', 'Uhr', 'Trommel', 'Schlüssel', 'Tasche', 'Telefon', 'Fahrrad', 'Jacke', 'Kamera', 'Brille', 'Stift', 'Ring', 'Kette', 'Hut', 'Blume', 'Löffel', 'Buch', 'Socke']",314.68465910013765,314.6872025001794,None,314.6873236000538,314.68984030000865,None,,,314.6899494002573,314.6923179998994,None,314.6924268002622,320.69636410009116,320.69637960009277,320.6976872999221,0,,,,,,,,,,,,,,,,,,,,,,,,,,,,,,,,,,,,,,,,,,,,,,3,2024-01-09_10h43.26.831,watkins1,2023.2.3,99.76236623175906,77,2024-01-09 10h43.34.511997 +0000,
,,,,,,,,,,,11,0,11,0,,,,,,,,,,,,,320.70595300011337,,,,,,,,,,320.69797539990395,321.1879345001653,,,[],[],,,,,,,,,,,bunt,None,None,,,,,,,,,,Geige,bunt,"['Geige', 'bunt']",test_adj,3,,,,,,320.6979061001912,320.697946799919,"['Schere', 'Lampe', 'Flasche', 'Vase', 'Kiste', 'Hammer', 'Rucksack', 'Kerze', 'Eimer', 'Bürste', 'Tasse', 'Geige', 'Würfel', 'Uhr', 'Trommel', 'Schlüssel', 'Tasche', 'Telefon', 'Fahrrad', 'Jacke', 'Kamera', 'Brille', 'Stift', 'Ring', 'Kette', 'Hut', 'Blume', 'Löffel', 'Buch', 'Socke']",321.18794570025057,321.1906775003299,None,321.1908029001206,321.19334050035104,None,,,321.19344960013404,321.195977000054,None,321.19608370028436,327.2007122002542,327.2007263000123,327.2018917002715,0,,,,,,,,,,,,,,,,,,,,,,,,,,,,,,,,,,,,,,,,,,,,,,3,2024-01-09_10h43.26.831,watkins1,2023.2.3,99.76236623175906,77,2024-01-09 10h43.34.511997 +0000,
,,,,,,,,,,,12,0,12,0,,,,,,,,,,,,,327.21051539992914,,,,,,,,,,327.20217980025336,327.69235459994525,,,[],[],,,,,,,,,,,flauschig,None,None,,,,,,,,,,Würfel,flauschig,"['Würfel', 'flauschig']",test_adj,3,,,,,,327.202109800186,327.2021507001482,"['Schere', 'Lampe', 'Flasche', 'Vase', 'Kiste', 'Hammer', 'Rucksack', 'Kerze', 'Eimer', 'Bürste', 'Tasse', 'Geige', 'Würfel', 'Uhr', 'Trommel', 'Schlüssel', 'Tasche', 'Telefon', 'Fahrrad', 'Jacke', 'Kamera', 'Brille', 'Stift', 'Ring', 'Kette', 'Hut', 'Blume', 'Löffel', 'Buch', 'Socke']",327.6923654000275,327.69496669992805,None,327.69509490020573,327.69767819996923,None,,,327.697788100224,327.700228900183,None,327.7003386002034,333.705151299946,333.70516570005566,333.70654240017757,0,,,,,,,,,,,,,,,,,,,,,,,,,,,,,,,,,,,,,,,,,,,,,,3,2024-01-09_10h43.26.831,watkins1,2023.2.3,99.76236623175906,77,2024-01-09 10h43.34.511997 +0000,
,,,,,,,,,,,13,0,13,0,,,,,,,,,,,,,333.71497870003805,,,,,,,,,,333.7068316000514,334.19696460012347,,,[],[],,,,,,,,,,,,None,None,,,,,,,,,,Uhr,glänzend,"['Uhr', 'glänzend']",restudy,3,,,,,,333.706761199981,333.7068031001836,"['Schere', 'Lampe', 'Flasche', 'Vase', 'Kiste', 'Hammer', 'Rucksack', 'Kerze', 'Eimer', 'Bürste', 'Tasse', 'Geige', 'Würfel', 'Uhr', 'Trommel', 'Schlüssel', 'Tasche', 'Telefon', 'Fahrrad', 'Jacke', 'Kamera', 'Brille', 'Stift', 'Ring', 'Kette', 'Hut', 'Blume', 'Löffel', 'Buch', 'Socke']",334.19697519997135,334.1995822000317,None,334.19970510015264,340.20370060019195,2,2.37294810032472,None,340.2040531001985,340.20693160034716,None,340.2071622000076,340.20875130034983,340.2087664999999,340.210079099983,,,,,,,,,,,,,,,,,,,,,,,,,,,,,,,,,,,,,,,,,,,,,,,3,2024-01-09_10h43.26.831,watkins1,2023.2.3,99.76236623175906,77,2024-01-09 10h43.34.511997 +0000,
,,,,,,,,,,,14,0,14,0,,,,,,,,,,,,,340.2140009999275,,,,,,,,,,340.21040170034394,340.7063152003102,,,[],[],,,,,,,,,,,nass,None,None,,,,,,,,,,Trommel,nass,"['Trommel', 'nass']",test_adj,3,,,,,,340.21032370021567,340.2103723003529,"['Schere', 'Lampe', 'Flasche', 'Vase', 'Kiste', 'Hammer', 'Rucksack', 'Kerze', 'Eimer', 'Bürste', 'Tasse', 'Geige', 'Würfel', 'Uhr', 'Trommel', 'Schlüssel', 'Tasche', 'Telefon', 'Fahrrad', 'Jacke', 'Kamera', 'Brille', 'Stift', 'Ring', 'Kette', 'Hut', 'Blume', 'Löffel', 'Buch', 'Socke']",340.70632770005614,340.7093553002924,None,340.7094915001653,340.7110581002198,None,,,340.71117370016873,340.71304340008646,None,340.7131654000841,346.7167977001518,346.71681210026145,346.7179987002164,0,,,,,,,,,,,,,,,,,,,,,,,,,,,,,,,,,,,,,,,,,,,,,,3,2024-01-09_10h43.26.831,watkins1,2023.2.3,99.76236623175906,77,2024-01-09 10h43.34.511997 +0000,
,,,,,,,,,,,15,0,15,0,,,,,,,,,,,,,346.72664440004155,,,,,,,,,,346.71828419994563,347.20856600021943,,,[],[],,,,,,,,,,,,None,None,,,,,,,,,,Schlüssel,krumm,"['Schlüssel', 'krumm']",restudy,3,,,,,,346.7182171000168,346.7182555999607,"['Schere', 'Lampe', 'Flasche', 'Vase', 'Kiste', 'Hammer', 'Rucksack', 'Kerze', 'Eimer', 'Bürste', 'Tasse', 'Geige', 'Würfel', 'Uhr', 'Trommel', 'Schlüssel', 'Tasche', 'Telefon', 'Fahrrad', 'Jacke', 'Kamera', 'Brille', 'Stift', 'Ring', 'Kette', 'Hut', 'Blume', 'Löffel', 'Buch', 'Socke']",347.20857700007036,347.2112111002207,None,347.21133520035073,353.2162705999799,1,3.7934707002714276,None,353.2165701002814,353.2193518001586,None,353.21946480032057,353.2210589000024,353.22107119997963,353.222242299933,,,,,,,,,,,,,,,,,,,,,,,,,,,,,,,,,,,,,,,,,,,,,,,3,2024-01-09_10h43.26.831,watkins1,2023.2.3,99.76236623175906,77,2024-01-09 10h43.34.511997 +0000,
,,,,,,,,,,,16,0,16,0,,,,,,,,,,,,,353.22561960015446,,,,,,,,,,353.2225277000107,353.71772330021486,,,[],[],,,,,,,,,,,durchsich,None,None,,,,,,,,,,Tasche,durchsichtig,"['Tasche', 'durchsichtig']",test_adj,3,,,,,,353.22246110020205,353.22250059992075,"['Schere', 'Lampe', 'Flasche', 'Vase', 'Kiste', 'Hammer', 'Rucksack', 'Kerze', 'Eimer', 'Bürste', 'Tasse', 'Geige', 'Würfel', 'Uhr', 'Trommel', 'Schlüssel', 'Tasche', 'Telefon', 'Fahrrad', 'Jacke', 'Kamera', 'Brille', 'Stift', 'Ring', 'Kette', 'Hut', 'Blume', 'Löffel', 'Buch', 'Socke']",353.7177343000658,353.72062849998474,None,353.72075460013,353.7222160999663,None,,,353.72232610033825,353.7237849999219,None,353.7238938002847,359.7265409003012,359.7265556002967,359.7279533999972,0,,,,,,,,,,,,,,,,,,,,,,,,,,,,,,,,,,,,,,,,,,,,,,3,2024-01-09_10h43.26.831,watkins1,2023.2.3,99.76236623175906,77,2024-01-09 10h43.34.511997 +0000,
,,,,,,,,,,,17,0,17,0,,,,,,,,,,,,,359.73639510013163,,,,,,,,,,359.72824140032753,360.2183234002441,,,[],[],,,,,,,,,,,,None,None,,,,,,,,,,Telefon,gut,"['Telefon', 'gut']",restudy,3,,,,,,359.7281726002693,359.7282122001052,"['Schere', 'Lampe', 'Flasche', 'Vase', 'Kiste', 'Hammer', 'Rucksack', 'Kerze', 'Eimer', 'Bürste', 'Tasse', 'Geige', 'Würfel', 'Uhr', 'Trommel', 'Schlüssel', 'Tasche', 'Telefon', 'Fahrrad', 'Jacke', 'Kamera', 'Brille', 'Stift', 'Ring', 'Kette', 'Hut', 'Blume', 'Löffel', 'Buch', 'Socke']",360.2183346003294,360.22120970021933,None,360.2213355000131,366.23137470008805,3,2.871480999980122,None,366.2316708001308,366.2342228000052,None,366.2343350001611,366.23585609998554,366.2358681000769,366.23688500002027,,,,,,,,,,,,,,,,,,,,,,,,,,,,,,,,,,,,,,,,,,,,,,,3,2024-01-09_10h43.26.831,watkins1,2023.2.3,99.76236623175906,77,2024-01-09 10h43.34.511997 +0000,
,,,,,,,,,,,18,0,18,0,,,,,,,,,,,,,366.2408342002891,,,,,,,,,,366.2371717002243,366.73280190024525,,,[],[],,,,,,,,,,,niedlich,None,None,,,,,,,,,,Fahrrad,niedlich,"['Fahrrad', 'niedlich']",test_adj,3,,,,,,366.23710309993476,366.2371426001191,"['Schere', 'Lampe', 'Flasche', 'Vase', 'Kiste', 'Hammer', 'Rucksack', 'Kerze', 'Eimer', 'Bürste', 'Tasse', 'Geige', 'Würfel', 'Uhr', 'Trommel', 'Schlüssel', 'Tasche', 'Telefon', 'Fahrrad', 'Jacke', 'Kamera', 'Brille', 'Stift', 'Ring', 'Kette', 'Hut', 'Blume', 'Löffel', 'Buch', 'Socke']",366.7328129000962,366.7353603001684,None,366.7354863001965,366.7369456002489,None,,,366.7370553002693,366.7385897003114,None,366.7387002003379,372.7409820999019,372.7409967002459,372.7423558002338,0,,,,,,,,,,,,,,,,,,,,,,,,,,,,,,,,,,,,,,,,,,,,,,3,2024-01-09_10h43.26.831,watkins1,2023.2.3,99.76236623175906,77,2024-01-09 10h43.34.511997 +0000,
,,,,,,,,,,,19,0,19,0,,,,,,,,,,,,,372.750772499945,,,,,,,,,,372.7426436999813,373.2328245001845,,,[],[],,,,,,,,,,,dunkel,None,None,,,,,,,,,,Jacke,dunkel,"['Jacke', 'dunkel']",test_adj,3,,,,,,372.74257489992306,372.74261429999024,"['Schere', 'Lampe', 'Flasche', 'Vase', 'Kiste', 'Hammer', 'Rucksack', 'Kerze', 'Eimer', 'Bürste', 'Tasse', 'Geige', 'Würfel', 'Uhr', 'Trommel', 'Schlüssel', 'Tasche', 'Telefon', 'Fahrrad', 'Jacke', 'Kamera', 'Brille', 'Stift', 'Ring', 'Kette', 'Hut', 'Blume', 'Löffel', 'Buch', 'Socke']",373.23283459991217,373.23555580014363,None,373.2356791002676,373.23834950011224,None,,,373.23847170034423,373.2410265998915,None,373.2411361001432,379.24541469989344,379.2454290003516,379.2471416001208,0,,,,,,,,,,,,,,,,,,,,,,,,,,,,,,,,,,,,,,,,,,,,,,3,2024-01-09_10h43.26.831,watkins1,2023.2.3,99.76236623175906,77,2024-01-09 10h43.34.511997 +0000,
,,,,,,,,,,,20,0,20,0,,,,,,,,,,,,,379.2552129002288,,,,,,,,,,379.2474353001453,379.7372836000286,,,[],[],,,,,,,,,,,kurz,None,None,,,,,,,,,,Kamera,kurz,"['Kamera', 'kurz']",test_adj,3,,,,,,379.2473626001738,379.2474058000371,"['Schere', 'Lampe', 'Flasche', 'Vase', 'Kiste', 'Hammer', 'Rucksack', 'Kerze', 'Eimer', 'Bürste', 'Tasse', 'Geige', 'Würfel', 'Uhr', 'Trommel', 'Schlüssel', 'Tasche', 'Telefon', 'Fahrrad', 'Jacke', 'Kamera', 'Brille', 'Stift', 'Ring', 'Kette', 'Hut', 'Blume', 'Löffel', 'Buch', 'Socke']",379.73729490023106,379.74011030001566,None,379.74023630004376,379.74274099990726,None,,,379.742850900162,379.7453569001518,None,379.745466100052,385.750357599929,385.75037189992145,385.75154320010915,0,,,,,,,,,,,,,,,,,,,,,,,,,,,,,,,,,,,,,,,,,,,,,,3,2024-01-09_10h43.26.831,watkins1,2023.2.3,99.76236623175906,77,2024-01-09 10h43.34.511997 +0000,
,,,,,,,,,,,21,0,21,0,,,,,,,,,,,,,385.7601569001563,,,,,,,,,,385.751831300091,386.2421371000819,,,[],[],,,,,,,,,,,schwer,None,None,,,,,,,,,,Brille,schwer,"['Brille', 'schwer']",test_adj,3,,,,,,385.7517609000206,385.75180190009996,"['Schere', 'Lampe', 'Flasche', 'Vase', 'Kiste', 'Hammer', 'Rucksack', 'Kerze', 'Eimer', 'Bürste', 'Tasse', 'Geige', 'Würfel', 'Uhr', 'Trommel', 'Schlüssel', 'Tasche', 'Telefon', 'Fahrrad', 'Jacke', 'Kamera', 'Brille', 'Stift', 'Ring', 'Kette', 'Hut', 'Blume', 'Löffel', 'Buch', 'Socke']",386.2421474000439,386.2446980001405,None,386.24481990002096,386.24720210023224,None,,,386.2473106002435,386.24968350026757,None,386.24979110015556,392.25356200011447,392.2535772002302,392.25495610013604,0,,,,,,,,,,,,,,,,,,,,,,,,,,,,,,,,,,,,,,,,,,,,,,3,2024-01-09_10h43.26.831,watkins1,2023.2.3,99.76236623175906,77,2024-01-09 10h43.34.511997 +0000,
,,,,,,,,,,,22,0,22,0,,,,,,,,,,,,,392.2634029001929,,,,,,,,,,392.25525330007076,392.74557840032503,,,[],[],,,,,,,,,,,,None,None,,,,,,,,,,Stift,klobig,"['Stift', 'klobig']",restudy,3,,,,,,392.2551810001023,392.25522459996864,"['Schere', 'Lampe', 'Flasche', 'Vase', 'Kiste', 'Hammer', 'Rucksack', 'Kerze', 'Eimer', 'Bürste', 'Tasse', 'Geige', 'Würfel', 'Uhr', 'Trommel', 'Schlüssel', 'Tasche', 'Telefon', 'Fahrrad', 'Jacke', 'Kamera', 'Brille', 'Stift', 'Ring', 'Kette', 'Hut', 'Blume', 'Löffel', 'Buch', 'Socke']",392.74558950029314,392.74847360001877,None,392.74859989993274,398.75814930023625,1,2.159916200209409,None,398.7584604001604,398.7612592000514,None,398.76137310033664,398.7628363003023,398.7628482002765,398.7640211000107,,,,,,,,,,,,,,,,,,,,,,,,,,,,,,,,,,,,,,,,,,,,,,,3,2024-01-09_10h43.26.831,watkins1,2023.2.3,99.76236623175906,77,2024-01-09 10h43.34.511997 +0000,
,,,,,,,,,,,23,0,23,0,,,,,,,,,,,,,398.7676162002608,,,,,,,,,,398.7643120000139,399.25961830001324,,,[],[],,,,,,,,,,,,None,None,,,,,,,,,,Ring,glatt,"['Ring', 'glatt']",test_adj,3,,,,,,398.76424620021135,398.76428480027243,"['Schere', 'Lampe', 'Flasche', 'Vase', 'Kiste', 'Hammer', 'Rucksack', 'Kerze', 'Eimer', 'Bürste', 'Tasse', 'Geige', 'Würfel', 'Uhr', 'Trommel', 'Schlüssel', 'Tasche', 'Telefon', 'Fahrrad', 'Jacke', 'Kamera', 'Brille', 'Stift', 'Ring', 'Kette', 'Hut', 'Blume', 'Löffel', 'Buch', 'Socke']",399.25962920021266,399.2622122000903,None,399.2623372003436,399.26365029998124,None,,,399.2637595999986,399.26508049992844,None,399.26518870005384,405.26643940014765,405.26645349990577,405.26773840002716,0,,,,,,,,,,,,,,,,,,,,,,,,,,,,,,,,,,,,,,,,,,,,,,3,2024-01-09_10h43.26.831,watkins1,2023.2.3,99.76236623175906,77,2024-01-09 10h43.34.511997 +0000,
,,,,,,,,,,,24,0,24,0,,,,,,,,,,,,,405.2763017001562,,,,,,,,,,405.26802590023726,405.75826290016994,,,[],[],,,,,,,,,,,,None,None,,,,,,,,,,Kette,breit,"['Kette', 'breit']",restudy,3,,,,,,405.26795729994774,405.26799659989774,"['Schere', 'Lampe', 'Flasche', 'Vase', 'Kiste', 'Hammer', 'Rucksack', 'Kerze', 'Eimer', 'Bürste', 'Tasse', 'Geige', 'Würfel', 'Uhr', 'Trommel', 'Schlüssel', 'Tasche', 'Telefon', 'Fahrrad', 'Jacke', 'Kamera', 'Brille', 'Stift', 'Ring', 'Kette', 'Hut', 'Blume', 'Löffel', 'Buch', 'Socke']",405.7582737999037,405.76097809989005,None,405.76110260002315,411.76242549996823,3,2.41162439994514,None,411.7627213001251,411.7653560000472,None,411.76546740019694,411.7667399002239,411.76675170008093,411.76796599989757,,,,,,,,,,,,,,,,,,,,,,,,,,,,,,,,,,,,,,,,,,,,,,,3,2024-01-09_10h43.26.831,watkins1,2023.2.3,99.76236623175906,77,2024-01-09 10h43.34.511997 +0000,
,,,,,,,,,,,25,0,25,0,,,,,,,,,,,,,411.7719034003094,,,,,,,,,,411.7682465999387,412.26395770022646,,,[],[],,,,,,,,,,,,None,None,,,,,,,,,,Hut,hohl,"['Hut', 'hohl']",restudy,3,,,,,,411.76818099990487,411.768219999969,"['Schere', 'Lampe', 'Flasche', 'Vase', 'Kiste', 'Hammer', 'Rucksack', 'Kerze', 'Eimer', 'Bürste', 'Tasse', 'Geige', 'Würfel', 'Uhr', 'Trommel', 'Schlüssel', 'Tasche', 'Telefon', 'Fahrrad', 'Jacke', 'Kamera', 'Brille', 'Stift', 'Ring', 'Kette', 'Hut', 'Blume', 'Löffel', 'Buch', 'Socke']",412.2639692001976,412.2665133001283,None,412.266638699919,418.2708068001084,3,2.1142206001095474,None,418.27110450016335,418.2735019000247,None,418.27361420029774,418.2746497001499,418.2746616001241,418.2757143001072,,,,,,,,,,,,,,,,,,,,,,,,,,,,,,,,,,,,,,,,,,,,,,,3,2024-01-09_10h43.26.831,watkins1,2023.2.3,99.76236623175906,77,2024-01-09 10h43.34.511997 +0000,
,,,,,,,,,,,26,0,26,0,,,,,,,,,,,,,418.2802291000262,,,,,,,,,,418.2759982999414,418.7722272002138,,,[],[],,,,,,,,,,,,None,None,,,,,,,,,,Blume,rustikal,"['Blume', 'rustikal']",restudy,3,,,,,,418.275932200253,418.27597110019997,"['Schere', 'Lampe', 'Flasche', 'Vase', 'Kiste', 'Hammer', 'Rucksack', 'Kerze', 'Eimer', 'Bürste', 'Tasse', 'Geige', 'Würfel', 'Uhr', 'Trommel', 'Schlüssel', 'Tasche', 'Telefon', 'Fahrrad', 'Jacke', 'Kamera', 'Brille', 'Stift', 'Ring', 'Kette', 'Hut', 'Blume', 'Löffel', 'Buch', 'Socke']",418.7722378000617,418.7747796000913,None,418.77490340033546,424.7779743000865,1,2.1339082000777125,None,424.7782723000273,424.7810817002319,None,424.7811937001534,424.7823495003395,424.7823612000793,424.7835655002855,,,,,,,,,,,,,,,,,,,,,,,,,,,,,,,,,,,,,,,,,,,,,,,3,2024-01-09_10h43.26.831,watkins1,2023.2.3,99.76236623175906,77,2024-01-09 10h43.34.511997 +0000,
,,,,,,,,,,,27,0,27,0,,,,,,,,,,,,,424.78726190002635,,,,,,,,,,424.7838477003388,425.2793711000122,,,[],[],,,,,,,,,,,,None,None,,,,,,,,,,Löffel,elegant,"['Löffel', 'elegant']",restudy,3,,,,,,424.7837833003141,424.7838213001378,"['Schere', 'Lampe', 'Flasche', 'Vase', 'Kiste', 'Hammer', 'Rucksack', 'Kerze', 'Eimer', 'Bürste', 'Tasse', 'Geige', 'Würfel', 'Uhr', 'Trommel', 'Schlüssel', 'Tasche', 'Telefon', 'Fahrrad', 'Jacke', 'Kamera', 'Brille', 'Stift', 'Ring', 'Kette', 'Hut', 'Blume', 'Löffel', 'Buch', 'Socke']",425.2793823000975,425.28213760023937,None,425.28226529993117,431.283542400226,1,1.9624517001211643,None,431.28383870003745,431.2868226999417,None,431.2869351999834,431.28811140032485,431.28812339995056,431.2893298002891,,,,,,,,,,,,,,,,,,,,,,,,,,,,,,,,,,,,,,,,,,,,,,,3,2024-01-09_10h43.26.831,watkins1,2023.2.3,99.76236623175906,77,2024-01-09 10h43.34.511997 +0000,
,,,,,,,,,,,28,0,28,0,,,,,,,,,,,,,431.2930032000877,,,,,,,,,,431.28961500013247,431.7849675999023,,,[],[],,,,,,,,,,,,None,None,,,,,,,,,,Buch,lustig,"['Buch', 'lustig']",restudy,3,,,,,,431.2895488003269,431.28958779992536,"['Schere', 'Lampe', 'Flasche', 'Vase', 'Kiste', 'Hammer', 'Rucksack', 'Kerze', 'Eimer', 'Bürste', 'Tasse', 'Geige', 'Würfel', 'Uhr', 'Trommel', 'Schlüssel', 'Tasche', 'Telefon', 'Fahrrad', 'Jacke', 'Kamera', 'Brille', 'Stift', 'Ring', 'Kette', 'Hut', 'Blume', 'Löffel', 'Buch', 'Socke']",431.78497870033607,431.78756739990786,None,431.78769030002877,437.790370200295,2,1.617191200144589,None,437.7906693001278,437.7933093002066,None,437.79342220025137,437.79446509992704,437.79447699990124,437.7956449999474,,,,,,,,,,,,,,,,,,,,,,,,,,,,,,,,,,,,,,,,,,,,,,,3,2024-01-09_10h43.26.831,watkins1,2023.2.3,99.76236623175906,77,2024-01-09 10h43.34.511997 +0000,
,,,,,,,,,,,29,0,29,0,,,,,,,,,,,,,437.79976030020043,,,,,,,,,,437.7959280000068,438.29188540019095,,,[],[],,,,,,,,,,,,None,None,,,,,,,,,,Socke,winzig,"['Socke', 'winzig']",restudy,3,,,,,,437.79586310032755,437.7959012002684,"['Schere', 'Lampe', 'Flasche', 'Vase', 'Kiste', 'Hammer', 'Rucksack', 'Kerze', 'Eimer', 'Bürste', 'Tasse', 'Geige', 'Würfel', 'Uhr', 'Trommel', 'Schlüssel', 'Tasche', 'Telefon', 'Fahrrad', 'Jacke', 'Kamera', 'Brille', 'Stift', 'Ring', 'Kette', 'Hut', 'Blume', 'Löffel', 'Buch', 'Socke']",438.2918962002732,438.2945425999351,None,438.29466379992664,444.29635479999706,2,3.3821458998136222,None,444.2966482001357,444.2992802001536,None,444.29939020005986,444.30068080034107,444.3006927999668,444.3018499999307,,,,,,,,,,,,,,,,,,,,,,,,,,,,,,,,,,,,,,,,,,,,,,,3,2024-01-09_10h43.26.831,watkins1,2023.2.3,99.76236623175906,77,2024-01-09 10h43.34.511997 +0000,
,,,,,,,,,,,,,,,,,,,,,,,,,,,,,,,,,,,,,,,,,,,,,,,,,,,,,,,,,,,,,,,,,,,,,3,,,,,,,,,,,,,,,,,,,,,,,,,,,,,,,,,,,,,,,,,,,,,,,,,,,,,,,,,,,,,,,,,,,,,,3,2024-01-09_10h43.26.831,watkins1,2023.2.3,99.76236623175906,77,2024-01-09 10h43.34.511997 +0000,
(9 x 5) - 9 = 36 ,Correct,button_correct,,,,,,,,,,,,,0,0,0,4,,,,,,,,,461.5705474000424,,,,,,,,460.514833800029,461.5183287002146,,,,,['button_incorrect'],[8.394342000130564],,,,,,,,,,,,,,,,,,,,,,,,,,distractorTask,3,,,,,,,,,,,,,,,,,,,,,,,,,461.5581825003028,461.5705474000424,469.95853700023144,[-0.3962962962962963],[-0.3907407407407407],[1],[0],[0],[8.394342000130564],['button_incorrect'],469.9592297002673,470.96196980029345,,,,,,,,,,,,,,,,,,,,,,,,,,,,,,,,,,3,2024-01-09_10h43.26.831,watkins1,2023.2.3,99.76236623175906,77,2024-01-09 10h43.34.511997 +0000,
(80 : 10) + 9 = 17 ,Correct,button_correct,,,,,,,,,,,,,0,1,1,3,,,,,,,,,470.9719541002996,,,,,,,,,,,,,,['button_correct'],[6.793808100279421],,,,,,,,,,,,,,,,,,,,,,,,,,distractorTask,3,,,,,,,,,,,,,,,,,,,,,,,,,470.9621632001363,470.9719541002996,477.75995719991624,[0.3648148148148148],[-0.41759259259259257],[1],[0],[0],[6.793808100279421],['button_correct'],477.76034020027146,478.76342760026455,,,,,,,,,,,,,,,,,,,,,,,,,,,,,,,,,,3,2024-01-09_10h43.26.831,watkins1,2023.2.3,99.76236623175906,77,2024-01-09 10h43.34.511997 +0000,
(2 x 5) + 3 = 13 ,Correct,button_correct,,,,,,,,,,,,,0,2,2,2,,,,,,,,,478.77340670023113,,,,,,,,,,,,,,['button_correct'],[2.3174271997995675],,,,,,,,,,,,,,,,,,,,,,,,,,distractorTask,3,,,,,,,,,,,,,,,,,,,,,,,,,478.76362049998716,478.77340670023113,481.08321529999375,[0.32222222222222224],[-0.40555555555555556],[1],[0],[0],[2.3174271997995675],['button_correct'],481.0835958002135,482.08689030027017,,,,,,,,,,,,,,,,,,,,,,,,,,,,,,,,,,3,2024-01-09_10h43.26.831,watkins1,2023.2.3,99.76236623175906,77,2024-01-09 10h43.34.511997 +0000,
(40 : 5) + 8 = 15 ,Incorrect,button_incorrect,,,,,,,,,,,,,0,3,3,7,,,,,,,,,482.0968752000481,,,,,,,,,,,,,,['button_incorrect'],[2.9500028998591006],,,,,,,,,,,,,,,,,,,,,,,,,,distractorTask,3,,,,,,,,,,,,,,,,,,,,,,,,,482.0870831999928,482.0968752000481,485.0393775003031,[-0.3907407407407407],[-0.40555555555555556],[1],[0],[0],[2.9500028998591006],['button_incorrect'],485.03976540034637,486.0428527002223,,,,,,,,,,,,,,,,,,,,,,,,,,,,,,,,,,3,2024-01-09_10h43.26.831,watkins1,2023.2.3,99.76236623175906,77,2024-01-09 10h43.34.511997 +0000,
(54 : 6) - 10 = 0 ,Incorrect,button_incorrect,,,,,,,,,,,,,0,4,4,5,,,,,,,,,486.0528159001842,,,,,,,,,,,,,,['button_incorrect'],[8.422857200261205],,,,,,,,,,,,,,,,,,,,,,,,,,distractorTask,3,,,,,,,,,,,,,,,,,,,,,,,,,486.04303910024464,486.0528159001842,494.467616900336,[-0.3685185185185185],[-0.412962962962963],[1],[0],[0],[8.422857200261205],['button_incorrect'],494.4679982000962,495.4713213001378,,,,,,,,,,,,,,,,,,,,,,,,,,,,,,,,,,3,2024-01-09_10h43.26.831,watkins1,2023.2.3,99.76236623175906,77,2024-01-09 10h43.34.511997 +0000,
(6 x 3) + 10 = 27 ,Incorrect,button_incorrect,,,,,,,,,,,,,0,5,5,8,,,,,,,,,495.4813700001687,,,,,,,,,,,,,,['button_incorrect'],[3.5929123000241816],,,,,,,,,,,,,,,,,,,,,,,,,,distractorTask,3,,,,,,,,,,,,,,,,,,,,,,,,,495.4715148000978,495.4813700001687,499.06618149997666,[-0.29444444444444445],[-0.4027777777777778],[1],[0],[0],[3.5929123000241816],['button_incorrect'],499.0665724002756,500.06980850035325,,,,,,,,,,,,,,,,,,,,,,,,,,,,,,,,,,3,2024-01-09_10h43.26.831,watkins1,2023.2.3,99.76236623175906,77,2024-01-09 10h43.34.511997 +0000,
(4 : 2) + 4 = 6 ,Correct,button_correct,,,,,,,,,,,,,0,6,6,1,,,,,,,,,500.0797747001052,,,,,,,,,,,,,,['button_correct'],[3.613645799923688],,,,,,,,,,,,,,,,,,,,,,,,,,distractorTask,3,,,,,,,,,,,,,,,,,,,,,,,,,500.07000879989937,500.0797747001052,503.6853503002785,[0.387037037037037],[-0.4166666666666667],[1],[0],[0],[3.613645799923688],['button_correct'],503.68573269993067,504.688874500338,,,,,,,,,,,,,,,,,,,,,,,,,,,,,,,,,,3,2024-01-09_10h43.26.831,watkins1,2023.2.3,99.76236623175906,77,2024-01-09 10h43.34.511997 +0000,
(25 : 5) + 5 = 9 ,Incorrect,button_incorrect,,,,,,,,,,,,,0,7,7,6,,,,,,,,,504.69881319999695,,,,,,,,,,,,,,['button_incorrect'],[3.331936299800873],,,,,,,,,,,,,,,,,,,,,,,,,,distractorTask,3,,,,,,,,,,,,,,,,,,,,,,,,,504.6890620999038,504.69881319999695,508.0227033002302,[-0.3768518518518518],[-0.40555555555555556],[1],[0],[0],[3.331936299800873],['button_incorrect'],508.023127600085,509.02624690020457,,,,,,,,,,,,,,,,,,,,,,,,,,,,,,,,,,3,2024-01-09_10h43.26.831,watkins1,2023.2.3,99.76236623175906,77,2024-01-09 10h43.34.511997 +0000,
(28 : 7) - 3 = 1 ,Correct,button_correct,,,,,,,,,,,,,0,8,8,0,,,,,,,,,509.0362229999155,,,,,,,,,,,,,,['button_correct'],[4.677378099877387],,,,,,,,,,,,,,,,,,,,,,,,,,distractorTask,3,,,,,,,,,,,,,,,,,,,,,,,,,509.0264351000078,509.0362229999155,513.7055208999664,[0.3824074074074074],[-0.40925925925925927],[1],[0],[0],[4.677378099877387],['button_correct'],513.7059031003155,514.7092601000331,,,,,,,,,,,,,,,,,,,,,,,,,,,,,,,,,,3,2024-01-09_10h43.26.831,watkins1,2023.2.3,99.76236623175906,77,2024-01-09 10h43.34.511997 +0000,
(7 x 6) + 9 = 48 ,Incorrect,button_incorrect,,,,,,,,,,,,,0,9,9,9,,,,,,,,,514.7192259002477,,,,,,,,,,,,,,['button_incorrect'],[7.267635100055486],,,,,,,,,,,,,,,,,,,,,,,,,,distractorTask,3,,,,,,,,,,,,,,,,,,,,,,,,,514.7094511003233,514.7192259002477,521.978815600276,[-0.39351851851851855],[-0.4009259259259259],[1],[0],[0],[7.267635100055486],['button_incorrect'],521.9791899002157,522.982479700353,,,,,,,,,,,,,,,,,,,,,,,,,,,,,,,,,,3,2024-01-09_10h43.26.831,watkins1,2023.2.3,99.76236623175906,77,2024-01-09 10h43.34.511997 +0000,
,,,,,,,,,,,,,,,,,,,,,,,,,,,,,,,,,,,,,,,,,,,,,,,,,,,,,,,,,,,,,,,,,,,,,3,,,,,,,,,,,,,,,,,,,,,,,,,,,,,,,,,,,,,,,,,,,,,,,,,,,,,,,,,,,,,,,,,,,,,,3,2024-01-09_10h43.26.831,watkins1,2023.2.3,99.76236623175906,77,2024-01-09 10h43.34.511997 +0000,
,,,,,,,,,,,,,,,,,,,0,0,0,0,,,,,533.2412004000507,,,,,,,,,,,,,,flasche,53.40815690020099,,,,,,,,,,,,9.799900399986655,41.211013899650425,,,,,,,,,,,,,freeRecallSub,3,,,,,,,,,,,,,,,,,,,,,,,,,,,,,,,,,,,,,533.2326372000389,533.2412004000507,533.2412004000507,586.6585621000268,return,53.40815690020099,None,flasche,"[-0.6509259259259259, 0.009259259259259259, -0.6990740740740741, -0.4962962962962963, 0.046296296296296294, 0.027777777777777776]","[0.18611111111111112, 0.04351851851851852, 0.3111111111111111, 0.35, 0.05185185185185185, 0.05185185185185185]","[1, 1, 1, 1, 1, 1]","[0, 0, 0, 0, 0, 0]","[0, 0, 0, 0, 0, 0]","[3.393591099884361, 4.678401599638164, 43.4190539997071, 44.49335019988939, 46.22040449967608, 49.011600399855524]",[],,,,,,,,,,,,,,,,,,,3,2024-01-09_10h43.26.831,watkins1,2023.2.3,99.76236623175906,77,2024-01-09 10h43.34.511997 +0000,
,,,,,,,,,,,,,,,,,,,1,0,1,0,,,,,586.6714357999153,,,,,,,,,,,,,,tasche,2.4819698999635875,,,,,,,,,,,,1.1479615001007915,None,,,,,,,,,,,,,freeRecallSub,3,,,,,,,,,,,,,,,,,,,,,,,,,,,,,,,,,,,,,586.6604443001561,586.6714357999153,586.6714357999153,589.1635980000719,return,2.4819698999635875,None,tasche,[],[],[],[],[],[],[],,,,,,,,,,,,,,,,,,,3,2024-01-09_10h43.26.831,watkins1,2023.2.3,99.76236623175906,77,2024-01-09 10h43.34.511997 +0000,
,,,,,,,,,,,,,,,,,,,2,0,2,0,,,,,589.17349260021,,,,,,,,,,,,,,kerze,2.2838266999460757,,,,,,,,,,,,1.1939461999572814,None,,,,,,,,,,,,,freeRecallSub,3,,,,,,,,,,,,,,,,,,,,,,,,,,,,,,,,,,,,,589.1648568003438,589.17349260021,589.17349260021,591.4634096003138,return,2.2838266999460757,None,kerze,[],[],[],[],[],[],[],,,,,,,,,,,,,,,,,,,3,2024-01-09_10h43.26.831,watkins1,2023.2.3,99.76236623175906,77,2024-01-09 10h43.34.511997 +0000,
,,,,,,,,,,,,,,,,,,,3,0,3,0,,,,,591.4743029000238,,,,,,,,,,,,,,brille,2.0310188997536898,,,,,,,,,,,,0.6327136000618339,None,,,,,,,,,,,,,freeRecallSub,3,,,,,,,,,,,,,,,,,,,,,,,,,,,,,,,,,,,,,591.464665800333,591.4743029000238,591.4743029000238,593.5130046000704,return,2.0310188997536898,None,brille,[],[],[],[],[],[],[],,,,,,,,,,,,,,,,,,,3,2024-01-09_10h43.26.831,watkins1,2023.2.3,99.76236623175906,77,2024-01-09 10h43.34.511997 +0000,
,,,,,,,,,,,,,,,,,,,4,0,4,0,,,,,593.5240382999182,,,,,,,,,,,,,,katze,1.7972245002165437,,,,,,,,,,,,0.5425571002997458,None,,,,,,,,,,,,,freeRecallSub,3,,,,,,,,,,,,,,,,,,,,,,,,,,,,,,,,,,,,,593.5142598003149,593.5240382999182,593.5240382999182,595.3219456002116,return,1.7972245002165437,None,katze,[],[],[],[],[],[],[],,,,,,,,,,,,,,,,,,,3,2024-01-09_10h43.26.831,watkins1,2023.2.3,99.76236623175906,77,2024-01-09 10h43.34.511997 +0000,
,,,,,,,,,,,,,,,,,,,5,0,5,0,,,,,595.3327808999456,,,,,,,,,,,,,,ring,1.9566174000501633,,,,,,,,,,,,0.7127656997181475,None,,,,,,,,,,,,,freeRecallSub,3,,,,,,,,,,,,,,,,,,,,,,,,,,,,,,,,,,,,,595.323211000301,595.3327808999456,595.3327808999456,597.2910214001313,return,1.9566174000501633,None,ring,[],[],[],[],[],[],[],,,,,,,,,,,,,,,,,,,3,2024-01-09_10h43.26.831,watkins1,2023.2.3,99.76236623175906,77,2024-01-09 10h43.34.511997 +0000,
,,,,,,,,,,,,,,,,,,,6,0,6,0,,,,,597.3026821999811,,,,,,,,,,,,,,jacke,14.154632200021297,,,,,,,,,,,,12.381549200043082,None,,,,,,,,,,,,,freeRecallSub,3,,,,,,,,,,,,,,,,,,,,,,,,,,,,,,,,,,,,,597.292284599971,597.3026821999811,597.3026821999811,611.461407000199,return,14.154632200021297,None,jacke,[],[],[],[],[],[],[],,,,,,,,,,,,,,,,,,,3,2024-01-09_10h43.26.831,watkins1,2023.2.3,99.76236623175906,77,2024-01-09 10h43.34.511997 +0000,
,,,,,,,,,,,,,,,,,,,7,0,7,0,,,,,611.4731140001677,,,,,,,,,,,,,,schlüssel,16.77612189995125,,,,,,,,,,,,14.048877799883485,None,,,,,,,,,,,,,freeRecallSub,3,,,,,,,,,,,,,,,,,,,,,,,,,,,,,,,,,,,,,611.4626796003431,611.4731140001677,611.4731140001677,628.2527141999453,return,16.77612189995125,None,schlüssel,[],[],[],[],[],[],[],,,,,,,,,,,,,,,,,,,3,2024-01-09_10h43.26.831,watkins1,2023.2.3,99.76236623175906,77,2024-01-09 10h43.34.511997 +0000,
,,,,,,,,,,,,,,,,,,,8,0,8,0,,,,,628.2654500999488,,,,,,,,,,,,,,fahrrad,21.575944400392473,,,,,,,,,,,,14.361425899900496,None,,,,,,,,,,,,,freeRecallSub,3,,,,,,,,,,,,,,,,,,,,,,,,,,,,,,,,,,,,,628.2539662001655,628.2654500999488,628.2654500999488,649.8456627000123,return,21.575944400392473,None,fahrrad,[],[],[],[],[],[],[],,,,,,,,,,,,,,,,,,,3,2024-01-09_10h43.26.831,watkins1,2023.2.3,99.76236623175906,77,2024-01-09 10h43.34.511997 +0000,
,,,,,,,,,,,,,,,,,,,9,0,9,0,,,,,649.8577394001186,,,,,,,,,,,,,,,[],,,,,,,,,,,,None,None,,,,,,,,,,,,,freeRecallSub,3,,,,,,,,,,,,,,,,,,,,,,,,,,,,,,,,,,,,,649.8469334999099,649.8577394001186,649.8577394001186,661.4268940999173,None,,,,[0.11481481481481481],[-0.39814814814814814],[1],[0],[0],[11.575502699706703],['button_continue'],,,,,,,,,,,,,,,,,,,3,2024-01-09_10h43.26.831,watkins1,2023.2.3,99.76236623175906,77,2024-01-09 10h43.34.511997 +0000,
,,,,,,,,,,,,,,,,,,,,,,,,,,,,,,,,,,,,,,,,,,,,,,,,,,,,,,,,,,,,,,,,,,,,,3,,,,,,,,,,,,,,,,,,,,,,,,,,,,,,,,,,,,,,,,,,,,,,,,,,,,,,,,,,,,,,,,,,,,,,3,2024-01-09_10h43.26.831,watkins1,2023.2.3,99.76236623175906,77,2024-01-09 10h43.34.511997 +0000,
,,,,,,,,,,,,,,,,,,,,,,,0,0,0,0,667.8840421000496,,,,,,,,,,673.6308062002063,674.129109099973,,,,5.741247999947518,,,,,,,,,,,,None,None,,,,,,,,,,Tasse,,,cuedRecallAdj,3,,,,,,,,,,,,,,,,,,,,,,,,0,,,,,,,,,,,,,,,,,,,,,,,,,,,,667.8748389002867,667.8840421000496,667.8840421000496,673.6275994000025,kapputt,return,5.741247999947518,None,673.6279949001037,673.6371085001156,673.6371085001156,673.6306520001963,,None,,,,,3,2024-01-09_10h43.26.831,watkins1,2023.2.3,99.76236623175906,77,2024-01-09 10h43.34.511997 +0000,
,,,,,,,,,,,,,,,,,,,,,,,1,0,1,0,674.1391691002063,,,,,,,,,,679.0220923000015,679.5207458999939,,,,4.878075200133026,,,,,,,,,,,,None,None,,,,,,,,,,Uhr,,,cuedRecallAdj,3,,,,,,,,,,,,,,,,,,,,,,,,0,,,,,,,,,,,,,,,,,,,,,,,,,,,,674.1293518999591,674.1391691002063,674.1391691002063,679.0191735001281,glänzend,return,4.878075200133026,None,679.0194379999302,679.0287656001747,679.0287656001747,679.0219900002703,,None,,,,,3,2024-01-09_10h43.26.831,watkins1,2023.2.3,99.76236623175906,77,2024-01-09 10h43.34.511997 +0000,
,,,,,,,,,,,,,,,,,,,,,,,2,0,2,0,679.5307021001354,,,,,,,,,,684.203344900161,684.7017006999813,,,,4.662642600014806,,,,,,,,,,,,None,None,,,,,,,,,,Schlüssel,,,cuedRecallAdj,3,,,,,,,,,,,,,,,,,,,,,,,,0,,,,,,,,,,,,,,,,,,,,,,,,,,,,679.5209876000881,679.5307021001354,679.5307021001354,684.2000791002065,biegsam,return,4.662642600014806,None,684.2003445001319,684.2096200999804,684.2096200999804,684.2032435000874,,None,,,,,3,2024-01-09_10h43.26.831,watkins1,2023.2.3,99.76236623175906,77,2024-01-09 10h43.34.511997 +0000,
,,,,,,,,,,,,,,,,,,,,,,,3,0,3,0,684.7116342000663,,,,,,,,,,687.7975008003414,688.2959723002277,,,,3.0816247002221644,,,,,,,,,,,,None,None,,,,,,,,,,Hut,,,cuedRecallAdj,3,,,,,,,,,,,,,,,,,,,,,,,,0,,,,,,,,,,,,,,,,,,,,,,,,,,,,684.7019430999644,684.7116342000663,684.7116342000663,687.794528500177,hohl,return,3.0816247002221644,None,687.7948007001542,687.8040459002368,687.8040459002368,687.797396000009,,None,,,,,3,2024-01-09_10h43.26.831,watkins1,2023.2.3,99.76236623175906,77,2024-01-09 10h43.34.511997 +0000,
,,,,,,,,,,,,,,,,,,,,,,,4,0,4,0,688.3060182002373,,,,,,,,,,690.8694136999547,691.3683139001951,,,,2.5512256999500096,,,,,,,,,,,,None,None,,,,,,,,,,Geige,,,cuedRecallAdj,3,,,,,,,,,,,,,,,,,,,,,,,,0,,,,,,,,,,,,,,,,,,,,,,,,,,,,688.29621590022,688.3060182002373,688.3060182002373,690.8665547003038,bunt,return,2.5512256999500096,None,690.8668173002079,690.8762753000483,690.8762753000483,690.8693110002205,,None,,,,,3,2024-01-09_10h43.26.831,watkins1,2023.2.3,99.76236623175906,77,2024-01-09 10h43.34.511997 +0000,
,,,,,,,,,,,,,,,,,,,,,,,5,0,5,0,691.3782597999088,,,,,,,,,,694.8656764999032,695.3641817001626,,,,3.4790537003427744,,,,,,,,,,,,None,None,,,,,,,,,,Kamera,,,cuedRecallAdj,3,,,,,,,,,,,,,,,,,,,,,,,,0,,,,,,,,,,,,,,,,,,,,,,,,,,,,691.368562000338,691.3782597999088,691.3782597999088,694.8626236002892,kurz,return,3.4790537003427744,None,694.8629084001295,694.8721976000816,694.8721976000816,694.8655747002922,,None,,,,,3,2024-01-09_10h43.26.831,watkins1,2023.2.3,99.76236623175906,77,2024-01-09 10h43.34.511997 +0000,
,,,,,,,,,,,,,,,,,,,,,,,6,0,6,0,695.3742209002376,,,,,,,,,,699.5043510003015,700.0029049003497,,,,4.123179899994284,,,,,,,,,,,,None,None,,,,,,,,,,Eimer,,,cuedRecallAdj,3,,,,,,,,,,,,,,,,,,,,,,,,0,,,,,,,,,,,,,,,,,,,,,,,,,,,,695.3644230999053,695.3742209002376,695.3742209002376,699.501223700121,teuer,return,4.123179899994284,None,699.5015108003281,699.5107752000913,699.5107752000913,699.5042439000681,,None,,,,,3,2024-01-09_10h43.26.831,watkins1,2023.2.3,99.76236623175906,77,2024-01-09 10h43.34.511997 +0000,
,,,,,,,,,,,,,,,,,,,,,,,7,0,7,0,700.0128494002856,,,,,,,,,,703.9720013001934,704.4707194999792,,,,3.9485179004259408,,,,,,,,,,,,None,None,,,,,,,,,,Löffel,,,cuedRecallAdj,3,,,,,,,,,,,,,,,,,,,,,,,,0,,,,,,,,,,,,,,,,,,,,,,,,,,,,700.00315960031,700.0128494002856,700.0128494002856,703.9690205003135,elegant,return,3.9485179004259408,None,703.969279800076,703.9786812001839,703.9786812001839,703.9718985999934,,None,,,,,3,2024-01-09_10h43.26.831,watkins1,2023.2.3,99.76236623175906,77,2024-01-09 10h43.34.511997 +0000,
,,,,,,,,,,,,,,,,,,,,,,,8,0,8,0,704.4806301998906,,,,,,,,,,711.1413716999814,711.6396941002458,,,,6.6487640999257565,,,,,,,,,,,,None,None,,,,,,,,,,Tasche,,,cuedRecallAdj,3,,,,,,,,,,,,,,,,,,,,,,,,0,,,,,,,,,,,,,,,,,,,,,,,,,,,,704.4709644000977,704.4806301998906,704.4806301998906,711.1380608002655,durchsichtig,return,6.6487640999257565,None,711.1383258001879,711.1477423002943,711.1477423002943,711.1412698002532,,None,,,,,3,2024-01-09_10h43.26.831,watkins1,2023.2.3,99.76236623175906,77,2024-01-09 10h43.34.511997 +0000,
,,,,,,,,,,,,,,,,,,,,,,,9,0,9,0,711.6496441001073,,,,,,,,,,721.5335750002414,722.0318920002319,,,,9.879719299729913,,,,,,,,,,,,None,None,,,,,,,,,,Blume,,,cuedRecallAdj,3,,,,,,,,,,,,,,,,,,,,,,,,0,,,,,,,,,,,,,,,,,,,,,,,,,,,,711.6399385002442,711.6496441001073,711.6496441001073,721.5303369001485,rustikal,return,9.879719299729913,None,721.5306266001426,721.5398653000593,721.5398653000593,721.5334568000399,,None,,,,,3,2024-01-09_10h43.26.831,watkins1,2023.2.3,99.76236623175906,77,2024-01-09 10h43.34.511997 +0000,
,,,,,,,,,,,,,,,,,,,,,,,10,0,10,0,722.0419173003174,,,,,,,,,,725.8210591999814,726.3197182998993,,,,3.7674233000725508,,,,,,,,,,,,None,None,,,,,,,,,,Schere,,,cuedRecallAdj,3,,,,,,,,,,,,,,,,,,,,,,,,0,,,,,,,,,,,,,,,,,,,,,,,,,,,,722.0321353003383,722.0419173003174,722.0419173003174,725.8180102002807,biegsam,return,3.7674233000725508,None,725.8182868999429,725.8277322002687,725.8277322002687,725.820956800133,,None,,,,,3,2024-01-09_10h43.26.831,watkins1,2023.2.3,99.76236623175906,77,2024-01-09 10h43.34.511997 +0000,
,,,,,,,,,,,,,,,,,,,,,,,11,0,11,0,726.3296656003222,,,,,,,,,,731.2831351002678,731.7817836999893,,,,4.943665900267661,,,,,,,,,,,,None,None,,,,,,,,,,Vase,,,cuedRecallAdj,3,,,,,,,,,,,,,,,,,,,,,,,,0,,,,,,,,,,,,,,,,,,,,,,,,,,,,726.319965899922,726.3296656003222,726.3296656003222,731.2802320001647,nachhaltig,return,4.943665900267661,None,731.2804939001799,731.289793100208,731.289793100208,731.283035099972,,None,,,,,3,2024-01-09_10h43.26.831,watkins1,2023.2.3,99.76236623175906,77,2024-01-09 10h43.34.511997 +0000,
,,,,,,,,,,,,,,,,,,,,,,,12,0,12,0,731.7917162002996,,,,,,,,,,734.0641226000153,734.5629548002034,,,,2.265626600012183,,,,,,,,,,,,None,None,,,,,,,,,,Telefon,,,cuedRecallAdj,3,,,,,,,,,,,,,,,,,,,,,,,,0,,,,,,,,,,,,,,,,,,,,,,,,,,,,731.7820251001976,731.7917162002996,731.7917162002996,734.0612793001346,gut,return,2.265626600012183,None,734.0615380001254,734.0708828000352,734.0708828000352,734.063985100016,,None,,,,,3,2024-01-09_10h43.26.831,watkins1,2023.2.3,99.76236623175906,77,2024-01-09 10h43.34.511997 +0000,
,,,,,,,,,,,,,,,,,,,,,,,13,0,13,0,734.5728962002322,,,,,,,,,,737.5782959000207,738.0770367002115,,,,2.9964466001838446,,,,,,,,,,,,None,None,,,,,,,,,,Rucksack,,,cuedRecallAdj,3,,,,,,,,,,,,,,,,,,,,,,,,0,,,,,,,,,,,,,,,,,,,,,,,,,,,,734.5631969003007,734.5728962002322,734.5728962002322,737.5752377999015,robust,return,2.9964466001838446,None,737.5755055001937,737.584767000284,737.584767000284,737.578192200046,,None,,,,,3,2024-01-09_10h43.26.831,watkins1,2023.2.3,99.76236623175906,77,2024-01-09 10h43.34.511997 +0000,
,,,,,,,,,,,,,,,,,,,,,,,14,0,14,0,738.0869819000363,,,,,,,,,,740.5302090002224,741.0286918999627,,,,2.434354499913752,,,,,,,,,,,,None,None,,,,,,,,,,Trommel,,,cuedRecallAdj,3,,,,,,,,,,,,,,,,,,,,,,,,0,,,,,,,,,,,,,,,,,,,,,,,,,,,,738.0772812999785,738.0869819000363,738.0869819000363,740.5272487001494,nass,return,2.434354499913752,None,740.5275187999941,740.5367240002379,740.5367240002379,740.5301061002538,,None,,,,,3,2024-01-09_10h43.26.831,watkins1,2023.2.3,99.76236623175906,77,2024-01-09 10h43.34.511997 +0000,
,,,,,,,,,,,,,,,,,,,,,,,15,0,15,0,741.0386673002504,,,,,,,,,,744.2152597000822,744.7137826001272,,,,3.1706122998148203,,,,,,,,,,,,None,None,,,,,,,,,,Fahrrad,,,cuedRecallAdj,3,,,,,,,,,,,,,,,,,,,,,,,,0,,,,,,,,,,,,,,,,,,,,,,,,,,,,741.0289424001239,741.0386673002504,741.0386673002504,744.2122076000087,niedlich,return,3.1706122998148203,None,744.2124748001806,744.2217663000338,744.2217663000338,744.2151570999995,,None,,,,,3,2024-01-09_10h43.26.831,watkins1,2023.2.3,99.76236623175906,77,2024-01-09 10h43.34.511997 +0000,
,,,,,,,,,,,,,,,,,,,,,,,16,0,16,0,744.7238398003392,,,,,,,,,,748.9851230001077,749.4838723000139,,,,4.253470200113952,,,,,,,,,,,,None,None,,,,,,,,,,Lampe,,,cuedRecallAdj,3,,,,,,,,,,,,,,,,,,,,,,,,0,,,,,,,,,,,,,,,,,,,,,,,,,,,,744.7140239002183,744.7238398003392,744.7238398003392,748.9821808999404,dreckig,return,4.253470200113952,None,748.982441500295,748.9918277002871,748.9918277002871,748.9850232000463,,None,,,,,3,2024-01-09_10h43.26.831,watkins1,2023.2.3,99.76236623175906,77,2024-01-09 10h43.34.511997 +0000,
,,,,,,,,,,,,,,,,,,,,,,,17,0,17,0,749.4938250998966,,,,,,,,,,753.3629570002668,753.8613742003217,,,,3.859469899907708,,,,,,,,,,,,None,None,,,,,,,,,,Würfel,,,cuedRecallAdj,3,,,,,,,,,,,,,,,,,,,,,,,,0,,,,,,,,,,,,,,,,,,,,,,,,,,,,749.4841076000594,749.4938250998966,749.4938250998966,753.3597576003522,flauschig,return,3.859469899907708,None,753.3600254999474,753.3693480999209,753.3693480999209,753.3628549003042,,None,,,,,3,2024-01-09_10h43.26.831,watkins1,2023.2.3,99.76236623175906,77,2024-01-09 10h43.34.511997 +0000,
,,,,,,,,,,,,,,,,,,,,,,,18,0,18,0,753.8713267003186,,,,,,,,,,756.9476688001305,757.446064800024,,,,3.0659453999251127,,,,,,,,,,,,None,None,,,,,,,,,,Jacke,,,cuedRecallAdj,3,,,,,,,,,,,,,,,,,,,,,,,,0,,,,,,,,,,,,,,,,,,,,,,,,,,,,753.8616247000173,753.8713267003186,753.8713267003186,756.9444921002723,dunkel,return,3.0659453999251127,None,756.9447575001977,756.9542606999166,756.9542606999166,756.9475660999306,,None,,,,,3,2024-01-09_10h43.26.831,watkins1,2023.2.3,99.76236623175906,77,2024-01-09 10h43.34.511997 +0000,
,,,,,,,,,,,,,,,,,,,,,,,19,0,19,0,757.4560139002278,,,,,,,,,,762.6906719002873,763.188744999934,,,,5.225383399985731,,,,,,,,,,,,None,None,,,,,,,,,,Flasche,,,cuedRecallAdj,3,,,,,,,,,,,,,,,,,,,,,,,,0,,,,,,,,,,,,,,,,,,,,,,,,,,,,757.4463035003282,757.4560139002278,757.4560139002278,762.6874001999386,hässlich,return,5.225383399985731,None,762.687671400141,762.6969568002969,762.6969568002969,762.6905692000873,,None,,,,,3,2024-01-09_10h43.26.831,watkins1,2023.2.3,99.76236623175906,77,2024-01-09 10h43.34.511997 +0000,
,,,,,,,,,,,,,,,,,,,,,,,20,0,20,0,763.1987372003496,,,,,,,,,,770.129983200226,770.6287704003043,,,,6.922615800052881,,,,,,,,,,,,None,None,,,,,,,,,,Ring,,,cuedRecallAdj,3,,,,,,,,,,,,,,,,,,,,,,,,0,,,,,,,,,,,,,,,,,,,,,,,,,,,,763.1889932001941,763.1987372003496,763.1987372003496,770.127139300108,glatt,return,6.922615800052881,None,770.1274065002799,770.1367287002504,770.1367287002504,770.1298817000352,,None,,,,,3,2024-01-09_10h43.26.831,watkins1,2023.2.3,99.76236623175906,77,2024-01-09 10h43.34.511997 +0000,
,,,,,,,,,,,,,,,,,,,,,,,21,0,21,0,770.6388217001222,,,,,,,,,,785.1206121002324,785.6190412999131,,,,14.474564399570227,,,,,,,,,,,,None,None,,,,,,,,,,Stift,,,cuedRecallAdj,3,,,,,,,,,,,,,,,,,,,,,,,,0,,,,,,,,,,,,,,,,,,,,,,,,,,,,770.6290143001825,770.6388217001222,770.6388217001222,785.117446300108,rustikal,return,14.474564399570227,None,785.1177146001719,785.1269336999394,785.1269336999394,785.1205094000325,,None,,,,,3,2024-01-09_10h43.26.831,watkins1,2023.2.3,99.76236623175906,77,2024-01-09 10h43.34.511997 +0000,
,,,,,,,,,,,,,,,,,,,,,,,22,0,22,0,785.6289997999556,,,,,,,,,,789.4878107002005,789.9863789002411,,,,3.8523737997747958,,,,,,,,,,,,None,None,,,,,,,,,,Socke,,,cuedRecallAdj,3,,,,,,,,,,,,,,,,,,,,,,,,0,,,,,,,,,,,,,,,,,,,,,,,,,,,,785.6192926000804,785.6289997999556,785.6289997999556,789.4847075003199,winzig,return,3.8523737997747958,None,789.4849767000414,789.4943626001477,789.4943626001477,789.4877053000964,,None,,,,,3,2024-01-09_10h43.26.831,watkins1,2023.2.3,99.76236623175906,77,2024-01-09 10h43.34.511997 +0000,
,,,,,,,,,,,,,,,,,,,,,,,23,0,23,0,789.9963307003491,,,,,,,,,,792.5799267003313,793.0787965003401,,,,2.573020599782467,,,,,,,,,,,,None,None,,,,,,,,,,Hammer,,,cuedRecallAdj,3,,,,,,,,,,,,,,,,,,,,,,,,0,,,,,,,,,,,,,,,,,,,,,,,,,,,,789.9866288001649,789.9963307003491,789.9963307003491,792.5770036000758,lang,return,2.573020599782467,None,792.5772696998902,792.5867198002525,792.5867198002525,792.579823799897,,None,,,,,3,2024-01-09_10h43.26.831,watkins1,2023.2.3,99.76236623175906,77,2024-01-09 10h43.34.511997 +0000,
,,,,,,,,,,,,,,,,,,,,,,,24,0,24,0,793.088694400154,,,,,,,,,,795.8634528000839,796.361892499961,,,,2.76860410021618,,,,,,,,,,,,None,None,,,,,,,,,,Kette,,,cuedRecallAdj,3,,,,,,,,,,,,,,,,,,,,,,,,0,,,,,,,,,,,,,,,,,,,,,,,,,,,,793.0790462000296,793.088694400154,793.088694400154,795.8603143002838,breit,return,2.76860410021618,None,795.8605804000981,795.869844800327,795.869844800327,795.8633489003405,,None,,,,,3,2024-01-09_10h43.26.831,watkins1,2023.2.3,99.76236623175906,77,2024-01-09 10h43.34.511997 +0000,
,,,,,,,,,,,,,,,,,,,,,,,25,0,25,0,796.3718523001298,,,,,,,,,,802.6309261000715,803.1293220003136,,,,6.253463599830866,,,,,,,,,,,,None,None,,,,,,,,,,Kerze,,,cuedRecallAdj,3,,,,,,,,,,,,,,,,,,,,,,,,0,,,,,,,,,,,,,,,,,,,,,,,,,,,,796.3621392999776,796.3718523001298,796.3718523001298,802.6277143000625,zärtlich,return,6.253463599830866,None,802.6279858001508,802.6373200002126,802.6373200002126,802.6308184000663,,None,,,,,3,2024-01-09_10h43.26.831,watkins1,2023.2.3,99.76236623175906,77,2024-01-09 10h43.34.511997 +0000,
,,,,,,,,,,,,,,,,,,,,,,,26,0,26,0,803.1393645000644,,,,,,,,,,806.3256524000317,806.8244890999049,,,,3.1819904996082187,,,,,,,,,,,,None,None,,,,,,,,,,Buch,,,cuedRecallAdj,3,,,,,,,,,,,,,,,,,,,,,,,,0,,,,,,,,,,,,,,,,,,,,,,,,,,,,803.1295734001324,803.1393645000644,803.1393645000644,806.3227743003517,lustig,return,3.1819904996082187,None,806.323042999953,806.3323838999495,806.3323838999495,806.3255496001802,,None,,,,,3,2024-01-09_10h43.26.831,watkins1,2023.2.3,99.76236623175906,77,2024-01-09 10h43.34.511997 +0000,
,,,,,,,,,,,,,,,,,,,,,,,27,0,27,0,806.8343996000476,,,,,,,,,,809.1671485002153,809.6659772000276,,,,2.3269601999782026,,,,,,,,,,,,None,None,,,,,,,,,,Kiste,,,cuedRecallAdj,3,,,,,,,,,,,,,,,,,,,,,,,,0,,,,,,,,,,,,,,,,,,,,,,,,,,,,806.8247405001894,806.8343996000476,806.8343996000476,809.1643471000716,matt,return,2.3269601999782026,None,809.1646108003333,809.173861599993,809.173861599993,809.1670480002649,,None,,,,,3,2024-01-09_10h43.26.831,watkins1,2023.2.3,99.76236623175906,77,2024-01-09 10h43.34.511997 +0000,
,,,,,,,,,,,,,,,,,,,,,,,28,0,28,0,809.6759252999909,,,,,,,,,,813.5146631002426,814.0132844001055,,,,3.829442400019616,,,,,,,,,,,,None,None,,,,,,,,,,Bürste,,,cuedRecallAdj,3,,,,,,,,,,,,,,,,,,,,,,,,0,,,,,,,,,,,,,,,,,,,,,,,,,,,,809.6662218999118,809.6759252999909,809.6759252999909,813.5118162003346,lang,return,3.829442400019616,None,813.5120780002326,813.5213550999761,813.5213550999761,813.5145626999438,,None,,,,,3,2024-01-09_10h43.26.831,watkins1,2023.2.3,99.76236623175906,77,2024-01-09 10h43.34.511997 +0000,
,,,,,,,,,,,,,,,,,,,,,,,29,0,29,0,814.0233366000466,,,,,,,,,,816.7680075000972,817.2664831001312,,,,2.738086299970746,,,,,,,,,,,,None,None,,,,,,,,,,Brille,,,cuedRecallAdj,3,,,,,,,,,,,,,,,,,,,,,,,,0,,,,,,,,,,,,,,,,,,,,,,,,,,,,814.0135290999897,814.0233366000466,814.0233366000466,816.7649997002445,schwer,return,2.738086299970746,None,816.7652672999538,816.7744408003055,816.7744408003055,816.7679066001438,,None,,,,,3,2024-01-09_10h43.26.831,watkins1,2023.2.3,99.76236623175906,77,2024-01-09 10h43.34.511997 +0000,
,,,,,,,,,,,,,,,,,,,,,,,,,,,,,,,,,,,,,,,,,,,,,,,,,,,,,,,,,,,,,,,,,,,,,3,,,,,,,,,,,,,,,,,,,,,,,,,,,,,,,,,,,,,,,,,,,,,,,,,,,,,,,,,,,,,,,,,,817.2830735002644,q,251.77423840016127,None,3,2024-01-09_10h43.26.831,watkins1,2023.2.3,99.76236623175906,77,2024-01-09 10h43.34.511997 +0000,
