Equation,CorrectResponse,Correctbutton,trials_7.thisRepN,trials_7.thisTrialN,trials_7.thisN,trials_7.thisIndex,trials.thisRepN,trials.thisTrialN,trials.thisN,trials.thisIndex,trials_3.thisRepN,trials_3.thisTrialN,trials_3.thisN,trials_3.thisIndex,trials_2.thisRepN,trials_2.thisTrialN,trials_2.thisN,trials_2.thisIndex,trials_4.thisRepN,trials_4.thisTrialN,trials_4.thisN,trials_4.thisIndex,trials_5.thisRepN,trials_5.thisTrialN,trials_5.thisN,trials_5.thisIndex,thisRow.t,notes,list_sub_restudy,list_sub_testsub,code_marius.started,code_marius.stopped,welcome.started,welcome.stopped,instruction_study.started,instruction_study.stopped,fixationcross.started,fixationcross.stopped,blanc.started,blanc.stopped,study_control_probe.started,study_control_probe.stopped,responseKey,responseTime,scale_answer_2.keys,study_control_probe_2.started,study_control_probe_2.stopped,scale_answer_3.keys,scale_answer_3.rt,scale_answer_3.duration,blanc_2.started,blanc_2.stopped,test_attr_probe.started,test_attr_probe.stopped,recalled_attr,firstKeyTime,secondWordTime,blanc_3.started,blanc_3.stopped,test_sub_probe.started,test_sub_probe.stopped,recalled_sub,instruction_probe_end.started,instruction_probe_end.stopped,study.started,study.stopped,substantive,adjective,wordpair,task,condition,liste_sub_phase1,liste_adj_phase1,scale_answer.keys,scale_answer.rt,scale_answer.duration,code_defineWordsInit.started,code_defineWordsInit.stopped,liste_sub_phase2,study_control.started,study_control.stopped,scale_answer_4.keys,restudy_same.started,restudy_same.stopped,scale_answer_5.keys,restudy_different.started,restudy_different.stopped,scale_answer_6.keys,test_attr.started,test_attr.stopped,test_sub.started,correct,test_sub.stopped,scale_answer_5.rt,scale_answer_5.duration,distractortask.started,equation_text.started,distractortask.stopped,mouse_answer.x,mouse_answer.y,mouse_answer.leftButton,mouse_answer.midButton,mouse_answer.rightButton,mouse_answer.time,mouse_answer.clicked_name,feedback_distractortask.started,feedback_distractortask.stopped,free_recall.started,text_enter.started,key_resp.started,free_recall.stopped,key_resp.keys,key_resp.rt,key_resp.duration,free_recalled_sub,mouse_continue.x,mouse_continue.y,mouse_continue.leftButton,mouse_continue.midButton,mouse_continue.rightButton,mouse_continue.time,mouse_continue.clicked_name,cued_recall.started,text_enter_2.started,key_continue.started,cued_recall.stopped,recalled_attr1,key_continue.keys,key_continue.rt,key_continue.duration,cued_recall_2.started,text_enter_3.started,key_continue_2.started,cued_recall_2.stopped,recalled_attr2,key_continue_2.keys,key_resp_8.started,condition,date,expName,psychopyVersion,frameRate,participant,expStart,
,,,,,,,,,,,,,,,,,,,,,,,,,,,,,"['Löffel', 'Tasche', 'Schlüssel', 'Fahrrad', 'Schere', 'Hut', 'Stift', 'Würfel', 'Tasse', 'Hammer', 'Socke', 'Buch', 'Rucksack', 'Jacke', 'Vase']","['Blume', 'Flasche', 'Uhr', 'Trommel', 'Kerze', 'Kiste', 'Lampe', 'Eimer', 'Telefon', 'Brille', 'Geige', 'Kette', 'Ring', 'Bürste', 'Kamera']",0.12299269996583462,0.12305979989469051,0.12306790007278323,10.143392099998891,,,,,,,,,,,,,,,,,,,,,,,,,,,,,,,,,,,,,2,,,,,,,,,,,,,,,,,,,,,,,,,,,,,,,,,,,,,,,,,,,,,,,,,,,,,,,,,,,,,,,,,,,2,2023-12-06_13h59.03.109,watkins1,2023.2.3,99.77441022240777,51,2023-12-06 13h59.14.306689 +0000,
,,,,,,,,,,,,,,,,,,,,,,,,,,,,,,,,,,,10.143440600018948,87.58374099992216,,,,,,,,,,,,,,,,,,,,,,,,,,,,,,,,,,,2,,,,,,,,,,,,,,,,,,,,,,,,,,,,,,,,,,,,,,,,,,,,,,,,,,,,,,,,,,,,,,,,,,,2,2023-12-06_13h59.03.109,watkins1,2023.2.3,99.77441022240777,51,2023-12-06 13h59.14.306689 +0000,
,,,0,0,0,0,,,,,,,,,,,,,,,,,,,,,88.59785280004144,,,,,,,,,,87.58375820005313,88.58781550009735,95.08367599989288,95.57494079996832,89.07984180003405,95.08351160003804,3,2.725548399845138,None,95.57495140004903,101.58325039991178,3,2.725548399845138,None,101.5835633999668,101.58358590002172,101.58359290007502,101.58367140009068,,2.8715938001405448,None,101.58383130002767,102.07477300008759,102.07478319993243,108.07984780007973,Blume,,,,,,,,,2,,,,,,,,,,,,,,,,,,,,,,,,,,,,,,,,,,,,,,,,,,,,,,,,,,,,,,,,,,,,,,,,,,,2,2023-12-06_13h59.03.109,watkins1,2023.2.3,99.77441022240777,51,2023-12-06 13h59.14.306689 +0000,
,,,,,,,,,,,,,,,,,,,,,,,,,,,,,,,,,,,,,,,,,,,,,,,,,,,,,,,,,,,,,,,108.08000580011867,122.15719439997338,,,,,,,2,,,,,,,,,,,,,,,,,,,,,,,,,,,,,,,,,,,,,,,,,,,,,,,,,,,,,,,,,,,,,,,,,,,2,2023-12-06_13h59.03.109,watkins1,2023.2.3,99.77441022240777,51,2023-12-06 13h59.14.306689 +0000,
,,,,,,,0,0,0,0,,,,,,,,,,,,,,,,,123.17073119990528,,,,,,,,,,122.15721049997956,123.16079279989935,123.16127400007099,123.6528312000446,,,3,3.475800600135699,,,,,,,,,,,,,,,,,,,,,123.65284159989096,129.6560967999976,Kerze,lang,"['Kerze', 'lang']",test_sub,2,"['Kerze', 'Hammer', 'Kette', 'Blume', 'Hut', 'Geige', 'Uhr', 'Kiste', 'Schlüssel', 'Löffel', 'Fahrrad', 'Jacke', 'Schere', 'Stift', 'Tasse', 'Bürste', 'Brille', 'Kamera', 'Trommel', 'Telefon', 'Flasche', 'Eimer', 'Rucksack', 'Tasche', 'Lampe', 'Ring', 'Vase', 'Würfel', 'Buch', 'Socke']",['lang'],3,3.475800600135699,None,,,,,,,,,,,,,,,,,,,,,,,,,,,,,,,,,,,,,,,,,,,,,,,,,,,,,,,,,,,,,,2,2023-12-06_13h59.03.109,watkins1,2023.2.3,99.77441022240777,51,2023-12-06 13h59.14.306689 +0000,
,,,,,,,1,0,1,0,,,,,,,,,,,,,,,,,129.66562719992362,,,,,,,,,,,,129.65674529992975,130.147608499974,,,3,2.0459804001729935,,,,,,,,,,,,,,,,,,,,,130.14761850005016,136.1492057000287,Hammer,kaputt,"['Hammer', 'kaputt']",restudy,2,"['Kerze', 'Hammer', 'Kette', 'Blume', 'Hut', 'Geige', 'Uhr', 'Kiste', 'Schlüssel', 'Löffel', 'Fahrrad', 'Jacke', 'Schere', 'Stift', 'Tasse', 'Bürste', 'Brille', 'Kamera', 'Trommel', 'Telefon', 'Flasche', 'Eimer', 'Rucksack', 'Tasche', 'Lampe', 'Ring', 'Vase', 'Würfel', 'Buch', 'Socke']","['lang', 'kaputt']",3,2.0459804001729935,None,,,,,,,,,,,,,,,,,,,,,,,,,,,,,,,,,,,,,,,,,,,,,,,,,,,,,,,,,,,,,,2,2023-12-06_13h59.03.109,watkins1,2023.2.3,99.77441022240777,51,2023-12-06 13h59.14.306689 +0000,
,,,,,,,2,0,2,0,,,,,,,,,,,,,,,,,136.15879400004633,,,,,,,,,,,,136.14972290000878,136.64077699999325,,,2,2.6495750001631677,,,,,,,,,,,,,,,,,,,,,136.6407870000694,142.6419073001016,Kette,glänzend,"['Kette', 'glänzend']",test_sub,2,"['Kerze', 'Hammer', 'Kette', 'Blume', 'Hut', 'Geige', 'Uhr', 'Kiste', 'Schlüssel', 'Löffel', 'Fahrrad', 'Jacke', 'Schere', 'Stift', 'Tasse', 'Bürste', 'Brille', 'Kamera', 'Trommel', 'Telefon', 'Flasche', 'Eimer', 'Rucksack', 'Tasche', 'Lampe', 'Ring', 'Vase', 'Würfel', 'Buch', 'Socke']","['lang', 'kaputt', 'glänzend']",2,2.6495750001631677,None,,,,,,,,,,,,,,,,,,,,,,,,,,,,,,,,,,,,,,,,,,,,,,,,,,,,,,,,,,,,,,2,2023-12-06_13h59.03.109,watkins1,2023.2.3,99.77441022240777,51,2023-12-06 13h59.14.306689 +0000,
,,,,,,,3,0,3,0,,,,,,,,,,,,,,,,,142.651387500111,,,,,,,,,,,,142.64242530008778,143.1334730000235,,,2,2.725049000000581,,,,,,,,,,,,,,,,,,,,,143.13348369998857,149.13699540006928,Blume,nachhaltig,"['Blume', 'nachhaltig']",test_sub,2,"['Kerze', 'Hammer', 'Kette', 'Blume', 'Hut', 'Geige', 'Uhr', 'Kiste', 'Schlüssel', 'Löffel', 'Fahrrad', 'Jacke', 'Schere', 'Stift', 'Tasse', 'Bürste', 'Brille', 'Kamera', 'Trommel', 'Telefon', 'Flasche', 'Eimer', 'Rucksack', 'Tasche', 'Lampe', 'Ring', 'Vase', 'Würfel', 'Buch', 'Socke']","['lang', 'kaputt', 'glänzend', 'nachhaltig']",2,2.725049000000581,None,,,,,,,,,,,,,,,,,,,,,,,,,,,,,,,,,,,,,,,,,,,,,,,,,,,,,,,,,,,,,,2,2023-12-06_13h59.03.109,watkins1,2023.2.3,99.77441022240777,51,2023-12-06 13h59.14.306689 +0000,
,,,,,,,4,0,4,0,,,,,,,,,,,,,,,,,149.1464619000908,,,,,,,,,,,,149.13752190000378,149.62856670003384,,,1,1.7986333998851478,,,,,,,,,,,,,,,,,,,,,149.62857710011303,155.63779549999163,Hut,gut,"['Hut', 'gut']",restudy,2,"['Kerze', 'Hammer', 'Kette', 'Blume', 'Hut', 'Geige', 'Uhr', 'Kiste', 'Schlüssel', 'Löffel', 'Fahrrad', 'Jacke', 'Schere', 'Stift', 'Tasse', 'Bürste', 'Brille', 'Kamera', 'Trommel', 'Telefon', 'Flasche', 'Eimer', 'Rucksack', 'Tasche', 'Lampe', 'Ring', 'Vase', 'Würfel', 'Buch', 'Socke']","['lang', 'kaputt', 'glänzend', 'nachhaltig', 'gut']",1,1.7986333998851478,None,,,,,,,,,,,,,,,,,,,,,,,,,,,,,,,,,,,,,,,,,,,,,,,,,,,,,,,,,,,,,,2,2023-12-06_13h59.03.109,watkins1,2023.2.3,99.77441022240777,51,2023-12-06 13h59.14.306689 +0000,
,,,,,,,5,0,5,0,,,,,,,,,,,,,,,,,155.64725950011052,,,,,,,,,,,,155.63832530006766,156.12935189995915,,,1,2.0248187999241054,,,,,,,,,,,,,,,,,,,,,156.12936219992116,162.13289029989392,Geige,kalt,"['Geige', 'kalt']",test_sub,2,"['Kerze', 'Hammer', 'Kette', 'Blume', 'Hut', 'Geige', 'Uhr', 'Kiste', 'Schlüssel', 'Löffel', 'Fahrrad', 'Jacke', 'Schere', 'Stift', 'Tasse', 'Bürste', 'Brille', 'Kamera', 'Trommel', 'Telefon', 'Flasche', 'Eimer', 'Rucksack', 'Tasche', 'Lampe', 'Ring', 'Vase', 'Würfel', 'Buch', 'Socke']","['lang', 'kaputt', 'glänzend', 'nachhaltig', 'gut', 'kalt']",1,2.0248187999241054,None,,,,,,,,,,,,,,,,,,,,,,,,,,,,,,,,,,,,,,,,,,,,,,,,,,,,,,,,,,,,,,2,2023-12-06_13h59.03.109,watkins1,2023.2.3,99.77441022240777,51,2023-12-06 13h59.14.306689 +0000,
,,,,,,,6,0,6,0,,,,,,,,,,,,,,,,,162.14237460005097,,,,,,,,,,,,162.13341580005363,162.62437770003453,,,1,3.026168799959123,,,,,,,,,,,,,,,,,,,,,162.62438799999654,168.63419959996827,Uhr,kurz,"['Uhr', 'kurz']",test_sub,2,"['Kerze', 'Hammer', 'Kette', 'Blume', 'Hut', 'Geige', 'Uhr', 'Kiste', 'Schlüssel', 'Löffel', 'Fahrrad', 'Jacke', 'Schere', 'Stift', 'Tasse', 'Bürste', 'Brille', 'Kamera', 'Trommel', 'Telefon', 'Flasche', 'Eimer', 'Rucksack', 'Tasche', 'Lampe', 'Ring', 'Vase', 'Würfel', 'Buch', 'Socke']","['lang', 'kaputt', 'glänzend', 'nachhaltig', 'gut', 'kalt', 'kurz']",1,3.026168799959123,None,,,,,,,,,,,,,,,,,,,,,,,,,,,,,,,,,,,,,,,,,,,,,,,,,,,,,,,,,,,,,,2,2023-12-06_13h59.03.109,watkins1,2023.2.3,99.77441022240777,51,2023-12-06 13h59.14.306689 +0000,
,,,,,,,7,0,7,0,,,,,,,,,,,,,,,,,168.6436604000628,,,,,,,,,,,,168.63472199998796,169.12575199990533,,,2,2.5960820000618696,,,,,,,,,,,,,,,,,,,,,169.12576210009865,175.12704390008003,Kiste,verspielt,"['Kiste', 'verspielt']",test_sub,2,"['Kerze', 'Hammer', 'Kette', 'Blume', 'Hut', 'Geige', 'Uhr', 'Kiste', 'Schlüssel', 'Löffel', 'Fahrrad', 'Jacke', 'Schere', 'Stift', 'Tasse', 'Bürste', 'Brille', 'Kamera', 'Trommel', 'Telefon', 'Flasche', 'Eimer', 'Rucksack', 'Tasche', 'Lampe', 'Ring', 'Vase', 'Würfel', 'Buch', 'Socke']","['lang', 'kaputt', 'glänzend', 'nachhaltig', 'gut', 'kalt', 'kurz', 'verspielt']",2,2.5960820000618696,None,,,,,,,,,,,,,,,,,,,,,,,,,,,,,,,,,,,,,,,,,,,,,,,,,,,,,,,,,,,,,,2,2023-12-06_13h59.03.109,watkins1,2023.2.3,99.77441022240777,51,2023-12-06 13h59.14.306689 +0000,
,,,,,,,8,0,8,0,,,,,,,,,,,,,,,,,175.136632299982,,,,,,,,,,,,175.12756250007078,175.61865100008436,,,2,5.00757410004735,,,,,,,,,,,,,,,,,,,,,175.6186615000479,181.62563430005684,Schlüssel,schmutzig,"['Schlüssel', 'schmutzig']",restudy,2,"['Kerze', 'Hammer', 'Kette', 'Blume', 'Hut', 'Geige', 'Uhr', 'Kiste', 'Schlüssel', 'Löffel', 'Fahrrad', 'Jacke', 'Schere', 'Stift', 'Tasse', 'Bürste', 'Brille', 'Kamera', 'Trommel', 'Telefon', 'Flasche', 'Eimer', 'Rucksack', 'Tasche', 'Lampe', 'Ring', 'Vase', 'Würfel', 'Buch', 'Socke']","['lang', 'kaputt', 'glänzend', 'nachhaltig', 'gut', 'kalt', 'kurz', 'verspielt', 'schmutzig']",2,5.00757410004735,None,,,,,,,,,,,,,,,,,,,,,,,,,,,,,,,,,,,,,,,,,,,,,,,,,,,,,,,,,,,,,,2,2023-12-06_13h59.03.109,watkins1,2023.2.3,99.77441022240777,51,2023-12-06 13h59.14.306689 +0000,
,,,,,,,9,0,9,0,,,,,,,,,,,,,,,,,181.63510189997032,,,,,,,,,,,,181.62615050002933,182.1170904999599,,,1,2.252400299999863,,,,,,,,,,,,,,,,,,,,,182.1171007999219,188.12255179998465,Löffel,gepunktet,"['Löffel', 'gepunktet']",restudy,2,"['Kerze', 'Hammer', 'Kette', 'Blume', 'Hut', 'Geige', 'Uhr', 'Kiste', 'Schlüssel', 'Löffel', 'Fahrrad', 'Jacke', 'Schere', 'Stift', 'Tasse', 'Bürste', 'Brille', 'Kamera', 'Trommel', 'Telefon', 'Flasche', 'Eimer', 'Rucksack', 'Tasche', 'Lampe', 'Ring', 'Vase', 'Würfel', 'Buch', 'Socke']","['lang', 'kaputt', 'glänzend', 'nachhaltig', 'gut', 'kalt', 'kurz', 'verspielt', 'schmutzig', 'gepunktet']",1,2.252400299999863,None,,,,,,,,,,,,,,,,,,,,,,,,,,,,,,,,,,,,,,,,,,,,,,,,,,,,,,,,,,,,,,2,2023-12-06_13h59.03.109,watkins1,2023.2.3,99.77441022240777,51,2023-12-06 13h59.14.306689 +0000,
,,,,,,,10,0,10,0,,,,,,,,,,,,,,,,,188.1320279999636,,,,,,,,,,,,188.1230796999298,188.6140171000734,,,2,2.4760519999545068,,,,,,,,,,,,,,,,,,,,,188.6140274000354,194.6159155999776,Fahrrad,klobig,"['Fahrrad', 'klobig']",restudy,2,"['Kerze', 'Hammer', 'Kette', 'Blume', 'Hut', 'Geige', 'Uhr', 'Kiste', 'Schlüssel', 'Löffel', 'Fahrrad', 'Jacke', 'Schere', 'Stift', 'Tasse', 'Bürste', 'Brille', 'Kamera', 'Trommel', 'Telefon', 'Flasche', 'Eimer', 'Rucksack', 'Tasche', 'Lampe', 'Ring', 'Vase', 'Würfel', 'Buch', 'Socke']","['lang', 'kaputt', 'glänzend', 'nachhaltig', 'gut', 'kalt', 'kurz', 'verspielt', 'schmutzig', 'gepunktet', 'klobig']",2,2.4760519999545068,None,,,,,,,,,,,,,,,,,,,,,,,,,,,,,,,,,,,,,,,,,,,,,,,,,,,,,,,,,,,,,,2,2023-12-06_13h59.03.109,watkins1,2023.2.3,99.77441022240777,51,2023-12-06 13h59.14.306689 +0000,
,,,,,,,11,0,11,0,,,,,,,,,,,,,,,,,194.625346200075,,,,,,,,,,,,194.61644020001404,195.107465100009,,,1,1.9419491000007838,,,,,,,,,,,,,,,,,,,,,195.1074747000821,201.10994279989973,Jacke,winzig,"['Jacke', 'winzig']",restudy,2,"['Kerze', 'Hammer', 'Kette', 'Blume', 'Hut', 'Geige', 'Uhr', 'Kiste', 'Schlüssel', 'Löffel', 'Fahrrad', 'Jacke', 'Schere', 'Stift', 'Tasse', 'Bürste', 'Brille', 'Kamera', 'Trommel', 'Telefon', 'Flasche', 'Eimer', 'Rucksack', 'Tasche', 'Lampe', 'Ring', 'Vase', 'Würfel', 'Buch', 'Socke']","['lang', 'kaputt', 'glänzend', 'nachhaltig', 'gut', 'kalt', 'kurz', 'verspielt', 'schmutzig', 'gepunktet', 'klobig', 'winzig']",1,1.9419491000007838,None,,,,,,,,,,,,,,,,,,,,,,,,,,,,,,,,,,,,,,,,,,,,,,,,,,,,,,,,,,,,,,2,2023-12-06_13h59.03.109,watkins1,2023.2.3,99.77441022240777,51,2023-12-06 13h59.14.306689 +0000,
,,,,,,,12,0,12,0,,,,,,,,,,,,,,,,,201.11941040004604,,,,,,,,,,,,201.11049000010826,201.60138519993052,,,1,3.265456800116226,,,,,,,,,,,,,,,,,,,,,201.60139589989558,207.61185159999877,Schere,breit,"['Schere', 'breit']",restudy,2,"['Kerze', 'Hammer', 'Kette', 'Blume', 'Hut', 'Geige', 'Uhr', 'Kiste', 'Schlüssel', 'Löffel', 'Fahrrad', 'Jacke', 'Schere', 'Stift', 'Tasse', 'Bürste', 'Brille', 'Kamera', 'Trommel', 'Telefon', 'Flasche', 'Eimer', 'Rucksack', 'Tasche', 'Lampe', 'Ring', 'Vase', 'Würfel', 'Buch', 'Socke']","['lang', 'kaputt', 'glänzend', 'nachhaltig', 'gut', 'kalt', 'kurz', 'verspielt', 'schmutzig', 'gepunktet', 'klobig', 'winzig', 'breit']",1,3.265456800116226,None,,,,,,,,,,,,,,,,,,,,,,,,,,,,,,,,,,,,,,,,,,,,,,,,,,,,,,,,,,,,,,2,2023-12-06_13h59.03.109,watkins1,2023.2.3,99.77441022240777,51,2023-12-06 13h59.14.306689 +0000,
,,,,,,,13,0,13,0,,,,,,,,,,,,,,,,,207.6214503000956,,,,,,,,,,,,207.61236519995145,208.10353279998526,,,2,3.0664108998607844,,,,,,,,,,,,,,,,,,,,,208.10354260005988,214.11130469990894,Stift,groß,"['Stift', 'groß']",restudy,2,"['Kerze', 'Hammer', 'Kette', 'Blume', 'Hut', 'Geige', 'Uhr', 'Kiste', 'Schlüssel', 'Löffel', 'Fahrrad', 'Jacke', 'Schere', 'Stift', 'Tasse', 'Bürste', 'Brille', 'Kamera', 'Trommel', 'Telefon', 'Flasche', 'Eimer', 'Rucksack', 'Tasche', 'Lampe', 'Ring', 'Vase', 'Würfel', 'Buch', 'Socke']","['lang', 'kaputt', 'glänzend', 'nachhaltig', 'gut', 'kalt', 'kurz', 'verspielt', 'schmutzig', 'gepunktet', 'klobig', 'winzig', 'breit', 'groß']",2,3.0664108998607844,None,,,,,,,,,,,,,,,,,,,,,,,,,,,,,,,,,,,,,,,,,,,,,,,,,,,,,,,,,,,,,,2,2023-12-06_13h59.03.109,watkins1,2023.2.3,99.77441022240777,51,2023-12-06 13h59.14.306689 +0000,
,,,,,,,14,0,14,0,,,,,,,,,,,,,,,,,214.12072949996218,,,,,,,,,,,,214.11183710000478,214.60287620010786,,,1,3.1831592000089586,,,,,,,,,,,,,,,,,,,,,214.60288679995574,220.60458929999731,Tasse,teuer,"['Tasse', 'teuer']",restudy,2,"['Kerze', 'Hammer', 'Kette', 'Blume', 'Hut', 'Geige', 'Uhr', 'Kiste', 'Schlüssel', 'Löffel', 'Fahrrad', 'Jacke', 'Schere', 'Stift', 'Tasse', 'Bürste', 'Brille', 'Kamera', 'Trommel', 'Telefon', 'Flasche', 'Eimer', 'Rucksack', 'Tasche', 'Lampe', 'Ring', 'Vase', 'Würfel', 'Buch', 'Socke']","['lang', 'kaputt', 'glänzend', 'nachhaltig', 'gut', 'kalt', 'kurz', 'verspielt', 'schmutzig', 'gepunktet', 'klobig', 'winzig', 'breit', 'groß', 'teuer']",1,3.1831592000089586,None,,,,,,,,,,,,,,,,,,,,,,,,,,,,,,,,,,,,,,,,,,,,,,,,,,,,,,,,,,,,,,2,2023-12-06_13h59.03.109,watkins1,2023.2.3,99.77441022240777,51,2023-12-06 13h59.14.306689 +0000,
,,,,,,,15,0,15,0,,,,,,,,,,,,,,,,,220.61402250011452,,,,,,,,,,,,220.60511419991963,221.09602529997937,,,2,2.8747499000746757,,,,,,,,,,,,,,,,,,,,,221.09603530005552,227.09719490003772,Bürste,strahlend,"['Bürste', 'strahlend']",test_sub,2,"['Kerze', 'Hammer', 'Kette', 'Blume', 'Hut', 'Geige', 'Uhr', 'Kiste', 'Schlüssel', 'Löffel', 'Fahrrad', 'Jacke', 'Schere', 'Stift', 'Tasse', 'Bürste', 'Brille', 'Kamera', 'Trommel', 'Telefon', 'Flasche', 'Eimer', 'Rucksack', 'Tasche', 'Lampe', 'Ring', 'Vase', 'Würfel', 'Buch', 'Socke']","['lang', 'kaputt', 'glänzend', 'nachhaltig', 'gut', 'kalt', 'kurz', 'verspielt', 'schmutzig', 'gepunktet', 'klobig', 'winzig', 'breit', 'groß', 'teuer', 'strahlend']",2,2.8747499000746757,None,,,,,,,,,,,,,,,,,,,,,,,,,,,,,,,,,,,,,,,,,,,,,,,,,,,,,,,,,,,,,,2,2023-12-06_13h59.03.109,watkins1,2023.2.3,99.77441022240777,51,2023-12-06 13h59.14.306689 +0000,
,,,,,,,16,0,16,0,,,,,,,,,,,,,,,,,227.1066592000425,,,,,,,,,,,,227.0977129000239,227.58874820009805,,,1,1.958278400124982,,,,,,,,,,,,,,,,,,,,,227.58875830005854,233.59096539998427,Brille,nass,"['Brille', 'nass']",test_sub,2,"['Kerze', 'Hammer', 'Kette', 'Blume', 'Hut', 'Geige', 'Uhr', 'Kiste', 'Schlüssel', 'Löffel', 'Fahrrad', 'Jacke', 'Schere', 'Stift', 'Tasse', 'Bürste', 'Brille', 'Kamera', 'Trommel', 'Telefon', 'Flasche', 'Eimer', 'Rucksack', 'Tasche', 'Lampe', 'Ring', 'Vase', 'Würfel', 'Buch', 'Socke']","['lang', 'kaputt', 'glänzend', 'nachhaltig', 'gut', 'kalt', 'kurz', 'verspielt', 'schmutzig', 'gepunktet', 'klobig', 'winzig', 'breit', 'groß', 'teuer', 'strahlend', 'nass']",1,1.958278400124982,None,,,,,,,,,,,,,,,,,,,,,,,,,,,,,,,,,,,,,,,,,,,,,,,,,,,,,,,,,,,,,,2,2023-12-06_13h59.03.109,watkins1,2023.2.3,99.77441022240777,51,2023-12-06 13h59.14.306689 +0000,
,,,,,,,17,0,17,0,,,,,,,,,,,,,,,,,233.60044470010325,,,,,,,,,,,,233.5914900000207,234.08249299996532,,,2,1.7123241999652237,,,,,,,,,,,,,,,,,,,,,234.08250269992277,240.0839060000144,Kamera,glatt,"['Kamera', 'glatt']",test_sub,2,"['Kerze', 'Hammer', 'Kette', 'Blume', 'Hut', 'Geige', 'Uhr', 'Kiste', 'Schlüssel', 'Löffel', 'Fahrrad', 'Jacke', 'Schere', 'Stift', 'Tasse', 'Bürste', 'Brille', 'Kamera', 'Trommel', 'Telefon', 'Flasche', 'Eimer', 'Rucksack', 'Tasche', 'Lampe', 'Ring', 'Vase', 'Würfel', 'Buch', 'Socke']","['lang', 'kaputt', 'glänzend', 'nachhaltig', 'gut', 'kalt', 'kurz', 'verspielt', 'schmutzig', 'gepunktet', 'klobig', 'winzig', 'breit', 'groß', 'teuer', 'strahlend', 'nass', 'glatt']",2,1.7123241999652237,None,,,,,,,,,,,,,,,,,,,,,,,,,,,,,,,,,,,,,,,,,,,,,,,,,,,,,,,,,,,,,,2,2023-12-06_13h59.03.109,watkins1,2023.2.3,99.77441022240777,51,2023-12-06 13h59.14.306689 +0000,
,,,,,,,18,0,18,0,,,,,,,,,,,,,,,,,240.09336830000393,,,,,,,,,,,,240.0844189999625,240.57529240008444,,,None,[],,,,,,,,,,,,,,,,,,,,,240.57530270004645,246.5815930000972,Trommel,schlicht,"['Trommel', 'schlicht']",test_sub,2,"['Kerze', 'Hammer', 'Kette', 'Blume', 'Hut', 'Geige', 'Uhr', 'Kiste', 'Schlüssel', 'Löffel', 'Fahrrad', 'Jacke', 'Schere', 'Stift', 'Tasse', 'Bürste', 'Brille', 'Kamera', 'Trommel', 'Telefon', 'Flasche', 'Eimer', 'Rucksack', 'Tasche', 'Lampe', 'Ring', 'Vase', 'Würfel', 'Buch', 'Socke']","['lang', 'kaputt', 'glänzend', 'nachhaltig', 'gut', 'kalt', 'kurz', 'verspielt', 'schmutzig', 'gepunktet', 'klobig', 'winzig', 'breit', 'groß', 'teuer', 'strahlend', 'nass', 'glatt', 'schlicht']",None,,,,,,,,,,,,,,,,,,,,,,,,,,,,,,,,,,,,,,,,,,,,,,,,,,,,,,,,,,,,,,,,2,2023-12-06_13h59.03.109,watkins1,2023.2.3,99.77441022240777,51,2023-12-06 13h59.14.306689 +0000,
,,,,,,,19,0,19,0,,,,,,,,,,,,,,,,,246.59115019999444,,,,,,,,,,,,246.58197399997152,247.07336620008573,,,1,5.289294599788263,,,,,,,,,,,,,,,,,,,,,247.07337619992904,253.0821068000514,Telefon,flach,"['Telefon', 'flach']",test_sub,2,"['Kerze', 'Hammer', 'Kette', 'Blume', 'Hut', 'Geige', 'Uhr', 'Kiste', 'Schlüssel', 'Löffel', 'Fahrrad', 'Jacke', 'Schere', 'Stift', 'Tasse', 'Bürste', 'Brille', 'Kamera', 'Trommel', 'Telefon', 'Flasche', 'Eimer', 'Rucksack', 'Tasche', 'Lampe', 'Ring', 'Vase', 'Würfel', 'Buch', 'Socke']","['lang', 'kaputt', 'glänzend', 'nachhaltig', 'gut', 'kalt', 'kurz', 'verspielt', 'schmutzig', 'gepunktet', 'klobig', 'winzig', 'breit', 'groß', 'teuer', 'strahlend', 'nass', 'glatt', 'schlicht', 'flach']",1,5.289294599788263,None,,,,,,,,,,,,,,,,,,,,,,,,,,,,,,,,,,,,,,,,,,,,,,,,,,,,,,,,,,,,,,2,2023-12-06_13h59.03.109,watkins1,2023.2.3,99.77441022240777,51,2023-12-06 13h59.14.306689 +0000,
,,,,,,,20,0,20,0,,,,,,,,,,,,,,,,,253.0915318999905,,,,,,,,,,,,253.0826318000909,253.57368770008907,,,1,3.2770752001088113,,,,,,,,,,,,,,,,,,,,,253.57369780004956,259.5820234999992,Flasche,rustikal,"['Flasche', 'rustikal']",test_sub,2,"['Kerze', 'Hammer', 'Kette', 'Blume', 'Hut', 'Geige', 'Uhr', 'Kiste', 'Schlüssel', 'Löffel', 'Fahrrad', 'Jacke', 'Schere', 'Stift', 'Tasse', 'Bürste', 'Brille', 'Kamera', 'Trommel', 'Telefon', 'Flasche', 'Eimer', 'Rucksack', 'Tasche', 'Lampe', 'Ring', 'Vase', 'Würfel', 'Buch', 'Socke']","['lang', 'kaputt', 'glänzend', 'nachhaltig', 'gut', 'kalt', 'kurz', 'verspielt', 'schmutzig', 'gepunktet', 'klobig', 'winzig', 'breit', 'groß', 'teuer', 'strahlend', 'nass', 'glatt', 'schlicht', 'flach', 'rustikal']",1,3.2770752001088113,None,,,,,,,,,,,,,,,,,,,,,,,,,,,,,,,,,,,,,,,,,,,,,,,,,,,,,,,,,,,,,,2,2023-12-06_13h59.03.109,watkins1,2023.2.3,99.77441022240777,51,2023-12-06 13h59.14.306689 +0000,
,,,,,,,21,0,21,0,,,,,,,,,,,,,,,,,259.59149169991724,,,,,,,,,,,,259.58254599990323,260.0735412999056,,,3,4.544544999953359,,,,,,,,,,,,,,,,,,,,,260.0735512999818,266.0765535000246,Eimer,sauber,"['Eimer', 'sauber']",test_sub,2,"['Kerze', 'Hammer', 'Kette', 'Blume', 'Hut', 'Geige', 'Uhr', 'Kiste', 'Schlüssel', 'Löffel', 'Fahrrad', 'Jacke', 'Schere', 'Stift', 'Tasse', 'Bürste', 'Brille', 'Kamera', 'Trommel', 'Telefon', 'Flasche', 'Eimer', 'Rucksack', 'Tasche', 'Lampe', 'Ring', 'Vase', 'Würfel', 'Buch', 'Socke']","['lang', 'kaputt', 'glänzend', 'nachhaltig', 'gut', 'kalt', 'kurz', 'verspielt', 'schmutzig', 'gepunktet', 'klobig', 'winzig', 'breit', 'groß', 'teuer', 'strahlend', 'nass', 'glatt', 'schlicht', 'flach', 'rustikal', 'sauber']",3,4.544544999953359,None,,,,,,,,,,,,,,,,,,,,,,,,,,,,,,,,,,,,,,,,,,,,,,,,,,,,,,,,,,,,,,2,2023-12-06_13h59.03.109,watkins1,2023.2.3,99.77441022240777,51,2023-12-06 13h59.14.306689 +0000,
,,,,,,,22,0,22,0,,,,,,,,,,,,,,,,,266.0860214999411,,,,,,,,,,,,266.07708809990436,266.5681402999908,,,1,2.937150500016287,,,,,,,,,,,,,,,,,,,,,266.5681509000715,272.5758664999157,Rucksack,hässlich,"['Rucksack', 'hässlich']",restudy,2,"['Kerze', 'Hammer', 'Kette', 'Blume', 'Hut', 'Geige', 'Uhr', 'Kiste', 'Schlüssel', 'Löffel', 'Fahrrad', 'Jacke', 'Schere', 'Stift', 'Tasse', 'Bürste', 'Brille', 'Kamera', 'Trommel', 'Telefon', 'Flasche', 'Eimer', 'Rucksack', 'Tasche', 'Lampe', 'Ring', 'Vase', 'Würfel', 'Buch', 'Socke']","['lang', 'kaputt', 'glänzend', 'nachhaltig', 'gut', 'kalt', 'kurz', 'verspielt', 'schmutzig', 'gepunktet', 'klobig', 'winzig', 'breit', 'groß', 'teuer', 'strahlend', 'nass', 'glatt', 'schlicht', 'flach', 'rustikal', 'sauber', 'hässlich']",1,2.937150500016287,None,,,,,,,,,,,,,,,,,,,,,,,,,,,,,,,,,,,,,,,,,,,,,,,,,,,,,,,,,,,,,,2,2023-12-06_13h59.03.109,watkins1,2023.2.3,99.77441022240777,51,2023-12-06 13h59.14.306689 +0000,
,,,,,,,23,0,23,0,,,,,,,,,,,,,,,,,272.58529830002226,,,,,,,,,,,,272.57638780004345,273.06741570006125,,,1,3.231290000025183,,,,,,,,,,,,,,,,,,,,,273.06742569990456,279.07022259989753,Tasche,blass,"['Tasche', 'blass']",restudy,2,"['Kerze', 'Hammer', 'Kette', 'Blume', 'Hut', 'Geige', 'Uhr', 'Kiste', 'Schlüssel', 'Löffel', 'Fahrrad', 'Jacke', 'Schere', 'Stift', 'Tasse', 'Bürste', 'Brille', 'Kamera', 'Trommel', 'Telefon', 'Flasche', 'Eimer', 'Rucksack', 'Tasche', 'Lampe', 'Ring', 'Vase', 'Würfel', 'Buch', 'Socke']","['lang', 'kaputt', 'glänzend', 'nachhaltig', 'gut', 'kalt', 'kurz', 'verspielt', 'schmutzig', 'gepunktet', 'klobig', 'winzig', 'breit', 'groß', 'teuer', 'strahlend', 'nass', 'glatt', 'schlicht', 'flach', 'rustikal', 'sauber', 'hässlich', 'blass']",1,3.231290000025183,None,,,,,,,,,,,,,,,,,,,,,,,,,,,,,,,,,,,,,,,,,,,,,,,,,,,,,,,,,,,,,,2,2023-12-06_13h59.03.109,watkins1,2023.2.3,99.77441022240777,51,2023-12-06 13h59.14.306689 +0000,
,,,,,,,24,0,24,0,,,,,,,,,,,,,,,,,279.07975529995747,,,,,,,,,,,,279.07075499999337,279.56172759993933,,,1,3.9210415000561625,,,,,,,,,,,,,,,,,,,,,279.561737800017,285.5720806000754,Lampe,schwer,"['Lampe', 'schwer']",test_sub,2,"['Kerze', 'Hammer', 'Kette', 'Blume', 'Hut', 'Geige', 'Uhr', 'Kiste', 'Schlüssel', 'Löffel', 'Fahrrad', 'Jacke', 'Schere', 'Stift', 'Tasse', 'Bürste', 'Brille', 'Kamera', 'Trommel', 'Telefon', 'Flasche', 'Eimer', 'Rucksack', 'Tasche', 'Lampe', 'Ring', 'Vase', 'Würfel', 'Buch', 'Socke']","['lang', 'kaputt', 'glänzend', 'nachhaltig', 'gut', 'kalt', 'kurz', 'verspielt', 'schmutzig', 'gepunktet', 'klobig', 'winzig', 'breit', 'groß', 'teuer', 'strahlend', 'nass', 'glatt', 'schlicht', 'flach', 'rustikal', 'sauber', 'hässlich', 'blass', 'schwer']",1,3.9210415000561625,None,,,,,,,,,,,,,,,,,,,,,,,,,,,,,,,,,,,,,,,,,,,,,,,,,,,,,,,,,,,,,,2,2023-12-06_13h59.03.109,watkins1,2023.2.3,99.77441022240777,51,2023-12-06 13h59.14.306689 +0000,
,,,,,,,25,0,25,0,,,,,,,,,,,,,,,,,285.5815222999081,,,,,,,,,,,,285.5726008999627,286.06363749993034,,,2,1.8191440999507904,,,,,,,,,,,,,,,,,,,,,286.0636483000126,292.064536599908,Ring,gestreift,"['Ring', 'gestreift']",test_sub,2,"['Kerze', 'Hammer', 'Kette', 'Blume', 'Hut', 'Geige', 'Uhr', 'Kiste', 'Schlüssel', 'Löffel', 'Fahrrad', 'Jacke', 'Schere', 'Stift', 'Tasse', 'Bürste', 'Brille', 'Kamera', 'Trommel', 'Telefon', 'Flasche', 'Eimer', 'Rucksack', 'Tasche', 'Lampe', 'Ring', 'Vase', 'Würfel', 'Buch', 'Socke']","['lang', 'kaputt', 'glänzend', 'nachhaltig', 'gut', 'kalt', 'kurz', 'verspielt', 'schmutzig', 'gepunktet', 'klobig', 'winzig', 'breit', 'groß', 'teuer', 'strahlend', 'nass', 'glatt', 'schlicht', 'flach', 'rustikal', 'sauber', 'hässlich', 'blass', 'schwer', 'gestreift']",2,1.8191440999507904,None,,,,,,,,,,,,,,,,,,,,,,,,,,,,,,,,,,,,,,,,,,,,,,,,,,,,,,,,,,,,,,2,2023-12-06_13h59.03.109,watkins1,2023.2.3,99.77441022240777,51,2023-12-06 13h59.14.306689 +0000,
,,,,,,,26,0,26,0,,,,,,,,,,,,,,,,,292.073460200103,,,,,,,,,,,,292.06511770002544,292.5629966999404,,,3,1.7192705001216382,,,,,,,,,,,,,,,,,,,,,292.56300750002265,298.5726997000165,Vase,hübsch,"['Vase', 'hübsch']",restudy,2,"['Kerze', 'Hammer', 'Kette', 'Blume', 'Hut', 'Geige', 'Uhr', 'Kiste', 'Schlüssel', 'Löffel', 'Fahrrad', 'Jacke', 'Schere', 'Stift', 'Tasse', 'Bürste', 'Brille', 'Kamera', 'Trommel', 'Telefon', 'Flasche', 'Eimer', 'Rucksack', 'Tasche', 'Lampe', 'Ring', 'Vase', 'Würfel', 'Buch', 'Socke']","['lang', 'kaputt', 'glänzend', 'nachhaltig', 'gut', 'kalt', 'kurz', 'verspielt', 'schmutzig', 'gepunktet', 'klobig', 'winzig', 'breit', 'groß', 'teuer', 'strahlend', 'nass', 'glatt', 'schlicht', 'flach', 'rustikal', 'sauber', 'hässlich', 'blass', 'schwer', 'gestreift', 'hübsch']",3,1.7192705001216382,None,,,,,,,,,,,,,,,,,,,,,,,,,,,,,,,,,,,,,,,,,,,,,,,,,,,,,,,,,,,,,,2,2023-12-06_13h59.03.109,watkins1,2023.2.3,99.77441022240777,51,2023-12-06 13h59.14.306689 +0000,
,,,,,,,27,0,27,0,,,,,,,,,,,,,,,,,298.5822360999882,,,,,,,,,,,,298.57323239999823,299.0642357999459,,,1,3.026074099820107,,,,,,,,,,,,,,,,,,,,,299.06424580002204,305.07357780006714,Würfel,neu,"['Würfel', 'neu']",restudy,2,"['Kerze', 'Hammer', 'Kette', 'Blume', 'Hut', 'Geige', 'Uhr', 'Kiste', 'Schlüssel', 'Löffel', 'Fahrrad', 'Jacke', 'Schere', 'Stift', 'Tasse', 'Bürste', 'Brille', 'Kamera', 'Trommel', 'Telefon', 'Flasche', 'Eimer', 'Rucksack', 'Tasche', 'Lampe', 'Ring', 'Vase', 'Würfel', 'Buch', 'Socke']","['lang', 'kaputt', 'glänzend', 'nachhaltig', 'gut', 'kalt', 'kurz', 'verspielt', 'schmutzig', 'gepunktet', 'klobig', 'winzig', 'breit', 'groß', 'teuer', 'strahlend', 'nass', 'glatt', 'schlicht', 'flach', 'rustikal', 'sauber', 'hässlich', 'blass', 'schwer', 'gestreift', 'hübsch', 'neu']",1,3.026074099820107,None,,,,,,,,,,,,,,,,,,,,,,,,,,,,,,,,,,,,,,,,,,,,,,,,,,,,,,,,,,,,,,2,2023-12-06_13h59.03.109,watkins1,2023.2.3,99.77441022240777,51,2023-12-06 13h59.14.306689 +0000,
,,,,,,,28,0,28,0,,,,,,,,,,,,,,,,,305.0829952999484,,,,,,,,,,,,305.07412469992414,305.5651942999102,,,3,4.453871899982914,,,,,,,,,,,,,,,,,,,,,305.56520440010354,311.57273770007305,Buch,elegant,"['Buch', 'elegant']",restudy,2,"['Kerze', 'Hammer', 'Kette', 'Blume', 'Hut', 'Geige', 'Uhr', 'Kiste', 'Schlüssel', 'Löffel', 'Fahrrad', 'Jacke', 'Schere', 'Stift', 'Tasse', 'Bürste', 'Brille', 'Kamera', 'Trommel', 'Telefon', 'Flasche', 'Eimer', 'Rucksack', 'Tasche', 'Lampe', 'Ring', 'Vase', 'Würfel', 'Buch', 'Socke']","['lang', 'kaputt', 'glänzend', 'nachhaltig', 'gut', 'kalt', 'kurz', 'verspielt', 'schmutzig', 'gepunktet', 'klobig', 'winzig', 'breit', 'groß', 'teuer', 'strahlend', 'nass', 'glatt', 'schlicht', 'flach', 'rustikal', 'sauber', 'hässlich', 'blass', 'schwer', 'gestreift', 'hübsch', 'neu', 'elegant']",3,4.453871899982914,None,,,,,,,,,,,,,,,,,,,,,,,,,,,,,,,,,,,,,,,,,,,,,,,,,,,,,,,,,,,,,,2,2023-12-06_13h59.03.109,watkins1,2023.2.3,99.77441022240777,51,2023-12-06 13h59.14.306689 +0000,
,,,,,,,29,0,29,0,,,,,,,,,,,,,,,,,311.5817418000661,,,,,,,,,,,,311.5732666000258,312.0650194999762,,,2,2.0977976000867784,,,,,,,,,,,,,,,,,,,,,312.0650297999382,318.0741258999333,Socke,dunkel,"['Socke', 'dunkel']",restudy,2,"['Kerze', 'Hammer', 'Kette', 'Blume', 'Hut', 'Geige', 'Uhr', 'Kiste', 'Schlüssel', 'Löffel', 'Fahrrad', 'Jacke', 'Schere', 'Stift', 'Tasse', 'Bürste', 'Brille', 'Kamera', 'Trommel', 'Telefon', 'Flasche', 'Eimer', 'Rucksack', 'Tasche', 'Lampe', 'Ring', 'Vase', 'Würfel', 'Buch', 'Socke']","['lang', 'kaputt', 'glänzend', 'nachhaltig', 'gut', 'kalt', 'kurz', 'verspielt', 'schmutzig', 'gepunktet', 'klobig', 'winzig', 'breit', 'groß', 'teuer', 'strahlend', 'nass', 'glatt', 'schlicht', 'flach', 'rustikal', 'sauber', 'hässlich', 'blass', 'schwer', 'gestreift', 'hübsch', 'neu', 'elegant', 'dunkel']",2,2.0977976000867784,None,,,,,,,,,,,,,,,,,,,,,,,,,,,,,,,,,,,,,,,,,,,,,,,,,,,,,,,,,,,,,,2,2023-12-06_13h59.03.109,watkins1,2023.2.3,99.77441022240777,51,2023-12-06 13h59.14.306689 +0000,
,,,,,,,,,,,0,0,0,0,,,,,,,,,,,,,318.083662299905,,,,,,,,,,,,318.07498600007966,318.56565660005435,,,[],[],,,,,,,,,,,,2.9851441998034716,None,,,,,regen,,,,,Brille,nass,"['Brille', 'nass']",test_sub,2,,,,,,318.07490939996205,318.0749584999867,"['Brille', 'Kiste', 'Lampe', 'Vase', 'Eimer', 'Fahrrad', 'Tasche', 'Hammer', 'Socke', 'Blume', 'Uhr', 'Jacke', 'Kerze', 'Buch', 'Hut', 'Schlüssel', 'Löffel', 'Ring', 'Trommel', 'Flasche', 'Bürste', 'Tasse', 'Kette', 'Schere', 'Stift', 'Rucksack', 'Telefon', 'Kamera', 'Geige', 'Würfel']",318.5656673000194,318.5683850001078,None,318.56856749998406,318.5711950000841,None,318.57135510002263,318.5740269999951,None,318.57418500003405,318.575468899915,318.5754815998953,0,324.58334599994123,,,,,,,,,,,,,,,,,,,,,,,,,,,,,,,,,,,,,,,,,,,,,2,2023-12-06_13h59.03.109,watkins1,2023.2.3,99.77441022240777,51,2023-12-06 13h59.14.306689 +0000,
,,,,,,,,,,,1,0,1,0,,,,,,,,,,,,,324.5931897999253,,,,,,,,,,,,324.5836269001011,325.07526979991235,,,[],[],,,,,,,,,,,,1.9895293000154197,None,,,,,kindlc,,,,,Kiste,verspielt,"['Kiste', 'verspielt']",test_sub,2,,,,,,324.5835603000596,324.5835977999959,"['Brille', 'Kiste', 'Lampe', 'Vase', 'Eimer', 'Fahrrad', 'Tasche', 'Hammer', 'Socke', 'Blume', 'Uhr', 'Jacke', 'Kerze', 'Buch', 'Hut', 'Schlüssel', 'Löffel', 'Ring', 'Trommel', 'Flasche', 'Bürste', 'Tasse', 'Kette', 'Schere', 'Stift', 'Rucksack', 'Telefon', 'Kamera', 'Geige', 'Würfel']",325.0752803001087,325.07784570008516,None,325.07796810008585,325.0803459000308,None,325.0804558999371,325.0829453000333,None,325.0830538999289,325.08464729995467,325.0846595999319,0,331.09109380003065,,,,,,,,,,,,,,,,,,,,,,,,,,,,,,,,,,,,,,,,,,,,,2,2023-12-06_13h59.03.109,watkins1,2023.2.3,99.77441022240777,51,2023-12-06 13h59.14.306689 +0000,
,,,,,,,,,,,2,0,2,0,,,,,,,,,,,,,331.10095359990373,,,,,,,,,,,,331.0913738999516,331.5830727000721,,,[],[],,,,,,,,,,,,2.6521533001214266,None,,,,,Gewicht,,,,,Lampe,schwer,"['Lampe', 'schwer']",test_sub,2,,,,,,331.09130720002577,331.0913454000838,"['Brille', 'Kiste', 'Lampe', 'Vase', 'Eimer', 'Fahrrad', 'Tasche', 'Hammer', 'Socke', 'Blume', 'Uhr', 'Jacke', 'Kerze', 'Buch', 'Hut', 'Schlüssel', 'Löffel', 'Ring', 'Trommel', 'Flasche', 'Bürste', 'Tasse', 'Kette', 'Schere', 'Stift', 'Rucksack', 'Telefon', 'Kamera', 'Geige', 'Würfel']",331.58308329991996,331.58583160000853,None,331.5859552999027,331.5885753999464,None,331.5886856999714,331.59125649998896,None,331.59136589989066,331.59252319997177,331.592535499949,0,337.5987986000255,,,,,,,,,,,,,,,,,,,,,,,,,,,,,,,,,,,,,,,,,,,,,2,2023-12-06_13h59.03.109,watkins1,2023.2.3,99.77441022240777,51,2023-12-06 13h59.14.306689 +0000,
,,,,,,,,,,,3,0,3,0,,,,,,,,,,,,,337.60855309991166,,,,,,,,,,,,337.59908009995706,338.0906652000267,,,[],[],,,,,,,,,,,,None,None,,,,,,,,,,Vase,hübsch,"['Vase', 'hübsch']",restudy,2,,,,,,337.59901149990037,337.59905120008625,"['Brille', 'Kiste', 'Lampe', 'Vase', 'Eimer', 'Fahrrad', 'Tasche', 'Hammer', 'Socke', 'Blume', 'Uhr', 'Jacke', 'Kerze', 'Buch', 'Hut', 'Schlüssel', 'Löffel', 'Ring', 'Trommel', 'Flasche', 'Bürste', 'Tasse', 'Kette', 'Schere', 'Stift', 'Rucksack', 'Telefon', 'Kamera', 'Geige', 'Würfel']",338.0906758001074,338.0932428999804,None,338.09336669999175,344.0982417999767,3,344.0986184000503,344.1011779999826,None,344.1012907999102,344.1024378000293,344.1024494001176,,344.1039058000315,4.740988000063226,None,,,,,,,,,,,,,,,,,,,,,,,,,,,,,,,,,,,,,,,,,,,2,2023-12-06_13h59.03.109,watkins1,2023.2.3,99.77441022240777,51,2023-12-06 13h59.14.306689 +0000,
,,,,,,,,,,,4,0,4,0,,,,,,,,,,,,,344.1078049999196,,,,,,,,,,,,344.1041878000833,344.6000230999198,,,[],[],,,,,,,,,,,,3.4826644000131637,None,,,,,säubern,,,,,Eimer,sauber,"['Eimer', 'sauber']",test_sub,2,,,,,,344.10412280005403,344.1041608999949,"['Brille', 'Kiste', 'Lampe', 'Vase', 'Eimer', 'Fahrrad', 'Tasche', 'Hammer', 'Socke', 'Blume', 'Uhr', 'Jacke', 'Kerze', 'Buch', 'Hut', 'Schlüssel', 'Löffel', 'Ring', 'Trommel', 'Flasche', 'Bürste', 'Tasse', 'Kette', 'Schere', 'Stift', 'Rucksack', 'Telefon', 'Kamera', 'Geige', 'Würfel']",344.6000340001192,344.6027021999471,None,344.60282619995996,344.60423679999076,None,344.60434580012225,344.6057436000556,None,344.60585130006075,344.6069867000915,344.6069992000703,0,350.61019270005636,,,,,,,,,,,,,,,,,,,,,,,,,,,,,,,,,,,,,,,,,,,,,2,2023-12-06_13h59.03.109,watkins1,2023.2.3,99.77441022240777,51,2023-12-06 13h59.14.306689 +0000,
,,,,,,,,,,,5,0,5,0,,,,,,,,,,,,,350.6199644000735,,,,,,,,,,,,350.61047030007467,351.10213000001386,,,[],[],,,,,,,,,,,,None,None,,,,,,,,,,Fahrrad,klobig,"['Fahrrad', 'klobig']",restudy,2,,,,,,350.6104051999282,350.61044210009277,"['Brille', 'Kiste', 'Lampe', 'Vase', 'Eimer', 'Fahrrad', 'Tasche', 'Hammer', 'Socke', 'Blume', 'Uhr', 'Jacke', 'Kerze', 'Buch', 'Hut', 'Schlüssel', 'Löffel', 'Ring', 'Trommel', 'Flasche', 'Bürste', 'Tasse', 'Kette', 'Schere', 'Stift', 'Rucksack', 'Telefon', 'Kamera', 'Geige', 'Würfel']",351.10214109998196,351.10490310005844,None,351.10502959997393,357.10647480003536,2,357.10677179996856,357.1094724999275,None,357.1095875001047,357.1107731999364,357.1107846999075,,357.11225909995846,3.7056720999535173,None,,,,,,,,,,,,,,,,,,,,,,,,,,,,,,,,,,,,,,,,,,,2,2023-12-06_13h59.03.109,watkins1,2023.2.3,99.77441022240777,51,2023-12-06 13h59.14.306689 +0000,
,,,,,,,,,,,6,0,6,0,,,,,,,,,,,,,357.11600339994766,,,,,,,,,,,,357.11254350002855,357.6081562000327,,,[],[],,,,,,,,,,,,None,None,,,,,,,,,,Tasche,blass,"['Tasche', 'blass']",restudy,2,,,,,,357.1124758000951,357.11251370003447,"['Brille', 'Kiste', 'Lampe', 'Vase', 'Eimer', 'Fahrrad', 'Tasche', 'Hammer', 'Socke', 'Blume', 'Uhr', 'Jacke', 'Kerze', 'Buch', 'Hut', 'Schlüssel', 'Löffel', 'Ring', 'Trommel', 'Flasche', 'Bürste', 'Tasse', 'Kette', 'Schere', 'Stift', 'Rucksack', 'Telefon', 'Kamera', 'Geige', 'Würfel']",357.6081664999947,357.6108343000524,None,357.6109569000546,363.61248239991255,1,363.61278000008315,363.61548450007103,None,363.61559589998797,363.6167526000645,363.6167639999185,,363.6179166000802,1.6159045998938382,None,,,,,,,,,,,,,,,,,,,,,,,,,,,,,,,,,,,,,,,,,,,2,2023-12-06_13h59.03.109,watkins1,2023.2.3,99.77441022240777,51,2023-12-06 13h59.14.306689 +0000,
,,,,,,,,,,,7,0,7,0,,,,,,,,,,,,,363.62194039998576,,,,,,,,,,,,363.61823130003177,364.11380130006,,,[],[],,,,,,,,,,,,None,None,,,,,,,,,,Hammer,kaputt,"['Hammer', 'kaputt']",restudy,2,,,,,,363.618137100013,363.6182049999479,"['Brille', 'Kiste', 'Lampe', 'Vase', 'Eimer', 'Fahrrad', 'Tasche', 'Hammer', 'Socke', 'Blume', 'Uhr', 'Jacke', 'Kerze', 'Buch', 'Hut', 'Schlüssel', 'Löffel', 'Ring', 'Trommel', 'Flasche', 'Bürste', 'Tasse', 'Kette', 'Schere', 'Stift', 'Rucksack', 'Telefon', 'Kamera', 'Geige', 'Würfel']",364.11381200002506,364.11651029996574,None,364.11663549998775,370.12031199992634,2,370.12060849997215,370.1232817999553,None,370.12339209998026,370.12458280008286,370.12459450005554,,370.1257662998978,2.653862699866295,None,,,,,,,,,,,,,,,,,,,,,,,,,,,,,,,,,,,,,,,,,,,2,2023-12-06_13h59.03.109,watkins1,2023.2.3,99.77441022240777,51,2023-12-06 13h59.14.306689 +0000,
,,,,,,,,,,,8,0,8,0,,,,,,,,,,,,,370.129779699957,,,,,,,,,,,,370.126050400082,370.6219570999965,,,[],[],,,,,,,,,,,,None,None,,,,,,,,,,Socke,dunkel,"['Socke', 'dunkel']",restudy,2,,,,,,370.12598429992795,370.1260232999921,"['Brille', 'Kiste', 'Lampe', 'Vase', 'Eimer', 'Fahrrad', 'Tasche', 'Hammer', 'Socke', 'Blume', 'Uhr', 'Jacke', 'Kerze', 'Buch', 'Hut', 'Schlüssel', 'Löffel', 'Ring', 'Trommel', 'Flasche', 'Bürste', 'Tasse', 'Kette', 'Schere', 'Stift', 'Rucksack', 'Telefon', 'Kamera', 'Geige', 'Würfel']",370.62196859996766,370.62468159990385,None,370.62481099995784,376.6323192000855,2,376.63261909992434,376.63532000011764,None,376.6354362999555,376.6366059000138,376.63661750010215,,376.63779830001295,3.0098661999218166,None,,,,,,,,,,,,,,,,,,,,,,,,,,,,,,,,,,,,,,,,,,,2,2023-12-06_13h59.03.109,watkins1,2023.2.3,99.77441022240777,51,2023-12-06 13h59.14.306689 +0000,
,,,,,,,,,,,9,0,9,0,,,,,,,,,,,,,376.6417962999549,,,,,,,,,,,,376.63808290008456,377.13376779993996,,,[],[],,,,,,,,,,,,4.0048454001080245,None,,,,,Bio,,,,,Blume,nachhaltig,"['Blume', 'nachhaltig']",test_sub,2,,,,,,376.63801770005375,376.6380561001133,"['Brille', 'Kiste', 'Lampe', 'Vase', 'Eimer', 'Fahrrad', 'Tasche', 'Hammer', 'Socke', 'Blume', 'Uhr', 'Jacke', 'Kerze', 'Buch', 'Hut', 'Schlüssel', 'Löffel', 'Ring', 'Trommel', 'Flasche', 'Bürste', 'Tasse', 'Kette', 'Schere', 'Stift', 'Rucksack', 'Telefon', 'Kamera', 'Geige', 'Würfel']",377.133778499905,377.13646490010433,None,377.1365900998935,377.1381584999617,None,377.13827019999735,377.1396822000388,None,377.1397915999405,377.1409517999273,377.1409644000232,0,383.1445393001195,,,,,,,,,,,,,,,,,,,,,,,,,,,,,,,,,,,,,,,,,,,,,2,2023-12-06_13h59.03.109,watkins1,2023.2.3,99.77441022240777,51,2023-12-06 13h59.14.306689 +0000,
,,,,,,,,,,,10,0,10,0,,,,,,,,,,,,,383.15429110010155,,,,,,,,,,,,383.1448180000298,383.6363931999076,,,[],[],,,,,,,,,,,,5.904634000035003,None,,,,,l,,,,,Uhr,kurz,"['Uhr', 'kurz']",test_sub,2,,,,,,383.1447521999944,383.14478880004026,"['Brille', 'Kiste', 'Lampe', 'Vase', 'Eimer', 'Fahrrad', 'Tasche', 'Hammer', 'Socke', 'Blume', 'Uhr', 'Jacke', 'Kerze', 'Buch', 'Hut', 'Schlüssel', 'Löffel', 'Ring', 'Trommel', 'Flasche', 'Bürste', 'Tasse', 'Kette', 'Schere', 'Stift', 'Rucksack', 'Telefon', 'Kamera', 'Geige', 'Würfel']",383.63640399998985,383.6390094999224,None,383.6391340000555,383.64156219991855,None,383.64167460007593,383.6441097999923,None,383.64421749999747,383.6452299999073,383.6452419999987,0,389.65070050000213,,,,,,,,,,,,,,,,,,,,,,,,,,,,,,,,,,,,,,,,,,,,,2,2023-12-06_13h59.03.109,watkins1,2023.2.3,99.77441022240777,51,2023-12-06 13h59.14.306689 +0000,
,,,,,,,,,,,11,0,11,0,,,,,,,,,,,,,389.66041969996877,,,,,,,,,,,,389.6509825999383,390.1424076000694,,,[],[],,,,,,,,,,,,None,None,,,,,,,,,,Jacke,winzig,"['Jacke', 'winzig']",restudy,2,,,,,,389.65091490000486,389.65095299994573,"['Brille', 'Kiste', 'Lampe', 'Vase', 'Eimer', 'Fahrrad', 'Tasche', 'Hammer', 'Socke', 'Blume', 'Uhr', 'Jacke', 'Kerze', 'Buch', 'Hut', 'Schlüssel', 'Löffel', 'Ring', 'Trommel', 'Flasche', 'Bürste', 'Tasse', 'Kette', 'Schere', 'Stift', 'Rucksack', 'Telefon', 'Kamera', 'Geige', 'Würfel']",390.1424181999173,390.1449810001068,None,390.14510500011966,396.1462495001033,1,396.14655359997414,396.1492349000182,None,396.14935100008734,396.1505237000529,396.150535200024,,396.1520225000568,4.809701800113544,None,,,,,,,,,,,,,,,,,,,,,,,,,,,,,,,,,,,,,,,,,,,2,2023-12-06_13h59.03.109,watkins1,2023.2.3,99.77441022240777,51,2023-12-06 13h59.14.306689 +0000,
,,,,,,,,,,,12,0,12,0,,,,,,,,,,,,,396.15580260008574,,,,,,,,,,,,396.1523070000112,396.64789230003953,,,[],[],,,,,,,,,,,,2.8198230999987572,None,,,,,Kerze,,,,,Kerze,lang,"['Kerze', 'lang']",test_sub,2,,,,,,396.1522397000808,396.15227989992127,"['Brille', 'Kiste', 'Lampe', 'Vase', 'Eimer', 'Fahrrad', 'Tasche', 'Hammer', 'Socke', 'Blume', 'Uhr', 'Jacke', 'Kerze', 'Buch', 'Hut', 'Schlüssel', 'Löffel', 'Ring', 'Trommel', 'Flasche', 'Bürste', 'Tasse', 'Kette', 'Schere', 'Stift', 'Rucksack', 'Telefon', 'Kamera', 'Geige', 'Würfel']",396.64790310012177,396.6505891000852,None,396.650712700095,396.65213300008327,None,396.6522421000991,396.65366289997473,None,396.65377130010165,396.6549293000717,396.6549416000489,1,402.6579853000585,,,,,,,,,,,,,,,,,,,,,,,,,,,,,,,,,,,,,,,,,,,,,2,2023-12-06_13h59.03.109,watkins1,2023.2.3,99.77441022240777,51,2023-12-06 13h59.14.306689 +0000,
,,,,,,,,,,,13,0,13,0,,,,,,,,,,,,,402.6677437000908,,,,,,,,,,,,402.65826840000227,403.14967620000243,,,[],[],,,,,,,,,,,,None,None,,,,,,,,,,Buch,elegant,"['Buch', 'elegant']",restudy,2,,,,,,402.65820059995167,402.6582378000021,"['Brille', 'Kiste', 'Lampe', 'Vase', 'Eimer', 'Fahrrad', 'Tasche', 'Hammer', 'Socke', 'Blume', 'Uhr', 'Jacke', 'Kerze', 'Buch', 'Hut', 'Schlüssel', 'Löffel', 'Ring', 'Trommel', 'Flasche', 'Bürste', 'Tasse', 'Kette', 'Schere', 'Stift', 'Rucksack', 'Telefon', 'Kamera', 'Geige', 'Würfel']",403.1496868999675,403.1521183999721,None,403.1522466999013,409.15459759999067,3,409.1548961000517,409.157468700083,None,409.15758210001513,409.1586307999678,409.1586424000561,,409.1601346998941,1.5703412999864668,None,,,,,,,,,,,,,,,,,,,,,,,,,,,,,,,,,,,,,,,,,,,2,2023-12-06_13h59.03.109,watkins1,2023.2.3,99.77441022240777,51,2023-12-06 13h59.14.306689 +0000,
,,,,,,,,,,,14,0,14,0,,,,,,,,,,,,,409.1640540000517,,,,,,,,,,,,409.160417099949,409.65611089998856,,,[],[],,,,,,,,,,,,None,None,,,,,,,,,,Hut,gut,"['Hut', 'gut']",restudy,2,,,,,,409.16035189991817,409.1603906999808,"['Brille', 'Kiste', 'Lampe', 'Vase', 'Eimer', 'Fahrrad', 'Tasche', 'Hammer', 'Socke', 'Blume', 'Uhr', 'Jacke', 'Kerze', 'Buch', 'Hut', 'Schlüssel', 'Löffel', 'Ring', 'Trommel', 'Flasche', 'Bürste', 'Tasse', 'Kette', 'Schere', 'Stift', 'Rucksack', 'Telefon', 'Kamera', 'Geige', 'Würfel']",409.65612199995667,409.65867329994217,None,409.65879909996875,415.6682607999537,1,415.6685808999464,415.67098119994625,None,415.67109770001844,415.6721308999695,415.67214290006086,,415.67317189997993,1.3601724000182003,None,,,,,,,,,,,,,,,,,,,,,,,,,,,,,,,,,,,,,,,,,,,2,2023-12-06_13h59.03.109,watkins1,2023.2.3,99.77441022240777,51,2023-12-06 13h59.14.306689 +0000,
,,,,,,,,,,,15,0,15,0,,,,,,,,,,,,,415.67772129992954,,,,,,,,,,,,415.6734656000044,416.16987539990805,,,[],[],,,,,,,,,,,,None,None,,,,,,,,,,Schlüssel,schmutzig,"['Schlüssel', 'schmutzig']",restudy,2,,,,,,415.6733965999447,415.67343760002404,"['Brille', 'Kiste', 'Lampe', 'Vase', 'Eimer', 'Fahrrad', 'Tasche', 'Hammer', 'Socke', 'Blume', 'Uhr', 'Jacke', 'Kerze', 'Buch', 'Hut', 'Schlüssel', 'Löffel', 'Ring', 'Trommel', 'Flasche', 'Bürste', 'Tasse', 'Kette', 'Schere', 'Stift', 'Rucksack', 'Telefon', 'Kamera', 'Geige', 'Würfel']",416.16988630010746,416.17250819993205,None,416.1726341000758,422.1754296000581,2,422.1757290000096,422.17861990001984,None,422.17873680009507,422.17998569994234,422.17999759991653,,422.18123789993115,3.2054252999369055,None,,,,,,,,,,,,,,,,,,,,,,,,,,,,,,,,,,,,,,,,,,,2,2023-12-06_13h59.03.109,watkins1,2023.2.3,99.77441022240777,51,2023-12-06 13h59.14.306689 +0000,
,,,,,,,,,,,16,0,16,0,,,,,,,,,,,,,422.18493210012093,,,,,,,,,,,,422.18152330000885,422.67711609997787,,,[],[],,,,,,,,,,,,None,None,,,,,,,,,,Löffel,gepunktet,"['Löffel', 'gepunktet']",restudy,2,,,,,,422.18145829997957,422.1814965000376,"['Brille', 'Kiste', 'Lampe', 'Vase', 'Eimer', 'Fahrrad', 'Tasche', 'Hammer', 'Socke', 'Blume', 'Uhr', 'Jacke', 'Kerze', 'Buch', 'Hut', 'Schlüssel', 'Löffel', 'Ring', 'Trommel', 'Flasche', 'Bürste', 'Tasse', 'Kette', 'Schere', 'Stift', 'Rucksack', 'Telefon', 'Kamera', 'Geige', 'Würfel']",422.6771265999414,422.6799097000621,None,422.68003539997153,428.6820867001079,1,428.68237760011107,428.6851524999365,None,428.6852633000817,428.68640880007297,428.6864201000426,,428.6876330000814,1.8103652000427246,None,,,,,,,,,,,,,,,,,,,,,,,,,,,,,,,,,,,,,,,,,,,2,2023-12-06_13h59.03.109,watkins1,2023.2.3,99.77441022240777,51,2023-12-06 13h59.14.306689 +0000,
,,,,,,,,,,,17,0,17,0,,,,,,,,,,,,,428.69154189992696,,,,,,,,,,,,428.68791020009667,429.1834235000424,,,[],[],,,,,,,,,,,,2.2778145000338554,None,,,,,Hemd,,,,,Ring,gestreift,"['Ring', 'gestreift']",test_sub,2,,,,,,428.6878472000826,428.6878841998987,"['Brille', 'Kiste', 'Lampe', 'Vase', 'Eimer', 'Fahrrad', 'Tasche', 'Hammer', 'Socke', 'Blume', 'Uhr', 'Jacke', 'Kerze', 'Buch', 'Hut', 'Schlüssel', 'Löffel', 'Ring', 'Trommel', 'Flasche', 'Bürste', 'Tasse', 'Kette', 'Schere', 'Stift', 'Rucksack', 'Telefon', 'Kamera', 'Geige', 'Würfel']",429.1834342998918,429.1860936000012,None,429.1862196000293,429.1875281999819,None,429.1876379000023,429.18894880008884,None,429.18905659997836,429.1901020000223,429.1901145000011,0,435.19348710007034,,,,,,,,,,,,,,,,,,,,,,,,,,,,,,,,,,,,,,,,,,,,,2,2023-12-06_13h59.03.109,watkins1,2023.2.3,99.77441022240777,51,2023-12-06 13h59.14.306689 +0000,
,,,,,,,,,,,18,0,18,0,,,,,,,,,,,,,435.20329670002684,,,,,,,,,,,,435.1937651000917,435.6853563999757,,,[],[],,,,,,,,,,,,2.2908882999327034,None,,,,,Modernes,,,,,Trommel,schlicht,"['Trommel', 'schlicht']",test_sub,2,,,,,,435.1936991000548,435.19373619998805,"['Brille', 'Kiste', 'Lampe', 'Vase', 'Eimer', 'Fahrrad', 'Tasche', 'Hammer', 'Socke', 'Blume', 'Uhr', 'Jacke', 'Kerze', 'Buch', 'Hut', 'Schlüssel', 'Löffel', 'Ring', 'Trommel', 'Flasche', 'Bürste', 'Tasse', 'Kette', 'Schere', 'Stift', 'Rucksack', 'Telefon', 'Kamera', 'Geige', 'Würfel']",435.6853664999362,435.6881248001009,None,435.68824740010314,435.6908390999306,None,435.690947300056,435.693527800031,None,435.6936365000438,435.69481169991195,435.69482390000485,0,441.7012008000165,,,,,,,,,,,,,,,,,,,,,,,,,,,,,,,,,,,,,,,,,,,,,2,2023-12-06_13h59.03.109,watkins1,2023.2.3,99.77441022240777,51,2023-12-06 13h59.14.306689 +0000,
,,,,,,,,,,,19,0,19,0,,,,,,,,,,,,,441.71099920012057,,,,,,,,,,,,441.701485699974,442.19342710007913,,,[],[],,,,,,,,,,,,2.0895332999061793,None,,,,,Baumarkt,,,,,Flasche,rustikal,"['Flasche', 'rustikal']",test_sub,2,,,,,,441.7014160999097,441.7014564999845,"['Brille', 'Kiste', 'Lampe', 'Vase', 'Eimer', 'Fahrrad', 'Tasche', 'Hammer', 'Socke', 'Blume', 'Uhr', 'Jacke', 'Kerze', 'Buch', 'Hut', 'Schlüssel', 'Löffel', 'Ring', 'Trommel', 'Flasche', 'Bürste', 'Tasse', 'Kette', 'Schere', 'Stift', 'Rucksack', 'Telefon', 'Kamera', 'Geige', 'Würfel']",442.1934372000396,442.1961539001204,None,442.19627640000544,442.1988228999544,None,442.19893150008284,442.2014695999678,None,442.2015770000871,442.2027608999051,442.2027728999965,0,448.2114101999905,,,,,,,,,,,,,,,,,,,,,,,,,,,,,,,,,,,,,,,,,,,,,2,2023-12-06_13h59.03.109,watkins1,2023.2.3,99.77441022240777,51,2023-12-06 13h59.14.306689 +0000,
,,,,,,,,,,,20,0,20,0,,,,,,,,,,,,,448.2211833000183,,,,,,,,,,,,448.21169340005144,448.70332999993116,,,[],[],,,,,,,,,,,,1.336769500048831,None,,,,,Sonne,,,,,Bürste,strahlend,"['Bürste', 'strahlend']",test_sub,2,,,,,,448.21162350010127,448.2116640000604,"['Brille', 'Kiste', 'Lampe', 'Vase', 'Eimer', 'Fahrrad', 'Tasche', 'Hammer', 'Socke', 'Blume', 'Uhr', 'Jacke', 'Kerze', 'Buch', 'Hut', 'Schlüssel', 'Löffel', 'Ring', 'Trommel', 'Flasche', 'Bürste', 'Tasse', 'Kette', 'Schere', 'Stift', 'Rucksack', 'Telefon', 'Kamera', 'Geige', 'Würfel']",448.70334109989926,448.70605650008656,None,448.7061813999899,448.7087387999054,None,448.70884869992733,448.71139269997366,None,448.71150170010515,448.71266310010105,448.7126752999611,0,454.7191568000708,,,,,,,,,,,,,,,,,,,,,,,,,,,,,,,,,,,,,,,,,,,,,2,2023-12-06_13h59.03.109,watkins1,2023.2.3,99.77441022240777,51,2023-12-06 13h59.14.306689 +0000,
,,,,,,,,,,,21,0,21,0,,,,,,,,,,,,,454.7289315001108,,,,,,,,,,,,454.7194479999598,455.2110687000677,,,[],[],,,,,,,,,,,,None,None,,,,,,,,,,Tasse,teuer,"['Tasse', 'teuer']",restudy,2,,,,,,454.71937549998984,454.71941659995355,"['Brille', 'Kiste', 'Lampe', 'Vase', 'Eimer', 'Fahrrad', 'Tasche', 'Hammer', 'Socke', 'Blume', 'Uhr', 'Jacke', 'Kerze', 'Buch', 'Hut', 'Schlüssel', 'Löffel', 'Ring', 'Trommel', 'Flasche', 'Bürste', 'Tasse', 'Kette', 'Schere', 'Stift', 'Rucksack', 'Telefon', 'Kamera', 'Geige', 'Würfel']",455.21107920003124,455.2138336999342,None,455.2139590999577,461.2159204999916,1,461.2162339000497,461.2190082001034,None,461.2191218000371,461.22027590009384,461.2202876000665,,461.2217455001082,1.8365359001327306,None,,,,,,,,,,,,,,,,,,,,,,,,,,,,,,,,,,,,,,,,,,,2,2023-12-06_13h59.03.109,watkins1,2023.2.3,99.77441022240777,51,2023-12-06 13h59.14.306689 +0000,
,,,,,,,,,,,22,0,22,0,,,,,,,,,,,,,461.2253644000739,,,,,,,,,,,,461.2220338000916,461.7176039000042,,,[],[],,,,,,,,,,,,2.730066000018269,None,,,,,Liebe,,,,,Kette,glänzend,"['Kette', 'glänzend']",test_sub,2,,,,,,461.22196840005927,461.22200700012036,"['Brille', 'Kiste', 'Lampe', 'Vase', 'Eimer', 'Fahrrad', 'Tasche', 'Hammer', 'Socke', 'Blume', 'Uhr', 'Jacke', 'Kerze', 'Buch', 'Hut', 'Schlüssel', 'Löffel', 'Ring', 'Trommel', 'Flasche', 'Bürste', 'Tasse', 'Kette', 'Schere', 'Stift', 'Rucksack', 'Telefon', 'Kamera', 'Geige', 'Würfel']",461.71761510008946,461.7202681999188,None,461.72039250005037,461.7218142999336,None,461.72192439995706,461.72334120003507,None,461.7234515999444,461.7246057000011,461.72461990010925,0,467.728599099908,,,,,,,,,,,,,,,,,,,,,,,,,,,,,,,,,,,,,,,,,,,,,2,2023-12-06_13h59.03.109,watkins1,2023.2.3,99.77441022240777,51,2023-12-06 13h59.14.306689 +0000,
,,,,,,,,,,,23,0,23,0,,,,,,,,,,,,,467.7384063999634,,,,,,,,,,,,467.72887880005874,468.22047280007973,,,[],[],,,,,,,,,,,,None,None,,,,,,,,,,Schere,breit,"['Schere', 'breit']",restudy,2,,,,,,467.72881280002184,467.72885000007227,"['Brille', 'Kiste', 'Lampe', 'Vase', 'Eimer', 'Fahrrad', 'Tasche', 'Hammer', 'Socke', 'Blume', 'Uhr', 'Jacke', 'Kerze', 'Buch', 'Hut', 'Schlüssel', 'Löffel', 'Ring', 'Trommel', 'Flasche', 'Bürste', 'Tasse', 'Kette', 'Schere', 'Stift', 'Rucksack', 'Telefon', 'Kamera', 'Geige', 'Würfel']",468.2204825999215,468.2232093999628,None,468.2233329999726,474.2287882999517,1,474.22908860002644,474.2317121999804,None,474.2318243999034,474.2330070999451,474.23301859991625,,474.23447040002793,2.259360699914396,None,,,,,,,,,,,,,,,,,,,,,,,,,,,,,,,,,,,,,,,,,,,2,2023-12-06_13h59.03.109,watkins1,2023.2.3,99.77441022240777,51,2023-12-06 13h59.14.306689 +0000,
,,,,,,,,,,,24,0,24,0,,,,,,,,,,,,,474.23832169990055,,,,,,,,,,,,474.2347550999839,474.7304334999062,,,[],[],,,,,,,,,,,,None,None,,,,,,,,,,Stift,groß,"['Stift', 'groß']",restudy,2,,,,,,474.23468789993785,474.23472750000656,"['Brille', 'Kiste', 'Lampe', 'Vase', 'Eimer', 'Fahrrad', 'Tasche', 'Hammer', 'Socke', 'Blume', 'Uhr', 'Jacke', 'Kerze', 'Buch', 'Hut', 'Schlüssel', 'Löffel', 'Ring', 'Trommel', 'Flasche', 'Bürste', 'Tasse', 'Kette', 'Schere', 'Stift', 'Rucksack', 'Telefon', 'Kamera', 'Geige', 'Würfel']",474.73044380010106,474.7330265000928,None,474.733150199987,480.7425764000509,2,480.7428741999902,480.7453954999801,None,480.7455076999031,480.74666390009224,480.7466756000649,,480.7477156999521,3.5016654001083225,None,,,,,,,,,,,,,,,,,,,,,,,,,,,,,,,,,,,,,,,,,,,2,2023-12-06_13h59.03.109,watkins1,2023.2.3,99.77441022240777,51,2023-12-06 13h59.14.306689 +0000,
,,,,,,,,,,,25,0,25,0,,,,,,,,,,,,,480.7520441999659,,,,,,,,,,,,480.74800070002675,481.24423180008307,,,[],[],,,,,,,,,,,,None,None,,,,,,,,,,Rucksack,hässlich,"['Rucksack', 'hässlich']",restudy,2,,,,,,480.7479356001131,480.7479735999368,"['Brille', 'Kiste', 'Lampe', 'Vase', 'Eimer', 'Fahrrad', 'Tasche', 'Hammer', 'Socke', 'Blume', 'Uhr', 'Jacke', 'Kerze', 'Buch', 'Hut', 'Schlüssel', 'Löffel', 'Ring', 'Trommel', 'Flasche', 'Bürste', 'Tasse', 'Kette', 'Schere', 'Stift', 'Rucksack', 'Telefon', 'Kamera', 'Geige', 'Würfel']",481.2442429000512,481.24683570000343,None,481.2469603999052,487.2516065000091,1,487.2519062999636,487.25474880007096,None,487.2548622000031,487.2560658000875,487.256077399943,,487.25734329991974,2.1793819998856634,None,,,,,,,,,,,,,,,,,,,,,,,,,,,,,,,,,,,,,,,,,,,2,2023-12-06_13h59.03.109,watkins1,2023.2.3,99.77441022240777,51,2023-12-06 13h59.14.306689 +0000,
,,,,,,,,,,,26,0,26,0,,,,,,,,,,,,,487.26118150004186,,,,,,,,,,,,487.25763119990006,487.75319919991307,,,[],[],,,,,,,,,,,,1.7559915999881923,None,,,,,Papier,,,,,Telefon,flach,"['Telefon', 'flach']",test_sub,2,,,,,,487.25756480009295,487.25760379992425,"['Brille', 'Kiste', 'Lampe', 'Vase', 'Eimer', 'Fahrrad', 'Tasche', 'Hammer', 'Socke', 'Blume', 'Uhr', 'Jacke', 'Kerze', 'Buch', 'Hut', 'Schlüssel', 'Löffel', 'Ring', 'Trommel', 'Flasche', 'Bürste', 'Tasse', 'Kette', 'Schere', 'Stift', 'Rucksack', 'Telefon', 'Kamera', 'Geige', 'Würfel']",487.7532091999892,487.7559346999042,None,487.7560566000175,487.75750779989175,None,487.7576188999228,487.7590747999493,None,487.7591889000032,487.7603895999491,487.7604020999279,0,493.7640362000093,,,,,,,,,,,,,,,,,,,,,,,,,,,,,,,,,,,,,,,,,,,,,2,2023-12-06_13h59.03.109,watkins1,2023.2.3,99.77441022240777,51,2023-12-06 13h59.14.306689 +0000,
,,,,,,,,,,,27,0,27,0,,,,,,,,,,,,,493.7738443000708,,,,,,,,,,,,493.7643198999576,494.25579790002666,,,[],[],,,,,,,,,,,,2.4913596000988036,None,,,,,Fläche,,,,,Kamera,glatt,"['Kamera', 'glatt']",test_sub,2,,,,,,493.76425309991464,493.7642912999727,"['Brille', 'Kiste', 'Lampe', 'Vase', 'Eimer', 'Fahrrad', 'Tasche', 'Hammer', 'Socke', 'Blume', 'Uhr', 'Jacke', 'Kerze', 'Buch', 'Hut', 'Schlüssel', 'Löffel', 'Ring', 'Trommel', 'Flasche', 'Bürste', 'Tasse', 'Kette', 'Schere', 'Stift', 'Rucksack', 'Telefon', 'Kamera', 'Geige', 'Würfel']",494.2558083999902,494.2585640999023,None,494.25868789991364,494.26127410004847,None,494.2613872999791,494.26391190011054,None,494.26402099989355,494.26518950005993,494.26520209992304,0,500.2714806001168,,,,,,,,,,,,,,,,,,,,,,,,,,,,,,,,,,,,,,,,,,,,,2,2023-12-06_13h59.03.109,watkins1,2023.2.3,99.77441022240777,51,2023-12-06 13h59.14.306689 +0000,
,,,,,,,,,,,28,0,28,0,,,,,,,,,,,,,500.2812169000972,,,,,,,,,,,,500.27176419994794,500.76356069999747,,,[],[],,,,,,,,,,,,1.6181514000054449,None,,,,,Winter,,,,,Geige,kalt,"['Geige', 'kalt']",test_sub,2,,,,,,500.2716947000008,500.27173359994777,"['Brille', 'Kiste', 'Lampe', 'Vase', 'Eimer', 'Fahrrad', 'Tasche', 'Hammer', 'Socke', 'Blume', 'Uhr', 'Jacke', 'Kerze', 'Buch', 'Hut', 'Schlüssel', 'Löffel', 'Ring', 'Trommel', 'Flasche', 'Bürste', 'Tasse', 'Kette', 'Schere', 'Stift', 'Rucksack', 'Telefon', 'Kamera', 'Geige', 'Würfel']",500.76357059995644,500.76637060008943,None,500.7664942999836,500.76897200010717,None,500.76907970011234,500.7715362999588,None,500.7716427000705,500.7727787999902,500.77279240009375,0,506.7799545999151,,,,,,,,,,,,,,,,,,,,,,,,,,,,,,,,,,,,,,,,,,,,,2,2023-12-06_13h59.03.109,watkins1,2023.2.3,99.77441022240777,51,2023-12-06 13h59.14.306689 +0000,
,,,,,,,,,,,29,0,29,0,,,,,,,,,,,,,506.78975340002216,,,,,,,,,,,,506.780236300081,507.27171709993854,,,[],[],,,,,,,,,,,,None,None,,,,,,,,,,Würfel,neu,"['Würfel', 'neu']",restudy,2,,,,,,506.7801659000106,506.7802067999728,"['Brille', 'Kiste', 'Lampe', 'Vase', 'Eimer', 'Fahrrad', 'Tasche', 'Hammer', 'Socke', 'Blume', 'Uhr', 'Jacke', 'Kerze', 'Buch', 'Hut', 'Schlüssel', 'Löffel', 'Ring', 'Trommel', 'Flasche', 'Bürste', 'Tasse', 'Kette', 'Schere', 'Stift', 'Rucksack', 'Telefon', 'Kamera', 'Geige', 'Würfel']",507.2717277999036,507.274308900116,None,507.27443549991585,513.2798888001125,1,513.280190099962,513.2827417999506,None,513.2828536999878,513.284056100063,513.2840678000357,,513.2853965999093,1.536258599953726,None,,,,,,,,,,,,,,,,,,,,,,,,,,,,,,,,,,,,,,,,,,,2,2023-12-06_13h59.03.109,watkins1,2023.2.3,99.77441022240777,51,2023-12-06 13h59.14.306689 +0000,
,,,,,,,,,,,,,,,,,,,,,,,,,,,,,,,,,,,,,,,,,,,,,,,,,,,,,,,,,,,,,,,,,,,,,,,2,,,,,,,,,,,,,,,,,,,,,,,,,,,,,,,,,,,,,,,,,,,,,,,,,,,,,,,,,,,,,,,,,,,2,2023-12-06_13h59.03.109,watkins1,2023.2.3,99.77441022240777,51,2023-12-06 13h59.14.306689 +0000,
(25 : 5) + 5 = 9 ,Incorrect,button_incorrect,,,,,,,,,,,,,0,0,0,6,,,,,,,,,557.1500224000774,,,,,,,,,,556.1166137999389,557.1206424999982,,,,,['button_incorrect'],[5.3766556000337005],,,,,,,,,,,,,,,,,,,,,,,,,,distractorTask,2,,,,,,,,,,,,,,,,,,,,,,,,,557.1394539000466,557.1500224000774,562.5207024000119,[-0.4101851851851852],[-0.39166666666666666],[1],[0],[0],[5.3766556000337005],['button_incorrect'],562.5213675000705,563.5244881000835,,,,,,,,,,,,,,,,,,,,,,,,,,,,,,,2,2023-12-06_13h59.03.109,watkins1,2023.2.3,99.77441022240777,51,2023-12-06 13h59.14.306689 +0000,
(2 x 5) + 3 = 13 ,Correct,button_correct,,,,,,,,,,,,,0,1,1,2,,,,,,,,,563.5344708000775,,,,,,,,,,,,,,,,['button_incorrect'],[6.1524869001004845],,,,,,,,,,,,,,,,,,,,,,,,,,distractorTask,2,,,,,,,,,,,,,,,,,,,,,,,,,563.5246794000268,563.5344708000775,569.6802970001008,[-0.337037037037037],[-0.39351851851851855],[1],[0],[0],[6.1524869001004845],['button_incorrect'],569.6806747999508,570.6840474999044,,,,,,,,,,,,,,,,,,,,,,,,,,,,,,,2,2023-12-06_13h59.03.109,watkins1,2023.2.3,99.77441022240777,51,2023-12-06 13h59.14.306689 +0000,
(28 : 7) - 3 = 1 ,Correct,button_correct,,,,,,,,,,,,,0,2,2,0,,,,,,,,,570.6941277999431,,,,,,,,,,,,,,,,['button_incorrect'],[4.185085400007665],,,,,,,,,,,,,,,,,,,,,,,,,,distractorTask,2,,,,,,,,,,,,,,,,,,,,,,,,,570.6842404000927,570.6941277999431,574.872443200089,[-0.337037037037037],[-0.39351851851851855],[1],[0],[0],[4.185085400007665],['button_incorrect'],574.8728318000212,575.8760466000531,,,,,,,,,,,,,,,,,,,,,,,,,,,,,,,2,2023-12-06_13h59.03.109,watkins1,2023.2.3,99.77441022240777,51,2023-12-06 13h59.14.306689 +0000,
(4 : 2) + 4 = 6 ,Correct,button_correct,,,,,,,,,,,,,0,3,3,1,,,,,,,,,575.886025399901,,,,,,,,,,,,,,,,['button_correct'],[4.216421999968588],,,,,,,,,,,,,,,,,,,,,,,,,,distractorTask,2,,,,,,,,,,,,,,,,,,,,,,,,,575.8762380001135,575.886025399901,580.0951618000399,[0.41388888888888886],[-0.4009259259259259],[1],[0],[0],[4.216421999968588],['button_correct'],580.095537800109,581.0989073999226,,,,,,,,,,,,,,,,,,,,,,,,,,,,,,,2,2023-12-06_13h59.03.109,watkins1,2023.2.3,99.77441022240777,51,2023-12-06 13h59.14.306689 +0000,
(7 x 6) + 9 = 48 ,Incorrect,button_incorrect,,,,,,,,,,,,,0,4,4,9,,,,,,,,,581.1088610999286,,,,,,,,,,,,,,,,['button_incorrect'],[10.602855699835345],,,,,,,,,,,,,,,,,,,,,,,,,,distractorTask,2,,,,,,,,,,,,,,,,,,,,,,,,,581.0991009999998,581.1088610999286,591.7036550000776,[-0.41759259259259257],[-0.40925925925925927],[1],[0],[0],[10.602855699835345],['button_incorrect'],591.7040446000174,592.7073313000146,,,,,,,,,,,,,,,,,,,,,,,,,,,,,,,2,2023-12-06_13h59.03.109,watkins1,2023.2.3,99.77441022240777,51,2023-12-06 13h59.14.306689 +0000,
(40 : 5) + 8 = 15 ,Incorrect,button_incorrect,,,,,,,,,,,,,0,5,5,7,,,,,,,,,592.7173325999174,,,,,,,,,,,,,,,,['button_incorrect'],[3.3413330998737365],,,,,,,,,,,,,,,,,,,,,,,,,,distractorTask,2,,,,,,,,,,,,,,,,,,,,,,,,,592.7075229999609,592.7173325999174,596.0516250000801,[-0.3453703703703704],[-0.4],[1],[0],[0],[3.3413330998737365],['button_incorrect'],596.0520075000823,597.0550855000038,,,,,,,,,,,,,,,,,,,,,,,,,,,,,,,2,2023-12-06_13h59.03.109,watkins1,2023.2.3,99.77441022240777,51,2023-12-06 13h59.14.306689 +0000,
(6 x 3) + 10 = 27 ,Incorrect,button_incorrect,,,,,,,,,,,,,0,6,6,8,,,,,,,,,597.0650381001178,,,,,,,,,,,,,,,,['button_incorrect'],"[3.4234070000238717, 3.9359857998788357]",,,,,,,,,,,,,,,,,,,,,,,,,,distractorTask,2,,,,,,,,,,,,,,,,,,,,,,,,,597.055280999979,597.0650381001178,600.9929953000974,"[-0.27314814814814814, -0.29074074074074074]","[-0.4064814814814815, -0.4064814814814815]","[1, 1]","[0, 0]","[0, 0]","[3.4234070000238717, 3.9359857998788357]",['button_incorrect'],600.9934167999309,601.995978299994,,,,,,,,,,,,,,,,,,,,,,,,,,,,,,,2,2023-12-06_13h59.03.109,watkins1,2023.2.3,99.77441022240777,51,2023-12-06 13h59.14.306689 +0000,
(54 : 6) - 10 = 0 ,Incorrect,button_incorrect,,,,,,,,,,,,,0,7,7,5,,,,,,,,,602.0059259999543,,,,,,,,,,,,,,,,['button_incorrect'],[7.6107412001583725],,,,,,,,,,,,,,,,,,,,,,,,,,distractorTask,2,,,,,,,,,,,,,,,,,,,,,,,,,601.996175599983,602.0059259999543,609.6087024000008,[-0.2777777777777778],[-0.4074074074074074],[1],[0],[0],[7.6107412001583725],['button_incorrect'],609.6090838999953,610.6121008000337,,,,,,,,,,,,,,,,,,,,,,,,,,,,,,,2,2023-12-06_13h59.03.109,watkins1,2023.2.3,99.77441022240777,51,2023-12-06 13h59.14.306689 +0000,
(9 x 5) - 9 = 36 ,Correct,button_correct,,,,,,,,,,,,,0,8,8,4,,,,,,,,,610.6221847000998,,,,,,,,,,,,,,,,['button_incorrect'],[6.8266167000401765],,,,,,,,,,,,,,,,,,,,,,,,,,distractorTask,2,,,,,,,,,,,,,,,,,,,,,,,,,610.6122963000089,610.6221847000998,617.4406532999128,[-0.3388888888888889],[-0.4074074074074074],[1],[0],[0],[6.8266167000401765],['button_incorrect'],617.4410375000443,618.4444504999556,,,,,,,,,,,,,,,,,,,,,,,,,,,,,,,2,2023-12-06_13h59.03.109,watkins1,2023.2.3,99.77441022240777,51,2023-12-06 13h59.14.306689 +0000,
(80 : 10) + 9 = 17 ,Correct,button_correct,,,,,,,,,,,,,0,9,9,3,,,,,,,,,618.454377700109,,,,,,,,,,,,,,,,['button_correct'],[9.617899500066414],,,,,,,,,,,,,,,,,,,,,,,,,,distractorTask,2,,,,,,,,,,,,,,,,,,,,,,,,,618.4446427999064,618.454377700109,628.0643659001216,[0.3212962962962963],[-0.40370370370370373],[1],[0],[0],[9.617899500066414],['button_correct'],628.0647442000918,629.0681052999571,,,,,,,,,,,,,,,,,,,,,,,,,,,,,,,2,2023-12-06_13h59.03.109,watkins1,2023.2.3,99.77441022240777,51,2023-12-06 13h59.14.306689 +0000,
,,,,,,,,,,,,,,,,,,,,,,,,,,,,,,,,,,,,,,,,,,,,,,,,,,,,,,,,,,,,,,,,,,,,,,,2,,,,,,,,,,,,,,,,,,,,,,,,,,,,,,,,,,,,,,,,,,,,,,,,,,,,,,,,,,,,,,,,,,,2,2023-12-06_13h59.03.109,watkins1,2023.2.3,99.77441022240777,51,2023-12-06 13h59.14.306689 +0000,
,,,,,,,,,,,,,,,,,,,0,0,0,0,,,,,648.5361023999285,,,,,,,,,,,,,,,,Hammer,13.07831020001322,,,,,,,,,,,,9.900391800096259,None,,,,,,,,,,,,,freeRecallSub,2,,,,,,,,,,,,,,,,,,,,,,,,,,,,,,,,,,,,,648.528605400119,648.5361023999285,648.5361023999285,661.6215379000641,return,13.07831020001322,None,Hammer,"[-0.524074074074074, -0.012962962962962963]","[0.19444444444444445, 0.03981481481481482]","[1, 1]","[0, 0]","[0, 0]","[1.2629560001660138, 2.206942700082436]",[],,,,,,,,,,,,,,,,2,2023-12-06_13h59.03.109,watkins1,2023.2.3,99.77441022240777,51,2023-12-06 13h59.14.306689 +0000,
,,,,,,,,,,,,,,,,,,,1,0,1,0,,,,,661.6335366999265,,,,,,,,,,,,,,,,Blume,4.316872800001875,,,,,,,,,,,,0.9353974000550807,None,,,,,,,,,,,,,freeRecallSub,2,,,,,,,,,,,,,,,,,,,,,,,,,,,,,,,,,,,,,661.6233415000606,661.6335366999265,661.6335366999265,665.9530172001105,return,4.316872800001875,None,Blume,[],[],[],[],[],[],[],,,,,,,,,,,,,,,,2,2023-12-06_13h59.03.109,watkins1,2023.2.3,99.77441022240777,51,2023-12-06 13h59.14.306689 +0000,
,,,,,,,,,,,,,,,,,,,2,0,2,0,,,,,665.9637279000599,,,,,,,,,,,,,,,,Tasse,2.8266932000406086,,,,,,,,,,,,1.4460992000531405,None,,,,,,,,,,,,,freeRecallSub,2,,,,,,,,,,,,,,,,,,,,,,,,,,,,,,,,,,,,,665.9542980000842,665.9637279000599,665.9637279000599,668.7962120000739,return,2.8266932000406086,None,Tasse,[],[],[],[],[],[],[],,,,,,,,,,,,,,,,2,2023-12-06_13h59.03.109,watkins1,2023.2.3,99.77441022240777,51,2023-12-06 13h59.14.306689 +0000,
,,,,,,,,,,,,,,,,,,,3,0,3,0,,,,,668.8061321999412,,,,,,,,,,,,,,,,Hund,13.808114999905229,,,,,,,,,,,,12.029815000016242,None,,,,,,,,,,,,,freeRecallSub,2,,,,,,,,,,,,,,,,,,,,,,,,,,,,,,,,,,,,,668.7974553001113,668.8061321999412,668.8061321999412,682.6148049999028,return,13.808114999905229,None,Hund,[],[],[],[],[],[],[],,,,,,,,,,,,,,,,2,2023-12-06_13h59.03.109,watkins1,2023.2.3,99.77441022240777,51,2023-12-06 13h59.14.306689 +0000,
,,,,,,,,,,,,,,,,,,,4,0,4,0,,,,,682.6257305999752,,,,,,,,,,,,,,,,Tasche,69.14844750007614,,,,,,,,,,,,65.67395410011522,None,,,,,,,,,,,,,freeRecallSub,2,,,,,,,,,,,,,,,,,,,,,,,,,,,,,,,,,,,,,682.6160450999159,682.6257305999752,682.6257305999752,751.7750586001202,return,69.14844750007614,None,Tasche,[],[],[],[],[],[],[],,,,,,,,,,,,,,,,2,2023-12-06_13h59.03.109,watkins1,2023.2.3,99.77441022240777,51,2023-12-06 13h59.14.306689 +0000,
,,,,,,,,,,,,,,,,,,,5,0,5,0,,,,,751.7864276000764,,,,,,,,,,,,,,,,,[],,,,,,,,,,,,None,None,,,,,,,,,,,,,freeRecallSub,2,,,,,,,,,,,,,,,,,,,,,,,,,,,,,,,,,,,,,751.7763724001125,751.7864276000764,751.7864276000764,863.5439975999761,None,,,,[0.34444444444444444],[-0.40370370370370373],[1],[0],[0],[111.76377720013261],"['button_continue', 'continue_text']",,,,,,,,,,,,,,,,2,2023-12-06_13h59.03.109,watkins1,2023.2.3,99.77441022240777,51,2023-12-06 13h59.14.306689 +0000,
,,,,,,,,,,,,,,,,,,,,,,,,,,,,,,,,,,,,,,,,,,,,,,,,,,,,,,,,,,,,,,,,,,,,,,,2,,,,,,,,,,,,,,,,,,,,,,,,,,,,,,,,,,,,,,,,,,,,,,,,,,,,,,,,,,,,,,,,,,,2,2023-12-06_13h59.03.109,watkins1,2023.2.3,99.77441022240777,51,2023-12-06 13h59.14.306689 +0000,
,,,,,,,,,,,,,,,,,,,,,,,0,0,0,0,881.4377727999818,,,,,,,,,,,,901.1234641000628,901.6217227999587,,,,19.68011730001308,,,,,,,,,,,,None,None,,,,,,,,,,Blume,,,cuedRecallAdj,2,,,,,,,,,,,,,,,,,,,,,0,,,,,,,,,,,,,,,,,,,,,,,,,,,,,,,881.4288302001078,881.4377727999818,881.4377727999818,901.1201128999237,nachhaltig,return,19.68011730001308,None,901.120511499932,901.1295429999009,901.1295429999009,901.1233155000955,,None,,2,2023-12-06_13h59.03.109,watkins1,2023.2.3,99.77441022240777,51,2023-12-06 13h59.14.306689 +0000,
,,,,,,,,,,,,,,,,,,,,,,,1,0,1,0,901.6317336000502,,,,,,,,,,,,908.202638000017,908.7017576000653,,,,6.566117700189352,,,,,,,,,,,,None,None,,,,,,,,,,Buch,,,cuedRecallAdj,2,,,,,,,,,,,,,,,,,,,,,0,,,,,,,,,,,,,,,,,,,,,,,,,,,,,,,901.6219627999235,901.6317336000502,901.6317336000502,908.1999218999408,edel,return,6.566117700189352,None,908.2001902000047,908.2095248000696,908.2095248000696,908.2025371000636,,None,,2,2023-12-06_13h59.03.109,watkins1,2023.2.3,99.77441022240777,51,2023-12-06 13h59.14.306689 +0000,
,,,,,,,,,,,,,,,,,,,,,,,2,0,2,0,908.711712300079,,,,,,,,,,,,925.646340199979,926.1450618000235,,,,16.926171600120142,,,,,,,,,,,,None,None,,,,,,,,,,Telefon,,,cuedRecallAdj,2,,,,,,,,,,,,,,,,,,,,,0,,,,,,,,,,,,,,,,,,,,,,,,,,,,,,,908.7019992999267,908.711712300079,908.711712300079,925.6431837999262,glatt,return,16.926171600120142,None,925.6434500999749,925.6527366000228,925.6527366000228,925.6462381000165,,None,,2,2023-12-06_13h59.03.109,watkins1,2023.2.3,99.77441022240777,51,2023-12-06 13h59.14.306689 +0000,
,,,,,,,,,,,,,,,,,,,,,,,3,0,3,0,926.1550068000797,,,,,,,,,,,,928.146473800065,928.6453949999996,,,,1.9869339999277145,,,,,,,,,,,,None,None,,,,,,,,,,Geige,,,cuedRecallAdj,2,,,,,,,,,,,,,,,,,,,,,0,,,,,,,,,,,,,,,,,,,,,,,,,,,,,,,926.1453060999047,926.1550068000797,926.1550068000797,928.1436652000993,kalt,return,1.9869339999277145,None,928.1439271999989,928.1531865000725,928.1531865000725,928.1463687000796,,None,,2,2023-12-06_13h59.03.109,watkins1,2023.2.3,99.77441022240777,51,2023-12-06 13h59.14.306689 +0000,
,,,,,,,,,,,,,,,,,,,,,,,4,0,4,0,928.6553442999721,,,,,,,,,,,,937.726345699979,938.2249912999105,,,,9.062537800054997,,,,,,,,,,,,None,None,,,,,,,,,,Ring,,,cuedRecallAdj,2,,,,,,,,,,,,,,,,,,,,,0,,,,,,,,,,,,,,,,,,,,,,,,,,,,,,,928.645638700109,928.6553442999721,928.6553442999721,937.7234120999929,gestreift,return,9.062537800054997,None,937.723679299932,937.7329432000406,937.7329432000406,937.7262446000241,,None,,2,2023-12-06_13h59.03.109,watkins1,2023.2.3,99.77441022240777,51,2023-12-06 13h59.14.306689 +0000,
,,,,,,,,,,,,,,,,,,,,,,,5,0,5,0,938.2350490000099,,,,,,,,,,,,941.7630032999441,942.2616359998938,,,,3.514837499940768,,,,,,,,,,,,None,None,,,,,,,,,,Schlüssel,,,cuedRecallAdj,2,,,,,,,,,,,,,,,,,,,,,0,,,,,,,,,,,,,,,,,,,,,,,,,,,,,,,938.2252374999225,938.2350490000099,938.2350490000099,941.7598896001,schmutzig,return,3.514837499940768,None,941.7601562000345,941.7696042000316,941.7696042000316,941.7629003000911,,None,,2,2023-12-06_13h59.03.109,watkins1,2023.2.3,99.77441022240777,51,2023-12-06 13h59.14.306689 +0000,
,,,,,,,,,,,,,,,,,,,,,,,6,0,6,0,942.2715348000638,,,,,,,,,,,,958.2115851000417,958.7098451999482,,,,15.93430530000478,,,,,,,,,,,,None,None,,,,,,,,,,Brille,,,cuedRecallAdj,2,,,,,,,,,,,,,,,,,,,,,0,,,,,,,,,,,,,,,,,,,,,,,,,,,,,,,942.2618795000017,942.2715348000638,942.2715348000638,958.2082865999546,durchsichtig,return,15.93430530000478,None,958.2085740999319,958.2178311999887,958.2178311999887,958.2114792999346,,None,,2,2023-12-06_13h59.03.109,watkins1,2023.2.3,99.77441022240777,51,2023-12-06 13h59.14.306689 +0000,
,,,,,,,,,,,,,,,,,,,,,,,7,0,7,0,958.7199039999396,,,,,,,,,,,,962.4585919999518,962.9573017999064,,,,3.7342700001318008,,,,,,,,,,,,None,None,,,,,,,,,,Socke,,,cuedRecallAdj,2,,,,,,,,,,,,,,,,,,,,,0,,,,,,,,,,,,,,,,,,,,,,,,,,,,,,,958.7100917000789,958.7199039999396,958.7199039999396,962.4556261999533,dunkel,return,3.7342700001318008,None,962.45589140011,962.4651337999385,962.4651337999385,962.4584906999953,,None,,2,2023-12-06_13h59.03.109,watkins1,2023.2.3,99.77441022240777,51,2023-12-06 13h59.14.306689 +0000,
,,,,,,,,,,,,,,,,,,,,,,,8,0,8,0,962.9672624000814,,,,,,,,,,,,984.8013236999977,985.2999571999535,,,,21.82252910011448,,,,,,,,,,,,None,None,,,,,,,,,,Flasche,,,cuedRecallAdj,2,,,,,,,,,,,,,,,,,,,,,0,,,,,,,,,,,,,,,,,,,,,,,,,,,,,,,962.9575459000189,962.9672624000814,962.9672624000814,984.7982218000107,einfach,return,21.82252910011448,None,984.79848639993,984.8079295000061,984.8079295000061,984.801221499918,,None,,2,2023-12-06_13h59.03.109,watkins1,2023.2.3,99.77441022240777,51,2023-12-06 13h59.14.306689 +0000,
,,,,,,,,,,,,,,,,,,,,,,,9,0,9,0,985.3100083000027,,,,,,,,,,,,1009.0516774998978,1009.5505635999143,,,,23.73571710009128,,,,,,,,,,,,None,None,,,,,,,,,,Tasche,,,cuedRecallAdj,2,,,,,,,,,,,,,,,,,,,,,0,,,,,,,,,,,,,,,,,,,,,,,,,,,,,,,985.3002007999457,985.3100083000027,985.3100083000027,1009.0488201999106,leer,return,23.73571710009128,None,1009.0490896000993,1009.0583472999278,1009.0583472999278,1009.051576100057,,None,,2,2023-12-06_13h59.03.109,watkins1,2023.2.3,99.77441022240777,51,2023-12-06 13h59.14.306689 +0000,
,,,,,,,,,,,,,,,,,,,,,,,10,0,10,0,1009.5605113001075,,,,,,,,,,,,1012.2645988001022,1012.763709800085,,,,2.693189699901268,,,,,,,,,,,,None,None,,,,,,,,,,Hut,,,cuedRecallAdj,2,,,,,,,,,,,,,,,,,,,,,0,,,,,,,,,,,,,,,,,,,,,,,,,,,,,,,1009.5508069000207,1009.5605113001075,1009.5605113001075,1012.261898299912,gut,return,2.693189699901268,None,1012.2621625000611,1012.271642900072,1012.271642900072,1012.2644964999054,,None,,2,2023-12-06_13h59.03.109,watkins1,2023.2.3,99.77441022240777,51,2023-12-06 13h59.14.306689 +0000,
,,,,,,,,,,,,,,,,,,,,,,,11,0,11,0,1012.773663100088,,,,,,,,,,,,1016.5228019000497,1017.021358900005,,,,3.744011800037697,,,,,,,,,,,,None,None,,,,,,,,,,Rucksack,,,cuedRecallAdj,2,,,,,,,,,,,,,,,,,,,,,0,,,,,,,,,,,,,,,,,,,,,,,,,,,,,,,1012.7639566001017,1012.773663100088,1012.773663100088,1016.5197540998925,hässlich,return,3.744011800037697,None,1016.5200227999594,1016.5293165000621,1016.5293165000621,1016.5227012000978,,None,,2,2023-12-06_13h59.03.109,watkins1,2023.2.3,99.77441022240777,51,2023-12-06 13h59.14.306689 +0000,
,,,,,,,,,,,,,,,,,,,,,,,12,0,12,0,1017.0312723000534,,,,,,,,,,,,1076.1197607000358,1076.6182456000242,,,,59.0782658001408,,,,,,,,,,,,None,None,,,,,,,,,,Bürste,,,cuedRecallAdj,2,,,,,,,,,,,,,,,,,,,,,0,,,,,,,,,,,,,,,,,,,,,,,,,,,,,,,1017.0215978999622,1017.0312723000534,1017.0312723000534,1076.1167077000719,glänzend,return,59.0782658001408,None,1076.1169763000216,1076.126223700121,1076.126223700121,1076.1196594000794,,None,,2,2023-12-06_13h59.03.109,watkins1,2023.2.3,99.77441022240777,51,2023-12-06 13h59.14.306689 +0000,
,,,,,,,,,,,,,,,,,,,,,,,13,0,13,0,1076.628296900075,,,,,,,,,,,,1097.254687699955,1097.753472500015,,,,20.617324700113386,,,,,,,,,,,,None,None,,,,,,,,,,Eimer,,,cuedRecallAdj,2,,,,,,,,,,,,,,,,,,,,,0,,,,,,,,,,,,,,,,,,,,,,,,,,,,,,,1076.6184920000378,1076.628296900075,1076.628296900075,1097.2517355999444,schwer,return,20.617324700113386,None,1097.2520087999292,1097.261222800007,1097.261222800007,1097.2545863001142,,None,,2,2023-12-06_13h59.03.109,watkins1,2023.2.3,99.77441022240777,51,2023-12-06 13h59.14.306689 +0000,
,,,,,,,,,,,,,,,,,,,,,,,14,0,14,0,1097.7635220999364,,,,,,,,,,,,1100.487126900116,1100.9768713999074,,,,2.713988400064409,,,,,,,,,,,,None,None,,,,,,,,,,Lampe,,,cuedRecallAdj,2,,,,,,,,,,,,,,,,,,,,,0,,,,,,,,,,,,,,,,,,,,,,,,,,,,,,,1097.7537267999724,1097.7635220999364,1097.7635220999364,1100.48503109999,schwer,return,2.713988400064409,None,1100.4852982999291,1100.4947009000462,1100.4947009000462,1100.4870253000408,,None,,2,2023-12-06_13h59.03.109,watkins1,2023.2.3,99.77441022240777,51,2023-12-06 13h59.14.306689 +0000,
,,,,,,,,,,,,,,,,,,,,,,,15,0,15,0,1100.9868016000837,,,,,,,,,,,,1104.0734256999567,1104.5718765000347,,,,3.0827708998695016,,,,,,,,,,,,None,None,,,,,,,,,,Tasse,,,cuedRecallAdj,2,,,,,,,,,,,,,,,,,,,,,0,,,,,,,,,,,,,,,,,,,,,,,,,,,,,,,1100.9771092000883,1100.9868016000837,1100.9868016000837,1104.07013430004,teuer,return,3.0827708998695016,None,1104.0703992999624,1104.0796415999066,1104.0796415999066,1104.0733245001175,,None,,2,2023-12-06_13h59.03.109,watkins1,2023.2.3,99.77441022240777,51,2023-12-06 13h59.14.306689 +0000,
,,,,,,,,,,,,,,,,,,,,,,,16,0,16,0,1104.58182880003,,,,,,,,,,,,1108.3005641999189,1108.7993455000687,,,,3.711707199923694,,,,,,,,,,,,None,None,,,,,,,,,,Löffel,,,cuedRecallAdj,2,,,,,,,,,,,,,,,,,,,,,0,,,,,,,,,,,,,,,,,,,,,,,,,,,,,,,1104.5721235999372,1104.58182880003,1104.58182880003,1108.2974952999502,gepunktet,return,3.711707199923694,None,1108.2977597001009,1108.3070368000772,1108.3070368000772,1108.300463499967,,None,,2,2023-12-06_13h59.03.109,watkins1,2023.2.3,99.77441022240777,51,2023-12-06 13h59.14.306689 +0000,
,,,,,,,,,,,,,,,,,,,,,,,17,0,17,0,1108.809245500015,,,,,,,,,,,,1118.0811308999546,1118.5799986999482,,,,9.260161899961531,,,,,,,,,,,,None,None,,,,,,,,,,Vase,,,cuedRecallAdj,2,,,,,,,,,,,,,,,,,,,,,0,,,,,,,,,,,,,,,,,,,,,,,,,,,,,,,1108.7995885999408,1108.809245500015,1108.809245500015,1118.0782379999291,hübsch,return,9.260161899961531,None,1118.078505200101,1118.087903900072,1118.087903900072,1118.0810267999768,,None,,2,2023-12-06_13h59.03.109,watkins1,2023.2.3,99.77441022240777,51,2023-12-06 13h59.14.306689 +0000,
,,,,,,,,,,,,,,,,,,,,,,,18,0,18,0,1118.589996600058,,,,,,,,,,,,1123.1734704999253,1123.6721063998993,,,,4.575475599849597,,,,,,,,,,,,None,None,,,,,,,,,,Fahrrad,,,cuedRecallAdj,2,,,,,,,,,,,,,,,,,,,,,0,,,,,,,,,,,,,,,,,,,,,,,,,,,,,,,1118.580242099939,1118.589996600058,1118.589996600058,1123.1704206999857,klobig,return,4.575475599849597,None,1123.170688800048,1123.1799747000914,1123.1799747000914,1123.1733599000145,,None,,2,2023-12-06_13h59.03.109,watkins1,2023.2.3,99.77441022240777,51,2023-12-06 13h59.14.306689 +0000,
,,,,,,,,,,,,,,,,,,,,,,,19,0,19,0,1123.682054300094,,,,,,,,,,,,1128.2446910000872,1128.7432498000562,,,,4.555454700021073,,,,,,,,,,,,None,None,,,,,,,,,,Kamera,,,cuedRecallAdj,2,,,,,,,,,,,,,,,,,,,,,0,,,,,,,,,,,,,,,,,,,,,,,,,,,,,,,1123.6723551000468,1123.682054300094,1123.682054300094,1128.2415738001,glatt,return,4.555454700021073,None,1128.2418384000193,1128.251084400108,1128.251084400108,1128.244588600006,,None,,2,2023-12-06_13h59.03.109,watkins1,2023.2.3,99.77441022240777,51,2023-12-06 13h59.14.306689 +0000,
,,,,,,,,,,,,,,,,,,,,,,,20,0,20,0,1128.7531501001213,,,,,,,,,,,,1130.3028925999533,1130.8016689000651,,,,1.5403465998824686,,,,,,,,,,,,None,None,,,,,,,,,,Kerze,,,cuedRecallAdj,2,,,,,,,,,,,,,,,,,,,,,0,,,,,,,,,,,,,,,,,,,,,,,,,,,,,,,1128.7434970000759,1128.7531501001213,1128.7531501001213,1130.2999024000019,lang,return,1.5403465998824686,None,1130.3001892000902,1130.3095174001064,1130.3095174001064,1130.3027816000395,,None,,2,2023-12-06_13h59.03.109,watkins1,2023.2.3,99.77441022240777,51,2023-12-06 13h59.14.306689 +0000,
,,,,,,,,,,,,,,,,,,,,,,,21,0,21,0,1130.8116683999542,,,,,,,,,,,,1133.40636179992,1133.904802700039,,,,2.585773800034076,,,,,,,,,,,,None,None,,,,,,,,,,Kette,,,cuedRecallAdj,2,,,,,,,,,,,,,,,,,,,,,0,,,,,,,,,,,,,,,,,,,,,,,,,,,,,,,1130.801910399925,1130.8116683999542,1130.8116683999542,1133.4031448999885,glänzend,return,2.585773800034076,None,1133.40342290001,1133.4127913000993,1133.4127913000993,1133.406260299962,,None,,2,2023-12-06_13h59.03.109,watkins1,2023.2.3,99.77441022240777,51,2023-12-06 13h59.14.306689 +0000,
,,,,,,,,,,,,,,,,,,,,,,,22,0,22,0,1133.9148458000273,,,,,,,,,,,,1144.5017013000324,1145.0005183999892,,,,10.578658900223672,,,,,,,,,,,,None,None,,,,,,,,,,Kiste,,,cuedRecallAdj,2,,,,,,,,,,,,,,,,,,,,,0,,,,,,,,,,,,,,,,,,,,,,,,,,,,,,,1133.9050499000587,1133.9148458000273,1133.9148458000273,1144.4988073999994,voll,return,10.578658900223672,None,1144.4990749999415,1144.508307900047,1144.508307900047,1144.5015998999588,,None,,2,2023-12-06_13h59.03.109,watkins1,2023.2.3,99.77441022240777,51,2023-12-06 13h59.14.306689 +0000,
,,,,,,,,,,,,,,,,,,,,,,,23,0,23,0,1145.0104159999173,,,,,,,,,,,,1149.1615228999872,1149.6602211000863,,,,4.139095700113103,,,,,,,,,,,,None,None,,,,,,,,,,Trommel,,,cuedRecallAdj,2,,,,,,,,,,,,,,,,,,,,,0,,,,,,,,,,,,,,,,,,,,,,,,,,,,,,,1145.0007710999344,1145.0104159999173,1145.0104159999173,1149.1584622999653,laut,return,4.139095700113103,None,1149.158727100119,1149.1681828000583,1149.1681828000583,1149.1614208000246,,None,,2,2023-12-06_13h59.03.109,watkins1,2023.2.3,99.77441022240777,51,2023-12-06 13h59.14.306689 +0000,
,,,,,,,,,,,,,,,,,,,,,,,24,0,24,0,1149.6701774001122,,,,,,,,,,,,1155.4979109000415,1155.9968572000507,,,,5.823317300062627,,,,,,,,,,,,None,None,,,,,,,,,,Uhr,,,cuedRecallAdj,2,,,,,,,,,,,,,,,,,,,,,0,,,,,,,,,,,,,,,,,,,,,,,,,,,,,,,1149.660465199966,1149.6701774001122,1149.6701774001122,1155.4951756999362,kurz,return,5.823317300062627,None,1155.4954452998936,1155.5046981000341,1155.5046981000341,1155.4978074999526,,None,,2,2023-12-06_13h59.03.109,watkins1,2023.2.3,99.77441022240777,51,2023-12-06 13h59.14.306689 +0000,
,,,,,,,,,,,,,,,,,,,,,,,25,0,25,0,1156.0068055000156,,,,,,,,,,,,1172.59905599989,1173.0976698999293,,,,16.582608599914238,,,,,,,,,,,,None,None,,,,,,,,,,Stift,,,cuedRecallAdj,2,,,,,,,,,,,,,,,,,,,,,0,,,,,,,,,,,,,,,,,,,,,,,,,,,,,,,1155.9971026000567,1156.0068055000156,1156.0068055000156,1172.5960657000542,teuer,return,16.582608599914238,None,1172.5963292000815,1172.6056313000154,1172.6056313000154,1172.598954499932,,None,,2,2023-12-06_13h59.03.109,watkins1,2023.2.3,99.77441022240777,51,2023-12-06 13h59.14.306689 +0000,
,,,,,,,,,,,,,,,,,,,,,,,26,0,26,0,1173.1077252998948,,,,,,,,,,,,1175.6413511000574,1176.1401303999592,,,,2.5216198000125587,,,,,,,,,,,,None,None,,,,,,,,,,Hammer,,,cuedRecallAdj,2,,,,,,,,,,,,,,,,,,,,,0,,,,,,,,,,,,,,,,,,,,,,,,,,,,,,,1173.0979112999048,1173.1077252998948,1173.1077252998948,1175.6383861999493,kaputt,return,2.5216198000125587,None,1175.6386508999858,1175.6482152999379,1175.6482152999379,1175.6412494000979,,None,,2,2023-12-06_13h59.03.109,watkins1,2023.2.3,99.77441022240777,51,2023-12-06 13h59.14.306689 +0000,
,,,,,,,,,,,,,,,,,,,,,,,27,0,27,0,1176.150187100051,,,,,,,,,,,,1216.9940031000879,1217.4926899999846,,,,40.83105460018851,,,,,,,,,,,,None,None,,,,,,,,,,Jacke,,,cuedRecallAdj,2,,,,,,,,,,,,,,,,,,,,,0,,,,,,,,,,,,,,,,,,,,,,,,,,,,,,,1176.1403665000107,1176.150187100051,1176.150187100051,1216.9909838999156,gefüllt,return,40.83105460018851,None,1216.9912525000982,1217.00065609999,1217.00065609999,1216.993900100002,,None,,2,2023-12-06_13h59.03.109,watkins1,2023.2.3,99.77441022240777,51,2023-12-06 13h59.14.306689 +0000,
,,,,,,,,,,,,,,,,,,,,,,,28,0,28,0,1217.5026034999173,,,,,,,,,,,,1219.1025147000328,1219.601388100069,,,,1.5907226998824626,,,,,,,,,,,,None,None,,,,,,,,,,Würfel,,,cuedRecallAdj,2,,,,,,,,,,,,,,,,,,,,,0,,,,,,,,,,,,,,,,,,,,,,,,,,,,,,,1217.4929331999738,1217.5026034999173,1217.5026034999173,1219.099695400102,neu,return,1.5907226998824626,None,1219.0999598000199,1219.1092610000633,1219.1092610000633,1219.102411000058,,None,,2,2023-12-06_13h59.03.109,watkins1,2023.2.3,99.77441022240777,51,2023-12-06 13h59.14.306689 +0000,
,,,,,,,,,,,,,,,,,,,,,,,29,0,29,0,1219.6112877000123,,,,,,,,,,,,1225.9056977999862,1226.404128999915,,,,6.290093599818647,,,,,,,,,,,,None,None,,,,,,,,,,Schere,,,cuedRecallAdj,2,,,,,,,,,,,,,,,,,,,,,0,,,,,,,,,,,,,,,,,,,,,,,,,,,,,,,1219.6016317999456,1219.6112877000123,1219.6112877000123,1225.9024769999087,schwer,return,6.290093599818647,None,1225.9027531999163,1225.9120149998926,1225.9120149998926,1225.9055965999141,,None,,2,2023-12-06_13h59.03.109,watkins1,2023.2.3,99.77441022240777,51,2023-12-06 13h59.14.306689 +0000,
,,,,,,,,,,,,,,,,,,,,,,,,,,,,,,,,,,,,,,,,,,,,,,,,,,,,,,,,,,,,,,,,,,,,,,,,,,,,,,,,,,,,,,,,,,,,,,,,,,,,,,,,,,,,,,,,,,,,,,,,,,,,,,,,,,,,,,,,,1226.4212962000165,,,,,,,,
