Equation,CorrectResponse,Correctbutton,trials_7.thisRepN,trials_7.thisTrialN,trials_7.thisN,trials_7.thisIndex,trials.thisRepN,trials.thisTrialN,trials.thisN,trials.thisIndex,trials_3.thisRepN,trials_3.thisTrialN,trials_3.thisN,trials_3.thisIndex,trials_2.thisRepN,trials_2.thisTrialN,trials_2.thisN,trials_2.thisIndex,trials_4.thisRepN,trials_4.thisTrialN,trials_4.thisN,trials_4.thisIndex,trials_5.thisRepN,trials_5.thisTrialN,trials_5.thisN,trials_5.thisIndex,thisRow.t,notes,code_marius.started,code_marius.stopped,welcome.started,welcome.stopped,instruction_study.started,instruction_study.stopped,fixationcross.started,fixationcross.stopped,blanc.started,blanc.stopped,study_control_probe.started,study_control_probe.stopped,responseKey,responseTime,scale_answer_2.keys,study_control_probe_2.started,study_control_probe_2.stopped,scale_answer_3.keys,scale_answer_3.rt,scale_answer_3.duration,blanc_2.started,blanc_2.stopped,test_attr_probe.started,test_attr_probe.stopped,recalled_attr,firstKeyTime,secondWordTime,blanc_3.started,blanc_3.stopped,test_sub_probe.started,test_sub_probe.stopped,recalled_sub,instruction_probe_end.started,instruction_probe_end.stopped,study.started,study.stopped,substantive,adjective,wordpair,task,condition,liste_sub_phase1,liste_adj_phase1,scale_answer.keys,scale_answer.rt,scale_answer.duration,code_defineWordsInit.started,code_defineWordsInit.stopped,liste_sub_phase2,study_control.started,study_control.stopped,scale_answer_4.keys,scale_answer_4.rt,scale_answer_4.duration,restudy_same.started,restudy_same.stopped,scale_answer_5.keys,restudy_different.started,restudy_different.stopped,scale_answer_6.keys,test_attr.started,test_attr.stopped,test_sub.started,test_sub.stopped,scale_answer_6.rt,scale_answer_6.duration,distractortask.started,equation_text.started,distractortask.stopped,mouse_answer.x,mouse_answer.y,mouse_answer.leftButton,mouse_answer.midButton,mouse_answer.rightButton,mouse_answer.time,mouse_answer.clicked_name,feedback_distractortask.started,feedback_distractortask.stopped,free_recall.started,text_enter.started,key_resp.started,free_recall.stopped,key_resp.keys,key_resp.rt,key_resp.duration,free_recalled_sub,mouse_continue.x,mouse_continue.y,mouse_continue.leftButton,mouse_continue.midButton,mouse_continue.rightButton,mouse_continue.time,mouse_continue.clicked_name,cued_recall.started,text_enter_2.started,correct,key_continue.started,cued_recall.stopped,recalled_attr1,key_continue.keys,key_continue.rt,key_continue.duration,cued_recall_2.started,text_enter_3.started,key_continue_2.started,cued_recall_2.stopped,recalled_attr2,key_continue_2.keys,key_continue_2.rt,key_continue_2.duration,key_resp_8.started,key_resp_8.keys,key_resp_8.rt,key_resp_8.duration,condition,date,expName,psychopyVersion,frameRate,participant,expStart,
,,,,,,,,,,,,,,,,,,,,,,,,,,,,,0.11235680000390857,0.11242540000239387,0.11243380000814795,3.118434400006663,,,,,,,,,,,,,,,,,,,,,,,,,,,,,,,,,,,,,1,,,,,,,,,,,,,,,,,,,,,,,,,,,,,,,,,,,,,,,,,,,,,,,,,,,,,,,,,,,,,,,,,,,,,,,,,,1,2023-12-19_12h31.38.139,watkins1,2023.2.3,99.72108012789805,70,2023-12-19 12h31.48.696444 +0000,
,,,,,,,,,,,,,,,,,,,,,,,,,,,,,,,,,3.1184817999601364,29.373852299991995,,,,,,,,,,,,,,,,,,,,,,,,,,,,,,,,,,,1,,,,,,,,,,,,,,,,,,,,,,,,,,,,,,,,,,,,,,,,,,,,,,,,,,,,,,,,,,,,,,,,,,,,,,,,,,1,2023-12-19_12h31.38.139,watkins1,2023.2.3,99.72108012789805,70,2023-12-19 12h31.48.696444 +0000,
,,,0,0,0,0,,,,,,,,,,,,,,,,,,,,,30.38758370000869,,,,,,,,29.373868599999696,30.37759729998652,36.87705959996674,37.368254099972546,30.86962329997914,36.87689580000006,2,2.4015951000037603,None,37.36826580000343,43.37806979997549,2,2.4015951000037603,None,43.378372900013346,43.3783967999625,43.378403900016565,43.378485699999146,,None,None,43.37865199998487,43.37867239996558,43.37867919995915,43.37875239999266,,,,,,,,,,1,,,,,,,,,,,,,,,,,,,,,,,,,,,,,,,,,,,,,,,,,,,,,,,,,,,,,,,,,,,,,,,,,,,,,,,,,,1,2023-12-19_12h31.38.139,watkins1,2023.2.3,99.72108012789805,70,2023-12-19 12h31.48.696444 +0000,
,,,,,,,,,,,,,,,,,,,,,,,,,,,,,,,,,,,,,,,,,,,,,,,,,,,,,,,,,,,,,43.37886699999217,46.62751149997348,,,,,,,1,,,,,,,,,,,,,,,,,,,,,,,,,,,,,,,,,,,,,,,,,,,,,,,,,,,,,,,,,,,,,,,,,,,,,,,,,,1,2023-12-19_12h31.38.139,watkins1,2023.2.3,99.72108012789805,70,2023-12-19 12h31.48.696444 +0000,
,,,,,,,0,0,0,0,,,,,,,,,,,,,,,,,47.64104319998296,,,,,,,,46.627527499978896,47.63104820001172,47.63149529998191,48.12308900000062,,,1,2.230263000004925,,,,,,,,,,,,,,,,,,,,,48.12309979996644,54.126875999965705,Telefon,flauschig,"['Telefon', 'flauschig']",control,1,"['Telefon', 'Buch', 'Schlüssel', 'Kamera', 'Geige', 'Uhr', 'Schere', 'Ring', 'Jacke', 'Hammer', 'Blume', 'Tasse', 'Tasche', 'Kerze', 'Vase', 'Eimer', 'Stift', 'Fahrrad', 'Flasche', 'Rucksack', 'Brille', 'Hut']",['flauschig'],1,2.230263000004925,None,,,,,,,,,,,,,,,,,,,,,,,,,,,,,,,,,,,,,,,,,,,,,,,,,,,,,,,,,,,,,,,,,,,,,1,2023-12-19_12h31.38.139,watkins1,2023.2.3,99.72108012789805,70,2023-12-19 12h31.48.696444 +0000,
,,,,,,,1,0,1,0,,,,,,,,,,,,,,,,,54.136282599996775,,,,,,,,,,54.12747349997517,54.61835790000623,,,2,2.0530644999817014,,,,,,,,,,,,,,,,,,,,,54.61836939997738,60.619318999990355,Buch,lang,"['Buch', 'lang']",control,1,"['Telefon', 'Buch', 'Schlüssel', 'Kamera', 'Geige', 'Uhr', 'Schere', 'Ring', 'Jacke', 'Hammer', 'Blume', 'Tasse', 'Tasche', 'Kerze', 'Vase', 'Eimer', 'Stift', 'Fahrrad', 'Flasche', 'Rucksack', 'Brille', 'Hut']","['flauschig', 'lang']",2,2.0530644999817014,None,,,,,,,,,,,,,,,,,,,,,,,,,,,,,,,,,,,,,,,,,,,,,,,,,,,,,,,,,,,,,,,,,,,,,1,2023-12-19_12h31.38.139,watkins1,2023.2.3,99.72108012789805,70,2023-12-19 12h31.48.696444 +0000,
,,,,,,,2,0,2,0,,,,,,,,,,,,,,,,,60.6287611000007,,,,,,,,,,60.61979530000826,61.11082579998765,,,1,1.7589834000100382,,,,,,,,,,,,,,,,,,,,,61.1108368000132,67.1180342999869,Schlüssel,durchsichtig,"['Schlüssel', 'durchsichtig']",restudy_diff,1,"['Telefon', 'Buch', 'Schlüssel', 'Kamera', 'Geige', 'Uhr', 'Schere', 'Ring', 'Jacke', 'Hammer', 'Blume', 'Tasse', 'Tasche', 'Kerze', 'Vase', 'Eimer', 'Stift', 'Fahrrad', 'Flasche', 'Rucksack', 'Brille', 'Hut']","['flauschig', 'lang', 'durchsichtig']",1,1.7589834000100382,None,,,,,,,,,,,,,,,,,,,,,,,,,,,,,,,,,,,,,,,,,,,,,,,,,,,,,,,,,,,,,,,,,,,,,1,2023-12-19_12h31.38.139,watkins1,2023.2.3,99.72108012789805,70,2023-12-19 12h31.48.696444 +0000,
,,,,,,,3,0,3,0,,,,,,,,,,,,,,,,,67.12743419996696,,,,,,,,,,67.1185232999851,67.6095723999897,,,2,1.6459011999540962,,,,,,,,,,,,,,,,,,,,,67.60958360001678,73.61296639998909,Kamera,nass,"['Kamera', 'nass']",control,1,"['Telefon', 'Buch', 'Schlüssel', 'Kamera', 'Geige', 'Uhr', 'Schere', 'Ring', 'Jacke', 'Hammer', 'Blume', 'Tasse', 'Tasche', 'Kerze', 'Vase', 'Eimer', 'Stift', 'Fahrrad', 'Flasche', 'Rucksack', 'Brille', 'Hut']","['flauschig', 'lang', 'durchsichtig', 'nass']",2,1.6459011999540962,None,,,,,,,,,,,,,,,,,,,,,,,,,,,,,,,,,,,,,,,,,,,,,,,,,,,,,,,,,,,,,,,,,,,,,1,2023-12-19_12h31.38.139,watkins1,2023.2.3,99.72108012789805,70,2023-12-19 12h31.48.696444 +0000,
,,,,,,,4,0,4,0,,,,,,,,,,,,,,,,,73.62259599997196,,,,,,,,,,73.613448899996,74.10460989997955,,,1,1.6059639999875799,,,,,,,,,,,,,,,,,,,,,74.10462080000434,80.11095060000662,Geige,blass,"['Geige', 'blass']",restudy_diff,1,"['Telefon', 'Buch', 'Schlüssel', 'Kamera', 'Geige', 'Uhr', 'Schere', 'Ring', 'Jacke', 'Hammer', 'Blume', 'Tasse', 'Tasche', 'Kerze', 'Vase', 'Eimer', 'Stift', 'Fahrrad', 'Flasche', 'Rucksack', 'Brille', 'Hut']","['flauschig', 'lang', 'durchsichtig', 'nass', 'blass']",1,1.6059639999875799,None,,,,,,,,,,,,,,,,,,,,,,,,,,,,,,,,,,,,,,,,,,,,,,,,,,,,,,,,,,,,,,,,,,,,,1,2023-12-19_12h31.38.139,watkins1,2023.2.3,99.72108012789805,70,2023-12-19 12h31.48.696444 +0000,
,,,,,,,5,0,5,0,,,,,,,,,,,,,,,,,80.12034709996078,,,,,,,,,,80.11142749997089,80.60232750000432,,,2,1.9887310999911278,,,,,,,,,,,,,,,,,,,,,80.60233809996862,86.60402199998498,Uhr,hohl,"['Uhr', 'hohl']",restudy_diff,1,"['Telefon', 'Buch', 'Schlüssel', 'Kamera', 'Geige', 'Uhr', 'Schere', 'Ring', 'Jacke', 'Hammer', 'Blume', 'Tasse', 'Tasche', 'Kerze', 'Vase', 'Eimer', 'Stift', 'Fahrrad', 'Flasche', 'Rucksack', 'Brille', 'Hut']","['flauschig', 'lang', 'durchsichtig', 'nass', 'blass', 'hohl']",2,1.9887310999911278,None,,,,,,,,,,,,,,,,,,,,,,,,,,,,,,,,,,,,,,,,,,,,,,,,,,,,,,,,,,,,,,,,,,,,,1,2023-12-19_12h31.38.139,watkins1,2023.2.3,99.72108012789805,70,2023-12-19 12h31.48.696444 +0000,
,,,,,,,6,0,6,0,,,,,,,,,,,,,,,,,86.61347849998856,,,,,,,,,,86.60450560000027,87.09553270001197,,,1,2.543664099997841,,,,,,,,,,,,,,,,,,,,,87.09554339997703,93.09649540000828,Schere,schwer,"['Schere', 'schwer']",restudy_diff,1,"['Telefon', 'Buch', 'Schlüssel', 'Kamera', 'Geige', 'Uhr', 'Schere', 'Ring', 'Jacke', 'Hammer', 'Blume', 'Tasse', 'Tasche', 'Kerze', 'Vase', 'Eimer', 'Stift', 'Fahrrad', 'Flasche', 'Rucksack', 'Brille', 'Hut']","['flauschig', 'lang', 'durchsichtig', 'nass', 'blass', 'hohl', 'schwer']",1,2.543664099997841,None,,,,,,,,,,,,,,,,,,,,,,,,,,,,,,,,,,,,,,,,,,,,,,,,,,,,,,,,,,,,,,,,,,,,,1,2023-12-19_12h31.38.139,watkins1,2023.2.3,99.72108012789805,70,2023-12-19 12h31.48.696444 +0000,
,,,,,,,7,0,7,0,,,,,,,,,,,,,,,,,93.10601509996923,,,,,,,,,,93.09696369996527,93.58807329996489,,,2,3.2588451000046916,,,,,,,,,,,,,,,,,,,,,93.58808479999425,99.59767789999023,Ring,sportlich,"['Ring', 'sportlich']",restudy_diff,1,"['Telefon', 'Buch', 'Schlüssel', 'Kamera', 'Geige', 'Uhr', 'Schere', 'Ring', 'Jacke', 'Hammer', 'Blume', 'Tasse', 'Tasche', 'Kerze', 'Vase', 'Eimer', 'Stift', 'Fahrrad', 'Flasche', 'Rucksack', 'Brille', 'Hut']","['flauschig', 'lang', 'durchsichtig', 'nass', 'blass', 'hohl', 'schwer', 'sportlich']",2,3.2588451000046916,None,,,,,,,,,,,,,,,,,,,,,,,,,,,,,,,,,,,,,,,,,,,,,,,,,,,,,,,,,,,,,,,,,,,,,1,2023-12-19_12h31.38.139,watkins1,2023.2.3,99.72108012789805,70,2023-12-19 12h31.48.696444 +0000,
,,,,,,,8,0,8,0,,,,,,,,,,,,,,,,,99.60703780001495,,,,,,,,,,99.59816870000213,100.08931050001411,,,3,1.8775842000031844,,,,,,,,,,,,,,,,,,,,,100.08932179998374,106.09879700001329,Jacke,robust,"['Jacke', 'robust']",control,1,"['Telefon', 'Buch', 'Schlüssel', 'Kamera', 'Geige', 'Uhr', 'Schere', 'Ring', 'Jacke', 'Hammer', 'Blume', 'Tasse', 'Tasche', 'Kerze', 'Vase', 'Eimer', 'Stift', 'Fahrrad', 'Flasche', 'Rucksack', 'Brille', 'Hut']","['flauschig', 'lang', 'durchsichtig', 'nass', 'blass', 'hohl', 'schwer', 'sportlich', 'robust']",3,1.8775842000031844,None,,,,,,,,,,,,,,,,,,,,,,,,,,,,,,,,,,,,,,,,,,,,,,,,,,,,,,,,,,,,,,,,,,,,,1,2023-12-19_12h31.38.139,watkins1,2023.2.3,99.72108012789805,70,2023-12-19 12h31.48.696444 +0000,
,,,,,,,9,0,9,0,,,,,,,,,,,,,,,,,106.10826289997203,,,,,,,,,,106.09928480000235,106.59030119999079,,,1,2.6327903000055812,,,,,,,,,,,,,,,,,,,,,106.59031249996042,112.59495870000683,Hammer,elegant,"['Hammer', 'elegant']",restudy_diff,1,"['Telefon', 'Buch', 'Schlüssel', 'Kamera', 'Geige', 'Uhr', 'Schere', 'Ring', 'Jacke', 'Hammer', 'Blume', 'Tasse', 'Tasche', 'Kerze', 'Vase', 'Eimer', 'Stift', 'Fahrrad', 'Flasche', 'Rucksack', 'Brille', 'Hut']","['flauschig', 'lang', 'durchsichtig', 'nass', 'blass', 'hohl', 'schwer', 'sportlich', 'robust', 'elegant']",1,2.6327903000055812,None,,,,,,,,,,,,,,,,,,,,,,,,,,,,,,,,,,,,,,,,,,,,,,,,,,,,,,,,,,,,,,,,,,,,,1,2023-12-19_12h31.38.139,watkins1,2023.2.3,99.72108012789805,70,2023-12-19 12h31.48.696444 +0000,
,,,,,,,10,0,10,0,,,,,,,,,,,,,,,,,112.60428679996403,,,,,,,,,,112.59541999996873,113.08620720001636,,,1,2.1377412999863736,,,,,,,,,,,,,,,,,,,,,113.08623869996518,119.08925929997349,Blume,flach,"['Blume', 'flach']",control,1,"['Telefon', 'Buch', 'Schlüssel', 'Kamera', 'Geige', 'Uhr', 'Schere', 'Ring', 'Jacke', 'Hammer', 'Blume', 'Tasse', 'Tasche', 'Kerze', 'Vase', 'Eimer', 'Stift', 'Fahrrad', 'Flasche', 'Rucksack', 'Brille', 'Hut']","['flauschig', 'lang', 'durchsichtig', 'nass', 'blass', 'hohl', 'schwer', 'sportlich', 'robust', 'elegant', 'flach']",1,2.1377412999863736,None,,,,,,,,,,,,,,,,,,,,,,,,,,,,,,,,,,,,,,,,,,,,,,,,,,,,,,,,,,,,,,,,,,,,,1,2023-12-19_12h31.38.139,watkins1,2023.2.3,99.72108012789805,70,2023-12-19 12h31.48.696444 +0000,
,,,,,,,11,0,11,0,,,,,,,,,,,,,,,,,119.09867209999356,,,,,,,,,,119.08971679996466,119.58065779996105,,,1,2.106427100021392,,,,,,,,,,,,,,,,,,,,,119.58067019999726,125.58459230000153,Tasse,kurz,"['Tasse', 'kurz']",restudy_diff,1,"['Telefon', 'Buch', 'Schlüssel', 'Kamera', 'Geige', 'Uhr', 'Schere', 'Ring', 'Jacke', 'Hammer', 'Blume', 'Tasse', 'Tasche', 'Kerze', 'Vase', 'Eimer', 'Stift', 'Fahrrad', 'Flasche', 'Rucksack', 'Brille', 'Hut']","['flauschig', 'lang', 'durchsichtig', 'nass', 'blass', 'hohl', 'schwer', 'sportlich', 'robust', 'elegant', 'flach', 'kurz']",1,2.106427100021392,None,,,,,,,,,,,,,,,,,,,,,,,,,,,,,,,,,,,,,,,,,,,,,,,,,,,,,,,,,,,,,,,,,,,,,1,2023-12-19_12h31.38.139,watkins1,2023.2.3,99.72108012789805,70,2023-12-19 12h31.48.696444 +0000,
,,,,,,,12,0,12,0,,,,,,,,,,,,,,,,,125.5939473999897,,,,,,,,,,125.58506849996047,126.0761548000155,,,2,1.6200531999929808,,,,,,,,,,,,,,,,,,,,,126.07616549998056,132.07926929998212,Tasche,gut,"['Tasche', 'gut']",restudy_diff,1,"['Telefon', 'Buch', 'Schlüssel', 'Kamera', 'Geige', 'Uhr', 'Schere', 'Ring', 'Jacke', 'Hammer', 'Blume', 'Tasse', 'Tasche', 'Kerze', 'Vase', 'Eimer', 'Stift', 'Fahrrad', 'Flasche', 'Rucksack', 'Brille', 'Hut']","['flauschig', 'lang', 'durchsichtig', 'nass', 'blass', 'hohl', 'schwer', 'sportlich', 'robust', 'elegant', 'flach', 'kurz', 'gut']",2,1.6200531999929808,None,,,,,,,,,,,,,,,,,,,,,,,,,,,,,,,,,,,,,,,,,,,,,,,,,,,,,,,,,,,,,,,,,,,,,1,2023-12-19_12h31.38.139,watkins1,2023.2.3,99.72108012789805,70,2023-12-19 12h31.48.696444 +0000,
,,,,,,,13,0,13,0,,,,,,,,,,,,,,,,,132.08873089996632,,,,,,,,,,132.07973489997676,132.57076560001587,,,2,2.053203299990855,,,,,,,,,,,,,,,,,,,,,132.57077629998093,138.5760592999868,Kerze,gepunktet,"['Kerze', 'gepunktet']",restudy_diff,1,"['Telefon', 'Buch', 'Schlüssel', 'Kamera', 'Geige', 'Uhr', 'Schere', 'Ring', 'Jacke', 'Hammer', 'Blume', 'Tasse', 'Tasche', 'Kerze', 'Vase', 'Eimer', 'Stift', 'Fahrrad', 'Flasche', 'Rucksack', 'Brille', 'Hut']","['flauschig', 'lang', 'durchsichtig', 'nass', 'blass', 'hohl', 'schwer', 'sportlich', 'robust', 'elegant', 'flach', 'kurz', 'gut', 'gepunktet']",2,2.053203299990855,None,,,,,,,,,,,,,,,,,,,,,,,,,,,,,,,,,,,,,,,,,,,,,,,,,,,,,,,,,,,,,,,,,,,,,1,2023-12-19_12h31.38.139,watkins1,2023.2.3,99.72108012789805,70,2023-12-19 12h31.48.696444 +0000,
,,,,,,,14,0,14,0,,,,,,,,,,,,,,,,,138.58549319999292,,,,,,,,,,138.57653209997807,139.06732069997815,,,3,3.275855000014417,,,,,,,,,,,,,,,,,,,,,139.06733230000827,145.07200599997304,Vase,sauber,"['Vase', 'sauber']",restudy_diff,1,"['Telefon', 'Buch', 'Schlüssel', 'Kamera', 'Geige', 'Uhr', 'Schere', 'Ring', 'Jacke', 'Hammer', 'Blume', 'Tasse', 'Tasche', 'Kerze', 'Vase', 'Eimer', 'Stift', 'Fahrrad', 'Flasche', 'Rucksack', 'Brille', 'Hut']","['flauschig', 'lang', 'durchsichtig', 'nass', 'blass', 'hohl', 'schwer', 'sportlich', 'robust', 'elegant', 'flach', 'kurz', 'gut', 'gepunktet', 'sauber']",3,3.275855000014417,None,,,,,,,,,,,,,,,,,,,,,,,,,,,,,,,,,,,,,,,,,,,,,,,,,,,,,,,,,,,,,,,,,,,,,1,2023-12-19_12h31.38.139,watkins1,2023.2.3,99.72108012789805,70,2023-12-19 12h31.48.696444 +0000,
,,,,,,,15,0,15,0,,,,,,,,,,,,,,,,,145.08148270001402,,,,,,,,,,145.07248360000085,145.563420499966,,,1,3.3636763999820687,,,,,,,,,,,,,,,,,,,,,145.56343109998852,151.56557490001433,Eimer,biegsam,"['Eimer', 'biegsam']",restudy_diff,1,"['Telefon', 'Buch', 'Schlüssel', 'Kamera', 'Geige', 'Uhr', 'Schere', 'Ring', 'Jacke', 'Hammer', 'Blume', 'Tasse', 'Tasche', 'Kerze', 'Vase', 'Eimer', 'Stift', 'Fahrrad', 'Flasche', 'Rucksack', 'Brille', 'Hut']","['flauschig', 'lang', 'durchsichtig', 'nass', 'blass', 'hohl', 'schwer', 'sportlich', 'robust', 'elegant', 'flach', 'kurz', 'gut', 'gepunktet', 'sauber', 'biegsam']",1,3.3636763999820687,None,,,,,,,,,,,,,,,,,,,,,,,,,,,,,,,,,,,,,,,,,,,,,,,,,,,,,,,,,,,,,,,,,,,,,1,2023-12-19_12h31.38.139,watkins1,2023.2.3,99.72108012789805,70,2023-12-19 12h31.48.696444 +0000,
,,,,,,,16,0,16,0,,,,,,,,,,,,,,,,,151.57500050001545,,,,,,,,,,151.56604860001244,152.05702489998657,,,2,2.191136399982497,,,,,,,,,,,,,,,,,,,,,152.05703590001212,158.06639429996721,Stift,schlicht,"['Stift', 'schlicht']",control,1,"['Telefon', 'Buch', 'Schlüssel', 'Kamera', 'Geige', 'Uhr', 'Schere', 'Ring', 'Jacke', 'Hammer', 'Blume', 'Tasse', 'Tasche', 'Kerze', 'Vase', 'Eimer', 'Stift', 'Fahrrad', 'Flasche', 'Rucksack', 'Brille', 'Hut']","['flauschig', 'lang', 'durchsichtig', 'nass', 'blass', 'hohl', 'schwer', 'sportlich', 'robust', 'elegant', 'flach', 'kurz', 'gut', 'gepunktet', 'sauber', 'biegsam', 'schlicht']",2,2.191136399982497,None,,,,,,,,,,,,,,,,,,,,,,,,,,,,,,,,,,,,,,,,,,,,,,,,,,,,,,,,,,,,,,,,,,,,,1,2023-12-19_12h31.38.139,watkins1,2023.2.3,99.72108012789805,70,2023-12-19 12h31.48.696444 +0000,
,,,,,,,17,0,17,0,,,,,,,,,,,,,,,,,158.07582630001707,,,,,,,,,,158.06686610000907,158.55776160000823,,,2,2.7695534999947995,,,,,,,,,,,,,,,,,,,,,158.55777269997634,164.56341010000324,Fahrrad,glatt,"['Fahrrad', 'glatt']",restudy_diff,1,"['Telefon', 'Buch', 'Schlüssel', 'Kamera', 'Geige', 'Uhr', 'Schere', 'Ring', 'Jacke', 'Hammer', 'Blume', 'Tasse', 'Tasche', 'Kerze', 'Vase', 'Eimer', 'Stift', 'Fahrrad', 'Flasche', 'Rucksack', 'Brille', 'Hut']","['flauschig', 'lang', 'durchsichtig', 'nass', 'blass', 'hohl', 'schwer', 'sportlich', 'robust', 'elegant', 'flach', 'kurz', 'gut', 'gepunktet', 'sauber', 'biegsam', 'schlicht', 'glatt']",2,2.7695534999947995,None,,,,,,,,,,,,,,,,,,,,,,,,,,,,,,,,,,,,,,,,,,,,,,,,,,,,,,,,,,,,,,,,,,,,,1,2023-12-19_12h31.38.139,watkins1,2023.2.3,99.72108012789805,70,2023-12-19 12h31.48.696444 +0000,
,,,,,,,18,0,18,0,,,,,,,,,,,,,,,,,164.5728937999811,,,,,,,,,,164.56389559997479,165.05480280000484,,,3,2.569260799966287,,,,,,,,,,,,,,,,,,,,,165.05481359997066,171.05949909996707,Flasche,winzig,"['Flasche', 'winzig']",restudy_diff,1,"['Telefon', 'Buch', 'Schlüssel', 'Kamera', 'Geige', 'Uhr', 'Schere', 'Ring', 'Jacke', 'Hammer', 'Blume', 'Tasse', 'Tasche', 'Kerze', 'Vase', 'Eimer', 'Stift', 'Fahrrad', 'Flasche', 'Rucksack', 'Brille', 'Hut']","['flauschig', 'lang', 'durchsichtig', 'nass', 'blass', 'hohl', 'schwer', 'sportlich', 'robust', 'elegant', 'flach', 'kurz', 'gut', 'gepunktet', 'sauber', 'biegsam', 'schlicht', 'glatt', 'winzig']",3,2.569260799966287,None,,,,,,,,,,,,,,,,,,,,,,,,,,,,,,,,,,,,,,,,,,,,,,,,,,,,,,,,,,,,,,,,,,,,,1,2023-12-19_12h31.38.139,watkins1,2023.2.3,99.72108012789805,70,2023-12-19 12h31.48.696444 +0000,
,,,,,,,19,0,19,0,,,,,,,,,,,,,,,,,171.0688806999824,,,,,,,,,,171.05997880001087,171.5508712999872,,,1,1.0491895000450313,,,,,,,,,,,,,,,,,,,,,171.55088170000818,177.55613849998917,Rucksack,zart,"['Rucksack', 'zart']",control,1,"['Telefon', 'Buch', 'Schlüssel', 'Kamera', 'Geige', 'Uhr', 'Schere', 'Ring', 'Jacke', 'Hammer', 'Blume', 'Tasse', 'Tasche', 'Kerze', 'Vase', 'Eimer', 'Stift', 'Fahrrad', 'Flasche', 'Rucksack', 'Brille', 'Hut']","['flauschig', 'lang', 'durchsichtig', 'nass', 'blass', 'hohl', 'schwer', 'sportlich', 'robust', 'elegant', 'flach', 'kurz', 'gut', 'gepunktet', 'sauber', 'biegsam', 'schlicht', 'glatt', 'winzig', 'zart']",1,1.0491895000450313,None,,,,,,,,,,,,,,,,,,,,,,,,,,,,,,,,,,,,,,,,,,,,,,,,,,,,,,,,,,,,,,,,,,,,,1,2023-12-19_12h31.38.139,watkins1,2023.2.3,99.72108012789805,70,2023-12-19 12h31.48.696444 +0000,
,,,,,,,20,0,20,0,,,,,,,,,,,,,,,,,177.56562110001687,,,,,,,,,,177.5566268999828,178.0475357999676,,,1,1.4408108000061475,,,,,,,,,,,,,,,,,,,,,178.04754659999162,184.05292629997712,Brille,kratzig,"['Brille', 'kratzig']",restudy_diff,1,"['Telefon', 'Buch', 'Schlüssel', 'Kamera', 'Geige', 'Uhr', 'Schere', 'Ring', 'Jacke', 'Hammer', 'Blume', 'Tasse', 'Tasche', 'Kerze', 'Vase', 'Eimer', 'Stift', 'Fahrrad', 'Flasche', 'Rucksack', 'Brille', 'Hut']","['flauschig', 'lang', 'durchsichtig', 'nass', 'blass', 'hohl', 'schwer', 'sportlich', 'robust', 'elegant', 'flach', 'kurz', 'gut', 'gepunktet', 'sauber', 'biegsam', 'schlicht', 'glatt', 'winzig', 'zart', 'kratzig']",1,1.4408108000061475,None,,,,,,,,,,,,,,,,,,,,,,,,,,,,,,,,,,,,,,,,,,,,,,,,,,,,,,,,,,,,,,,,,,,,,1,2023-12-19_12h31.38.139,watkins1,2023.2.3,99.72108012789805,70,2023-12-19 12h31.48.696444 +0000,
,,,,,,,21,0,21,0,,,,,,,,,,,,,,,,,184.06235189997824,,,,,,,,,,184.05340979999164,184.54434839996975,,,2,1.1839252999634482,,,,,,,,,,,,,,,,,,,,,184.54435909999302,190.55455900001107,Hut,dunkel,"['Hut', 'dunkel']",restudy_diff,1,"['Telefon', 'Buch', 'Schlüssel', 'Kamera', 'Geige', 'Uhr', 'Schere', 'Ring', 'Jacke', 'Hammer', 'Blume', 'Tasse', 'Tasche', 'Kerze', 'Vase', 'Eimer', 'Stift', 'Fahrrad', 'Flasche', 'Rucksack', 'Brille', 'Hut']","['flauschig', 'lang', 'durchsichtig', 'nass', 'blass', 'hohl', 'schwer', 'sportlich', 'robust', 'elegant', 'flach', 'kurz', 'gut', 'gepunktet', 'sauber', 'biegsam', 'schlicht', 'glatt', 'winzig', 'zart', 'kratzig', 'dunkel']",2,1.1839252999634482,None,,,,,,,,,,,,,,,,,,,,,,,,,,,,,,,,,,,,,,,,,,,,,,,,,,,,,,,,,,,,,,,,,,,,,1,2023-12-19_12h31.38.139,watkins1,2023.2.3,99.72108012789805,70,2023-12-19 12h31.48.696444 +0000,
,,,,,,,,,,,0,0,0,0,,,,,,,,,,,,,190.56401009997353,,,,,,,,,,190.55536810000194,191.04607469995972,,,[],[],,,,,,,,,,,,None,None,,,,,,,,,,Kette,strahlend,"['Kette', 'strahlend']",control,1,,,,,,190.55529399996158,190.55534249998163,"['Kette', 'Ring', 'Kerze', 'Eimer', 'Hammer', 'Löffel', 'Schlüssel', 'Trommel', 'Lampe', 'Tasse', 'Schere', 'Bürste', 'Geige', 'Vase', 'Würfel', 'Kiste', 'Tasche', 'Hut', 'Flasche', 'Brille', 'Fahrrad', 'Socke', 'Uhr']",191.04608599998755,197.04709659999935,3,1.2810839000158012,None,197.04749659996014,197.05030219996115,None,197.05045229999814,197.0530331999762,None,197.0531808999949,197.0543407999794,197.05435240000952,197.05558200000087,,,,,,,,,,,,,,,,,,,,,,,,,,,,,,,,,,,,,,,,,,,,,,,,,,,1,2023-12-19_12h31.38.139,watkins1,2023.2.3,99.72108012789805,70,2023-12-19 12h31.48.696444 +0000,
,,,,,,,,,,,1,0,1,0,,,,,,,,,,,,,197.05927889997838,,,,,,,,,,197.05584939999972,197.55295179999666,,,1,1.4107473999611102,,,,,,,,,,,,None,None,,,,,,,,,,Ring,verspielt,"['Ring', 'verspielt']",restudy_diff,1,,,,,,197.05578509997576,197.05582439998398,"['Kette', 'Ring', 'Kerze', 'Eimer', 'Hammer', 'Löffel', 'Schlüssel', 'Trommel', 'Lampe', 'Tasse', 'Schere', 'Bürste', 'Geige', 'Vase', 'Würfel', 'Kiste', 'Tasche', 'Hut', 'Flasche', 'Brille', 'Fahrrad', 'Socke', 'Uhr']",197.55296329996781,197.55442609998863,None,,,197.5545459999703,197.5561588999699,None,197.55626330000814,203.5641032999847,1,203.5650450999965,203.56640309997601,203.56641649996163,203.56781509995926,1.4107473999611102,None,,,,,,,,,,,,,,,,,,,,,,,,,,,,,,,,,,,,,,,,,,,,,,,,,1,2023-12-19_12h31.38.139,watkins1,2023.2.3,99.72108012789805,70,2023-12-19 12h31.48.696444 +0000,
,,,,,,,,,,,2,0,2,0,,,,,,,,,,,,,203.57328020001296,,,,,,,,,,203.56814569997368,204.06539940001676,,,1,1.3693675000104122,,,,,,,,,,,,None,None,,,,,,,,,,Kerze,rustikal,"['Kerze', 'rustikal']",restudy_diff,1,,,,,,203.56806219997816,203.5681110000005,"['Kette', 'Ring', 'Kerze', 'Eimer', 'Hammer', 'Löffel', 'Schlüssel', 'Trommel', 'Lampe', 'Tasse', 'Schere', 'Bürste', 'Geige', 'Vase', 'Würfel', 'Kiste', 'Tasche', 'Hut', 'Flasche', 'Brille', 'Fahrrad', 'Socke', 'Uhr']",204.06541059998563,204.06816929997876,None,,,204.0682866999996,204.0708796000108,None,204.07098089996725,210.0780545999878,1,210.07833489996847,210.07963399996515,210.0796457999968,210.0809067999944,1.3693675000104122,None,,,,,,,,,,,,,,,,,,,,,,,,,,,,,,,,,,,,,,,,,,,,,,,,,1,2023-12-19_12h31.38.139,watkins1,2023.2.3,99.72108012789805,70,2023-12-19 12h31.48.696444 +0000,
,,,,,,,,,,,3,0,3,0,,,,,,,,,,,,,210.08752499998081,,,,,,,,,,210.08117499999935,210.57955899997614,,,2,2.038060500053689,,,,,,,,,,,,None,None,,,,,,,,,,Eimer,glänzend,"['Eimer', 'glänzend']",restudy_diff,1,,,,,,210.0811106999754,210.08114879997447,"['Kette', 'Ring', 'Kerze', 'Eimer', 'Hammer', 'Löffel', 'Schlüssel', 'Trommel', 'Lampe', 'Tasse', 'Schere', 'Bürste', 'Geige', 'Vase', 'Würfel', 'Kiste', 'Tasche', 'Hut', 'Flasche', 'Brille', 'Fahrrad', 'Socke', 'Uhr']",210.57957090000855,210.5824460000149,None,,,210.58256299997447,210.5851690999698,None,210.58527039998444,216.59027360001346,2,216.5905520999804,216.59186149999732,216.59187379997456,216.5931086000055,2.038060500053689,None,,,,,,,,,,,,,,,,,,,,,,,,,,,,,,,,,,,,,,,,,,,,,,,,,1,2023-12-19_12h31.38.139,watkins1,2023.2.3,99.72108012789805,70,2023-12-19 12h31.48.696444 +0000,
,,,,,,,,,,,4,0,4,0,,,,,,,,,,,,,216.5997814000002,,,,,,,,,,216.59337660000892,217.0918869000161,,,1,1.8144636999932118,,,,,,,,,,,,None,None,,,,,,,,,,Hammer,niedlich,"['Hammer', 'niedlich']",restudy_diff,1,,,,,,216.59331189998193,216.59335009998176,"['Kette', 'Ring', 'Kerze', 'Eimer', 'Hammer', 'Löffel', 'Schlüssel', 'Trommel', 'Lampe', 'Tasse', 'Schere', 'Bürste', 'Geige', 'Vase', 'Würfel', 'Kiste', 'Tasche', 'Hut', 'Flasche', 'Brille', 'Fahrrad', 'Socke', 'Uhr']",217.0918979999842,217.09481649997178,None,,,217.09493479999946,217.09756889997516,None,217.09767170000123,223.09994119999465,1,223.10021760000382,223.10157060000347,223.1015828999807,223.10282079997705,1.8144636999932118,None,,,,,,,,,,,,,,,,,,,,,,,,,,,,,,,,,,,,,,,,,,,,,,,,,1,2023-12-19_12h31.38.139,watkins1,2023.2.3,99.72108012789805,70,2023-12-19 12h31.48.696444 +0000,
,,,,,,,,,,,5,0,5,0,,,,,,,,,,,,,223.10933389997808,,,,,,,,,,223.10309350001626,223.6012773999828,,,[],[],,,,,,,,,,,,None,None,,,,,,,,,,Löffel,hässlich,"['Löffel', 'hässlich']",control,1,,,,,,223.10302699997555,223.10306529997615,"['Kette', 'Ring', 'Kerze', 'Eimer', 'Hammer', 'Löffel', 'Schlüssel', 'Trommel', 'Lampe', 'Tasse', 'Schere', 'Bürste', 'Geige', 'Vase', 'Würfel', 'Kiste', 'Tasche', 'Hut', 'Flasche', 'Brille', 'Fahrrad', 'Socke', 'Uhr']",223.60128820000682,229.60514210001566,2,2.245244099991396,None,229.60542470001383,229.60827919997973,None,229.60838449996663,229.61099610000383,None,229.61110039998312,229.61229590000585,229.61230749997776,229.61352800001623,,,,,,,,,,,,,,,,,,,,,,,,,,,,,,,,,,,,,,,,,,,,,,,,,,,1,2023-12-19_12h31.38.139,watkins1,2023.2.3,99.72108012789805,70,2023-12-19 12h31.48.696444 +0000,
,,,,,,,,,,,6,0,6,0,,,,,,,,,,,,,229.61715649999678,,,,,,,,,,229.61379709996982,230.11049200000707,,,3,1.4860297000268474,,,,,,,,,,,,None,None,,,,,,,,,,Schlüssel,praktisch,"['Schlüssel', 'praktisch']",restudy_diff,1,,,,,,229.61373280000407,229.61377299996093,"['Kette', 'Ring', 'Kerze', 'Eimer', 'Hammer', 'Löffel', 'Schlüssel', 'Trommel', 'Lampe', 'Tasse', 'Schere', 'Bürste', 'Geige', 'Vase', 'Würfel', 'Kiste', 'Tasche', 'Hut', 'Flasche', 'Brille', 'Fahrrad', 'Socke', 'Uhr']",230.1105032999767,230.1123440999654,None,,,230.11245909996796,230.1140005000052,None,230.1141052999883,236.12078840000322,3,236.12106430000858,236.12243479996687,236.12244669999927,236.12370449997252,1.4860297000268474,None,,,,,,,,,,,,,,,,,,,,,,,,,,,,,,,,,,,,,,,,,,,,,,,,,1,2023-12-19_12h31.38.139,watkins1,2023.2.3,99.72108012789805,70,2023-12-19 12h31.48.696444 +0000,
,,,,,,,,,,,7,0,7,0,,,,,,,,,,,,,236.13017869996838,,,,,,,,,,236.12397449999116,236.6222657999606,,,[],[],,,,,,,,,,,,None,None,,,,,,,,,,Trommel,teuer,"['Trommel', 'teuer']",control,1,,,,,,236.1239099999657,236.12394899997162,"['Kette', 'Ring', 'Kerze', 'Eimer', 'Hammer', 'Löffel', 'Schlüssel', 'Trommel', 'Lampe', 'Tasse', 'Schere', 'Bürste', 'Geige', 'Vase', 'Würfel', 'Kiste', 'Tasche', 'Hut', 'Flasche', 'Brille', 'Fahrrad', 'Socke', 'Uhr']",236.62227799999528,242.62328890000936,2,3.161873699980788,None,242.6235673999763,242.62628450000193,None,242.6263887999812,242.62893070001155,None,242.62903359998018,242.6302519000019,242.63026389997685,242.63142310001422,,,,,,,,,,,,,,,,,,,,,,,,,,,,,,,,,,,,,,,,,,,,,,,,,,,1,2023-12-19_12h31.38.139,watkins1,2023.2.3,99.72108012789805,70,2023-12-19 12h31.48.696444 +0000,
,,,,,,,,,,,8,0,8,0,,,,,,,,,,,,,242.63504109997302,,,,,,,,,,242.631691699964,243.1282726000063,,,[],[],,,,,,,,,,,,None,None,,,,,,,,,,Lampe,neu,"['Lampe', 'neu']",control,1,,,,,,242.63162820000434,242.6316679000156,"['Kette', 'Ring', 'Kerze', 'Eimer', 'Hammer', 'Löffel', 'Schlüssel', 'Trommel', 'Lampe', 'Tasse', 'Schere', 'Bürste', 'Geige', 'Vase', 'Würfel', 'Kiste', 'Tasche', 'Hut', 'Flasche', 'Brille', 'Fahrrad', 'Socke', 'Uhr']",243.1282839999767,249.13020539999707,3,1.1518905000411905,None,249.13048079999862,249.13310659996932,None,249.13321239996003,249.13558299996657,None,249.13568519998807,249.13687719998416,249.13688880001428,249.13790949998656,,,,,,,,,,,,,,,,,,,,,,,,,,,,,,,,,,,,,,,,,,,,,,,,,,,1,2023-12-19_12h31.38.139,watkins1,2023.2.3,99.72108012789805,70,2023-12-19 12h31.48.696444 +0000,
,,,,,,,,,,,9,0,9,0,,,,,,,,,,,,,249.14163420000114,,,,,,,,,,249.13817779999226,249.63443559996085,,,2,3.1067925000097603,,,,,,,,,,,,None,None,,,,,,,,,,Tasse,kalt,"['Tasse', 'kalt']",restudy_diff,1,,,,,,249.13811439997517,249.13815359998262,"['Kette', 'Ring', 'Kerze', 'Eimer', 'Hammer', 'Löffel', 'Schlüssel', 'Trommel', 'Lampe', 'Tasse', 'Schere', 'Bürste', 'Geige', 'Vase', 'Würfel', 'Kiste', 'Tasche', 'Hut', 'Flasche', 'Brille', 'Fahrrad', 'Socke', 'Uhr']",249.6344465999864,249.63601019995986,None,,,249.63612569996621,249.63755639997544,None,249.63765759998932,255.6397483999608,2,255.6400267999852,255.64141569996718,255.64142960001482,255.64250059996266,3.1067925000097603,None,,,,,,,,,,,,,,,,,,,,,,,,,,,,,,,,,,,,,,,,,,,,,,,,,1,2023-12-19_12h31.38.139,watkins1,2023.2.3,99.72108012789805,70,2023-12-19 12h31.48.696444 +0000,
,,,,,,,,,,,10,0,10,0,,,,,,,,,,,,,255.64917789999163,,,,,,,,,,255.64277199999196,256.14131279999856,,,1,2.573558099975344,,,,,,,,,,,,None,None,,,,,,,,,,Schere,lustig,"['Schere', 'lustig']",restudy_diff,1,,,,,,255.6427071999642,255.6427459999686,"['Kette', 'Ring', 'Kerze', 'Eimer', 'Hammer', 'Löffel', 'Schlüssel', 'Trommel', 'Lampe', 'Tasse', 'Schere', 'Bürste', 'Geige', 'Vase', 'Würfel', 'Kiste', 'Tasche', 'Hut', 'Flasche', 'Brille', 'Fahrrad', 'Socke', 'Uhr']",256.14132419996895,256.14390530000674,None,,,256.1440238999785,256.14646869996795,None,256.1465712999925,262.1529232999892,1,262.15320279996376,262.15463259996613,262.15464500000235,262.1558296000003,2.573558099975344,None,,,,,,,,,,,,,,,,,,,,,,,,,,,,,,,,,,,,,,,,,,,,,,,,,1,2023-12-19_12h31.38.139,watkins1,2023.2.3,99.72108012789805,70,2023-12-19 12h31.48.696444 +0000,
,,,,,,,,,,,11,0,11,0,,,,,,,,,,,,,262.1624013999826,,,,,,,,,,262.1561122999992,262.65439509996213,,,[],[],,,,,,,,,,,,None,None,,,,,,,,,,Bürste,schmutzig,"['Bürste', 'schmutzig']",control,1,,,,,,262.1560471999692,262.15608659997815,"['Kette', 'Ring', 'Kerze', 'Eimer', 'Hammer', 'Löffel', 'Schlüssel', 'Trommel', 'Lampe', 'Tasse', 'Schere', 'Bürste', 'Geige', 'Vase', 'Würfel', 'Kiste', 'Tasche', 'Hut', 'Flasche', 'Brille', 'Fahrrad', 'Socke', 'Uhr']",262.654406799993,268.66369959997246,2,2.954214099969249,None,268.6639797000098,268.66677559999516,None,268.66688249999424,268.6695187999867,None,268.6696265999926,268.67083479999565,268.6708465999691,268.67223039997043,,,,,,,,,,,,,,,,,,,,,,,,,,,,,,,,,,,,,,,,,,,,,,,,,,,1,2023-12-19_12h31.38.139,watkins1,2023.2.3,99.72108012789805,70,2023-12-19 12h31.48.696444 +0000,
,,,,,,,,,,,12,0,12,0,,,,,,,,,,,,,268.6759274000069,,,,,,,,,,268.6725037000142,269.1695404999773,,,1,2.747220999968704,,,,,,,,,,,,None,None,,,,,,,,,,Geige,gestreift,"['Geige', 'gestreift']",restudy_diff,1,,,,,,268.6724379999796,268.67247930000303,"['Kette', 'Ring', 'Kerze', 'Eimer', 'Hammer', 'Löffel', 'Schlüssel', 'Trommel', 'Lampe', 'Tasse', 'Schere', 'Bürste', 'Geige', 'Vase', 'Würfel', 'Kiste', 'Tasche', 'Hut', 'Flasche', 'Brille', 'Fahrrad', 'Socke', 'Uhr']",269.16955250001047,269.1711606999743,None,,,269.17128239996964,269.1727314000018,None,269.17283469997346,275.18129689997295,1,275.1815759000019,275.18288470001426,275.18289689999074,275.1841664999956,2.747220999968704,None,,,,,,,,,,,,,,,,,,,,,,,,,,,,,,,,,,,,,,,,,,,,,,,,,1,2023-12-19_12h31.38.139,watkins1,2023.2.3,99.72108012789805,70,2023-12-19 12h31.48.696444 +0000,
,,,,,,,,,,,13,0,13,0,,,,,,,,,,,,,275.190644999966,,,,,,,,,,275.1844399999827,275.68286940001417,,,2,2.8960256000282243,,,,,,,,,,,,None,None,,,,,,,,,,Vase,dick,"['Vase', 'dick']",restudy_diff,1,,,,,,275.1843748000101,275.18441399995936,"['Kette', 'Ring', 'Kerze', 'Eimer', 'Hammer', 'Löffel', 'Schlüssel', 'Trommel', 'Lampe', 'Tasse', 'Schere', 'Bürste', 'Geige', 'Vase', 'Würfel', 'Kiste', 'Tasche', 'Hut', 'Flasche', 'Brille', 'Fahrrad', 'Socke', 'Uhr']",275.6828809999861,275.6857030999963,None,,,275.6858215999673,275.6883542999858,None,275.68845770001644,281.6957939999993,2,281.6960658999742,281.6972177000134,281.6972293999861,281.6982670999714,2.8960256000282243,None,,,,,,,,,,,,,,,,,,,,,,,,,,,,,,,,,,,,,,,,,,,,,,,,,1,2023-12-19_12h31.38.139,watkins1,2023.2.3,99.72108012789805,70,2023-12-19 12h31.48.696444 +0000,
,,,,,,,,,,,14,0,14,0,,,,,,,,,,,,,281.70519469998544,,,,,,,,,,281.69853090000106,282.1972175000119,,,[],[],,,,,,,,,,,,None,None,,,,,,,,,,Würfel,breit,"['Würfel', 'breit']",control,1,,,,,,281.6984689999954,281.6985059999861,"['Kette', 'Ring', 'Kerze', 'Eimer', 'Hammer', 'Löffel', 'Schlüssel', 'Trommel', 'Lampe', 'Tasse', 'Schere', 'Bürste', 'Geige', 'Vase', 'Würfel', 'Kiste', 'Tasche', 'Hut', 'Flasche', 'Brille', 'Fahrrad', 'Socke', 'Uhr']",282.19722819997696,288.19996120000724,1,1.5539013999514282,None,288.2002396999742,288.20293989998754,None,288.20304459996987,288.2055706999963,None,288.2056728999596,288.2068604999804,288.20687230001204,288.20802129997173,,,,,,,,,,,,,,,,,,,,,,,,,,,,,,,,,,,,,,,,,,,,,,,,,,,1,2023-12-19_12h31.38.139,watkins1,2023.2.3,99.72108012789805,70,2023-12-19 12h31.48.696444 +0000,
,,,,,,,,,,,15,0,15,0,,,,,,,,,,,,,288.21160849998705,,,,,,,,,,288.20829079998657,288.7047675999929,,,[],[],,,,,,,,,,,,None,None,,,,,,,,,,Kiste,bunt,"['Kiste', 'bunt']",control,1,,,,,,288.20822769997176,288.2082665999769,"['Kette', 'Ring', 'Kerze', 'Eimer', 'Hammer', 'Löffel', 'Schlüssel', 'Trommel', 'Lampe', 'Tasse', 'Schere', 'Bürste', 'Geige', 'Vase', 'Würfel', 'Kiste', 'Tasche', 'Hut', 'Flasche', 'Brille', 'Fahrrad', 'Socke', 'Uhr']",288.7047789999633,294.7058165000053,3,1.86340079997899,None,294.7060921000084,294.70863159996225,None,294.7087349999929,294.7111201999942,None,294.71122250001645,294.7123843000154,294.7123961999896,294.71343800000614,,,,,,,,,,,,,,,,,,,,,,,,,,,,,,,,,,,,,,,,,,,,,,,,,,,1,2023-12-19_12h31.38.139,watkins1,2023.2.3,99.72108012789805,70,2023-12-19 12h31.48.696444 +0000,
,,,,,,,,,,,16,0,16,0,,,,,,,,,,,,,294.7171797999763,,,,,,,,,,294.71370189997833,295.20973870001035,,,3,1.5709912000456825,,,,,,,,,,,,None,None,,,,,,,,,,Tasche,matt,"['Tasche', 'matt']",restudy_diff,1,,,,,,294.71363849996123,294.7136778999702,"['Kette', 'Ring', 'Kerze', 'Eimer', 'Hammer', 'Löffel', 'Schlüssel', 'Trommel', 'Lampe', 'Tasse', 'Schere', 'Bürste', 'Geige', 'Vase', 'Würfel', 'Kiste', 'Tasche', 'Hut', 'Flasche', 'Brille', 'Fahrrad', 'Socke', 'Uhr']",295.20975029998226,295.21139189996757,None,,,295.2115107999998,295.2131599999848,None,295.21326310001314,301.22253480000654,3,301.22281549999025,301.2241296999855,301.2241415999597,301.2251831999747,1.5709912000456825,None,,,,,,,,,,,,,,,,,,,,,,,,,,,,,,,,,,,,,,,,,,,,,,,,,1,2023-12-19_12h31.38.139,watkins1,2023.2.3,99.72108012789805,70,2023-12-19 12h31.48.696444 +0000,
,,,,,,,,,,,17,0,17,0,,,,,,,,,,,,,301.23201729997527,,,,,,,,,,301.2254479000112,301.72417299996596,,,2,1.6711518000229262,,,,,,,,,,,,None,None,,,,,,,,,,Hut,nachhaltig,"['Hut', 'nachhaltig']",restudy_diff,1,,,,,,301.22538309998345,301.22542059997795,"['Kette', 'Ring', 'Kerze', 'Eimer', 'Hammer', 'Löffel', 'Schlüssel', 'Trommel', 'Lampe', 'Tasse', 'Schere', 'Bürste', 'Geige', 'Vase', 'Würfel', 'Kiste', 'Tasche', 'Hut', 'Flasche', 'Brille', 'Fahrrad', 'Socke', 'Uhr']",301.7241844999953,301.7266468000016,None,,,301.72676489996957,301.72902669996256,None,301.72912889998406,307.73844819999067,2,307.7387394999969,307.73991890001344,307.73993099998916,307.7412268999615,1.6711518000229262,None,,,,,,,,,,,,,,,,,,,,,,,,,,,,,,,,,,,,,,,,,,,,,,,,,1,2023-12-19_12h31.38.139,watkins1,2023.2.3,99.72108012789805,70,2023-12-19 12h31.48.696444 +0000,
,,,,,,,,,,,18,0,18,0,,,,,,,,,,,,,307.74792359996354,,,,,,,,,,307.74150020000525,308.24006529996404,,,3,0.986185799993109,,,,,,,,,,,,None,None,,,,,,,,,,Flasche,kaputt,"['Flasche', 'kaputt']",restudy_diff,1,,,,,,307.7414347999729,307.7414741999819,"['Kette', 'Ring', 'Kerze', 'Eimer', 'Hammer', 'Löffel', 'Schlüssel', 'Trommel', 'Lampe', 'Tasse', 'Schere', 'Bürste', 'Geige', 'Vase', 'Würfel', 'Kiste', 'Tasche', 'Hut', 'Flasche', 'Brille', 'Fahrrad', 'Socke', 'Uhr']",308.2400767999934,308.2429153000121,None,,,308.24303239997244,308.2457207000116,None,308.2458251999924,314.25472389999777,3,314.25500419997843,314.2563953999779,314.2564071000088,314.2576083999593,0.986185799993109,None,,,,,,,,,,,,,,,,,,,,,,,,,,,,,,,,,,,,,,,,,,,,,,,,,1,2023-12-19_12h31.38.139,watkins1,2023.2.3,99.72108012789805,70,2023-12-19 12h31.48.696444 +0000,
,,,,,,,,,,,19,0,19,0,,,,,,,,,,,,,314.26407899998594,,,,,,,,,,314.2578805999947,314.75611799996113,,,3,1.6934886000235565,,,,,,,,,,,,None,None,,,,,,,,,,Brille,groß,"['Brille', 'groß']",restudy_diff,1,,,,,,314.25781569996616,314.25785479997285,"['Kette', 'Ring', 'Kerze', 'Eimer', 'Hammer', 'Löffel', 'Schlüssel', 'Trommel', 'Lampe', 'Tasse', 'Schere', 'Bürste', 'Geige', 'Vase', 'Würfel', 'Kiste', 'Tasche', 'Hut', 'Flasche', 'Brille', 'Fahrrad', 'Socke', 'Uhr']",314.75612959999125,314.7588672999991,None,,,314.75898469996173,314.7615601000143,None,314.76166349998675,320.7710263999761,3,320.77130419999594,320.7726576999994,320.772670699982,320.77374599996256,1.6934886000235565,None,,,,,,,,,,,,,,,,,,,,,,,,,,,,,,,,,,,,,,,,,,,,,,,,,1,2023-12-19_12h31.38.139,watkins1,2023.2.3,99.72108012789805,70,2023-12-19 12h31.48.696444 +0000,
,,,,,,,,,,,20,0,20,0,,,,,,,,,,,,,320.7804750999785,,,,,,,,,,320.7740161999827,321.27255349996267,,,2,4.40963540005032,,,,,,,,,,,,None,None,,,,,,,,,,Fahrrad,krumm,"['Fahrrad', 'krumm']",restudy_diff,1,,,,,,320.77395170001546,320.77399029996013,"['Kette', 'Ring', 'Kerze', 'Eimer', 'Hammer', 'Löffel', 'Schlüssel', 'Trommel', 'Lampe', 'Tasse', 'Schere', 'Bürste', 'Geige', 'Vase', 'Würfel', 'Kiste', 'Tasche', 'Hut', 'Flasche', 'Brille', 'Fahrrad', 'Socke', 'Uhr']",321.2725655999966,321.2751983999624,None,,,321.2753173999954,321.2777795000002,None,321.27788279997185,327.28795610001544,2,327.28828440001234,327.28966000000946,327.289672599989,327.2909110999899,4.40963540005032,None,,,,,,,,,,,,,,,,,,,,,,,,,,,,,,,,,,,,,,,,,,,,,,,,,1,2023-12-19_12h31.38.139,watkins1,2023.2.3,99.72108012789805,70,2023-12-19 12h31.48.696444 +0000,
,,,,,,,,,,,21,0,21,0,,,,,,,,,,,,,327.2974099999992,,,,,,,,,,327.29121060000034,327.7894049999886,,,[],[],,,,,,,,,,,,None,None,,,,,,,,,,Socke,hübsch,"['Socke', 'hübsch']",control,1,,,,,,327.2911377999699,327.29118369997013,"['Kette', 'Ring', 'Kerze', 'Eimer', 'Hammer', 'Löffel', 'Schlüssel', 'Trommel', 'Lampe', 'Tasse', 'Schere', 'Bürste', 'Geige', 'Vase', 'Würfel', 'Kiste', 'Tasche', 'Hut', 'Flasche', 'Brille', 'Fahrrad', 'Socke', 'Uhr']",327.78941580001265,333.7938128999667,3,1.4585184999741614,None,333.79408789996523,333.7967784999637,None,333.79688320000423,333.7995022999821,None,333.7996054000105,333.80079249996925,333.80080420000013,333.8019913000171,,,,,,,,,,,,,,,,,,,,,,,,,,,,,,,,,,,,,,,,,,,,,,,,,,,1,2023-12-19_12h31.38.139,watkins1,2023.2.3,99.72108012789805,70,2023-12-19 12h31.48.696444 +0000,
,,,,,,,,,,,22,0,22,0,,,,,,,,,,,,,333.80568059999496,,,,,,,,,,333.80225770000834,334.29900519998046,,,3,1.698766700050328,,,,,,,,,,,,None,None,,,,,,,,,,Uhr,klobig,"['Uhr', 'klobig']",restudy_diff,1,,,,,,333.80219379998744,333.8022334999987,"['Kette', 'Ring', 'Kerze', 'Eimer', 'Hammer', 'Löffel', 'Schlüssel', 'Trommel', 'Lampe', 'Tasse', 'Schere', 'Bürste', 'Geige', 'Vase', 'Würfel', 'Kiste', 'Tasche', 'Hut', 'Flasche', 'Brille', 'Fahrrad', 'Socke', 'Uhr']",334.29901740001515,334.30046080000466,None,,,334.3005788999726,334.30186800000956,None,334.301969299966,340.30727379996097,3,340.30755510000745,340.30871389998356,340.3087257000152,340.31003809999675,1.698766700050328,None,,,,,,,,,,,,,,,,,,,,,,,,,,,,,,,,,,,,,,,,,,,,,,,,,1,2023-12-19_12h31.38.139,watkins1,2023.2.3,99.72108012789805,70,2023-12-19 12h31.48.696444 +0000,
,,,,,,,,,,,,,,,,,,,,,,,,,,,,,,,,,,,,,,,,,,,,,,,,,,,,,,,,,,,,,,,,,,,,,1,,,,,,,,,,,,,,,,,,,,,,,,,,,,,,,,,,,,,,,,,,,,,,,,,,,,,,,,,,,,,,,,,,,,,,,,,,1,2023-12-19_12h31.38.139,watkins1,2023.2.3,99.72108012789805,70,2023-12-19 12h31.48.696444 +0000,
(54 : 6) - 10 = 0 ,Incorrect,button_incorrect,,,,,,,,,,,,,0,0,0,5,,,,,,,,,362.68304440000793,,,,,,,,361.65158269996755,362.6537475999794,,,,,['button_incorrect'],[7.505879600008484],,,,,,,,,,,,,,,,,,,,,,,,,,distractorTask,1,,,,,,,,,,,,,,,,,,,,,,,,,,362.6721155999694,362.68304440000793,370.18248109996784,[-0.35833333333333334],[-0.387037037037037],[1],[0],[0],[7.505879600008484],['button_incorrect'],370.1831696999725,371.1858595999656,,,,,,,,,,,,,,,,,,,,,,,,,,,,,,,,,,,,,1,2023-12-19_12h31.38.139,watkins1,2023.2.3,99.72108012789805,70,2023-12-19 12h31.48.696444 +0000,
(25 : 5) + 5 = 9 ,Incorrect,button_incorrect,,,,,,,,,,,,,0,1,1,6,,,,,,,,,371.19589839997934,,,,,,,,,,,,,,['button_incorrect'],[4.385013899998739],,,,,,,,,,,,,,,,,,,,,,,,,,distractorTask,1,,,,,,,,,,,,,,,,,,,,,,,,,,371.1860578999622,371.19589839997934,375.5741587000084,[-0.28703703703703703],[-0.3861111111111111],[1],[0],[0],[4.385013899998739],['button_incorrect'],375.5745479000034,376.57783739996376,,,,,,,,,,,,,,,,,,,,,,,,,,,,,,,,,,,,,1,2023-12-19_12h31.38.139,watkins1,2023.2.3,99.72108012789805,70,2023-12-19 12h31.48.696444 +0000,
(9 x 5) - 9 = 36 ,Correct,button_correct,,,,,,,,,,,,,0,2,2,4,,,,,,,,,376.58790210000006,,,,,,,,,,,,,,['button_correct'],[6.433414799976163],,,,,,,,,,,,,,,,,,,,,,,,,,distractorTask,1,,,,,,,,,,,,,,,,,,,,,,,,,,376.5780300999759,376.58790210000006,383.01435269997455,[0.39537037037037037],[-0.40555555555555556],[1],[0],[0],[6.433414799976163],['button_correct'],383.01474309997866,384.01780540001346,,,,,,,,,,,,,,,,,,,,,,,,,,,,,,,,,,,,,1,2023-12-19_12h31.38.139,watkins1,2023.2.3,99.72108012789805,70,2023-12-19 12h31.48.696444 +0000,
(40 : 5) + 8 = 15 ,Incorrect,button_incorrect,,,,,,,,,,,,,0,3,3,7,,,,,,,,,384.02775259997,,,,,,,,,,,,,,['button_incorrect'],"[6.50393060001079, 7.136470099969301]",,,,,,,,,,,,,,,,,,,,,,,,,,distractorTask,1,,,,,,,,,,,,,,,,,,,,,,,,,,384.01800069998717,384.02775259997,391.15727419999894,"[-0.3861111111111111, -0.37222222222222223]","[-0.37407407407407406, -0.3907407407407407]","[1, 1]","[0, 0]","[0, 0]","[6.50393060001079, 7.136470099969301]",['button_incorrect'],391.15768299996853,392.1609657999943,,,,,,,,,,,,,,,,,,,,,,,,,,,,,,,,,,,,,1,2023-12-19_12h31.38.139,watkins1,2023.2.3,99.72108012789805,70,2023-12-19 12h31.48.696444 +0000,
(28 : 7) - 3 = 1 ,Correct,button_correct,,,,,,,,,,,,,0,4,4,0,,,,,,,,,392.17095409997273,,,,,,,,,,,,,,['button_incorrect'],[3.763168499979656],,,,,,,,,,,,,,,,,,,,,,,,,,distractorTask,1,,,,,,,,,,,,,,,,,,,,,,,,,,392.16116670001065,392.17095409997273,395.92663459997857,[-0.28425925925925927],[-0.3861111111111111],[1],[0],[0],[3.763168499979656],['button_incorrect'],395.92702479998115,396.9300188999623,,,,,,,,,,,,,,,,,,,,,,,,,,,,,,,,,,,,,1,2023-12-19_12h31.38.139,watkins1,2023.2.3,99.72108012789805,70,2023-12-19 12h31.48.696444 +0000,
(6 x 3) + 10 = 27 ,Incorrect,button_incorrect,,,,,,,,,,,,,0,5,5,8,,,,,,,,,396.939955800015,,,,,,,,,,,,,,['button_incorrect'],[4.828810599981807],,,,,,,,,,,,,,,,,,,,,,,,,,distractorTask,1,,,,,,,,,,,,,,,,,,,,,,,,,,396.9302209999878,396.939955800015,401.7607997999876,[-0.28425925925925927],[-0.39351851851851855],[1],[0],[0],[4.828810599981807],['button_incorrect'],401.76119359995937,402.7643473999924,,,,,,,,,,,,,,,,,,,,,,,,,,,,,,,,,,,,,1,2023-12-19_12h31.38.139,watkins1,2023.2.3,99.72108012789805,70,2023-12-19 12h31.48.696444 +0000,
(7 x 6) + 9 = 48 ,Incorrect,button_incorrect,,,,,,,,,,,,,0,6,6,9,,,,,,,,,402.77432399999816,,,,,,,,,,,,,,['button_correct'],[6.868319699948188],,,,,,,,,,,,,,,,,,,,,,,,,,distractorTask,1,,,,,,,,,,,,,,,,,,,,,,,,,,402.76454439997906,402.77432399999816,409.6345798000111,[0.37777777777777777],[-0.41388888888888886],[1],[0],[0],[6.868319699948188],['button_correct'],409.6349745999905,410.6380628999905,,,,,,,,,,,,,,,,,,,,,,,,,,,,,,,,,,,,,1,2023-12-19_12h31.38.139,watkins1,2023.2.3,99.72108012789805,70,2023-12-19 12h31.48.696444 +0000,
(80 : 10) + 9 = 17 ,Correct,button_correct,,,,,,,,,,,,,0,7,7,3,,,,,,,,,410.64806869998574,,,,,,,,,,,,,,['button_correct'],[5.059050700045191],,,,,,,,,,,,,,,,,,,,,,,,,,distractorTask,1,,,,,,,,,,,,,,,,,,,,,,,,,,410.63826420000987,410.64806869998574,415.69917199999327,[0.36203703703703705],[-0.39444444444444443],[1],[0],[0],[5.059050700045191],['button_correct'],415.699559199973,416.7027096999809,,,,,,,,,,,,,,,,,,,,,,,,,,,,,,,,,,,,,1,2023-12-19_12h31.38.139,watkins1,2023.2.3,99.72108012789805,70,2023-12-19 12h31.48.696444 +0000,
(4 : 2) + 4 = 6 ,Correct,button_correct,,,,,,,,,,,,,0,8,8,1,,,,,,,,,416.712753299973,,,,,,,,,,,,,,['button_correct'],[3.2719400999485515],,,,,,,,,,,,,,,,,,,,,,,,,,distractorTask,1,,,,,,,,,,,,,,,,,,,,,,,,,,416.70290569995996,416.712753299973,419.9765318999998,[0.32592592592592595],[-0.3925925925925926],[1],[0],[0],[3.2719400999485515],['button_correct'],419.9769207999925,420.97999829996843,,,,,,,,,,,,,,,,,,,,,,,,,,,,,,,,,,,,,1,2023-12-19_12h31.38.139,watkins1,2023.2.3,99.72108012789805,70,2023-12-19 12h31.48.696444 +0000,
(2 x 5) + 3 = 13 ,Correct,button_correct,,,,,,,,,,,,,0,9,9,2,,,,,,,,,420.9899892999674,,,,,,,,,,,,,,['button_correct'],[2.6192702000262216],,,,,,,,,,,,,,,,,,,,,,,,,,distractorTask,1,,,,,,,,,,,,,,,,,,,,,,,,,,420.9801931999973,420.9899892999674,423.60117839998566,[0.32685185185185184],[-0.3925925925925926],[1],[0],[0],[2.6192702000262216],['button_correct'],423.6015713000088,424.60475150001,,,,,,,,,,,,,,,,,,,,,,,,,,,,,,,,,,,,,1,2023-12-19_12h31.38.139,watkins1,2023.2.3,99.72108012789805,70,2023-12-19 12h31.48.696444 +0000,
,,,,,,,,,,,,,,,,,,,,,,,,,,,,,,,,,,,,,,,,,,,,,,,,,,,,,,,,,,,,,,,,,,,,,1,,,,,,,,,,,,,,,,,,,,,,,,,,,,,,,,,,,,,,,,,,,,,,,,,,,,,,,,,,,,,,,,,,,,,,,,,,1,2023-12-19_12h31.38.139,watkins1,2023.2.3,99.72108012789805,70,2023-12-19 12h31.48.696444 +0000,
,,,,,,,,,,,,,,,,,,,0,0,0,0,,,,,442.04384180001216,,,,,,,,,,,,,,Uhr,6.857386100047734,,,,,,,,,,,,4.818732300016563,None,,,,,,,,,,,,,freeRecallSub,1,,,,,,,,,,,,,,,,,,,,,,,,,,,,,,,,,,,,,,442.03528730000835,442.04384180001216,442.04384180001216,448.9017176000052,return,6.857386100047734,None,Uhr,"[0.009259259259259259, 0.003703703703703704]","[0.03796296296296296, 0.05092592592592592]","[1, 1]","[0, 0]","[0, 0]","[1.90623099997174, 2.6191495999810286]",[],,,,,,,,,,,,,,,,,,,,,,1,2023-12-19_12h31.38.139,watkins1,2023.2.3,99.72108012789805,70,2023-12-19 12h31.48.696444 +0000,
,,,,,,,,,,,,,,,,,,,1,0,1,0,,,,,448.91361659998074,,,,,,,,,,,,,,Hammer,2.6676285000285134,,,,,,,,,,,,1.115966200013645,None,,,,,,,,,,,,,freeRecallSub,1,,,,,,,,,,,,,,,,,,,,,,,,,,,,,,,,,,,,,,448.903519399988,448.91361659998074,448.91361659998074,451.58594199997606,return,2.6676285000285134,None,Hammer,[],[],[],[],[],[],[],,,,,,,,,,,,,,,,,,,,,,1,2023-12-19_12h31.38.139,watkins1,2023.2.3,99.72108012789805,70,2023-12-19 12h31.48.696444 +0000,
,,,,,,,,,,,,,,,,,,,2,0,2,0,,,,,451.5968245000113,,,,,,,,,,,,,,Blume,5.168320199998561,,,,,,,,,,,,2.600760600005742,None,,,,,,,,,,,,,freeRecallSub,1,,,,,,,,,,,,,,,,,,,,,,,,,,,,,,,,,,,,,,451.5872078000102,451.5968245000113,451.5968245000113,456.7685721999733,return,5.168320199998561,None,Blume,[],[],[],[],[],[],[],,,,,,,,,,,,,,,,,,,,,,1,2023-12-19_12h31.38.139,watkins1,2023.2.3,99.72108012789805,70,2023-12-19 12h31.48.696444 +0000,
,,,,,,,,,,,,,,,,,,,3,0,3,0,,,,,456.77942480001366,,,,,,,,,,,,,,Vase,2.241788399987854,,,,,,,,,,,,0.6730102999717928,None,,,,,,,,,,,,,freeRecallSub,1,,,,,,,,,,,,,,,,,,,,,,,,,,,,,,,,,,,,,,456.7698043999844,456.77942480001366,456.77942480001366,459.02895929996157,return,2.241788399987854,None,Vase,[],[],[],[],[],[],[],,,,,,,,,,,,,,,,,,,,,,1,2023-12-19_12h31.38.139,watkins1,2023.2.3,99.72108012789805,70,2023-12-19 12h31.48.696444 +0000,
,,,,,,,,,,,,,,,,,,,4,0,4,0,,,,,459.0399330999935,,,,,,,,,,,,,,Fahrrad,8.117252100026235,,,,,,,,,,,,4.277260400005616,None,,,,,,,,,,,,,freeRecallSub,1,,,,,,,,,,,,,,,,,,,,,,,,,,,,,,,,,,,,,,459.0302236999851,459.0399330999935,459.0399330999935,467.1630500999745,return,8.117252100026235,None,Fahrrad,[],[],[],[],[],[],[],,,,,,,,,,,,,,,,,,,,,,1,2023-12-19_12h31.38.139,watkins1,2023.2.3,99.72108012789805,70,2023-12-19 12h31.48.696444 +0000,
,,,,,,,,,,,,,,,,,,,5,0,5,0,,,,,467.1746999999741,,,,,,,,,,,,,,Socke,8.99051720002899,,,,,,,,,,,,6.58842139999615,None,,,,,,,,,,,,,freeRecallSub,1,,,,,,,,,,,,,,,,,,,,,,,,,,,,,,,,,,,,,,467.16432209999766,467.1746999999741,467.1746999999741,476.1725265000132,return,8.99051720002899,None,Socke,[],[],[],[],[],[],[],,,,,,,,,,,,,,,,,,,,,,1,2023-12-19_12h31.38.139,watkins1,2023.2.3,99.72108012789805,70,2023-12-19 12h31.48.696444 +0000,
,,,,,,,,,,,,,,,,,,,6,0,6,0,,,,,476.18433199997526,,,,,,,,,,,,,,Jacke,86.94089160003932,,,,,,,,,,,,84.54102409997722,None,,,,,,,,,,,,,freeRecallSub,1,,,,,,,,,,,,,,,,,,,,,,,,,,,,,,,,,,,,,,476.1737929999945,476.18433199997526,476.18433199997526,563.1343388999812,return,86.94089160003932,None,Jacke,[],[],[],[],[],[],[],,,,,,,,,,,,,,,,,,,,,,1,2023-12-19_12h31.38.139,watkins1,2023.2.3,99.72108012789805,70,2023-12-19 12h31.48.696444 +0000,
,,,,,,,,,,,,,,,,,,,7,0,7,0,,,,,563.1464405999868,,,,,,,,,,,,,,Trommel,18.138811099983286,,,,,,,,,,,,15.425189499976113,None,,,,,,,,,,,,,freeRecallSub,1,,,,,,,,,,,,,,,,,,,,,,,,,,,,,,,,,,,,,,563.1356410000008,563.1464405999868,563.1464405999868,581.291876400006,return,18.138811099983286,None,Trommel,[],[],[],[],[],[],[],,,,,,,,,,,,,,,,,,,,,,1,2023-12-19_12h31.38.139,watkins1,2023.2.3,99.72108012789805,70,2023-12-19 12h31.48.696444 +0000,
,,,,,,,,,,,,,,,,,,,8,0,8,0,,,,,581.3039680999937,,,,,,,,,,,,,,Kamera,17.701252400001977,,,,,,,,,,,,14.088861499971244,15.424253300006967,,,,,,,,,,,,,freeRecallSub,1,,,,,,,,,,,,,,,,,,,,,,,,,,,,,,,,,,,,,,581.2931505999877,581.3039680999937,581.3039680999937,599.0066065000137,return,17.701252400001977,None,Kamera,[],[],[],[],[],[],[],,,,,,,,,,,,,,,,,,,,,,1,2023-12-19_12h31.38.139,watkins1,2023.2.3,99.72108012789805,70,2023-12-19 12h31.48.696444 +0000,
,,,,,,,,,,,,,,,,,,,9,0,9,0,,,,,599.0189760999638,,,,,,,,,,,,,,,[],,,,,,,,,,,,None,None,,,,,,,,,,,,,freeRecallSub,1,,,,,,,,,,,,,,,,,,,,,,,,,,,,,,,,,,,,,,599.0078912000172,599.0189760999638,599.0189760999638,606.230636399996,None,,,,[0.18518518518518517],[-0.387037037037037],[1],[0],[0],[7.218149599968456],"['button_continue', 'continue_text']",,,,,,,,,,,,,,,,,,,,,,1,2023-12-19_12h31.38.139,watkins1,2023.2.3,99.72108012789805,70,2023-12-19 12h31.48.696444 +0000,
,,,,,,,,,,,,,,,,,,,,,,,,,,,,,,,,,,,,,,,,,,,,,,,,,,,,,,,,,,,,,,,,,,,,,1,,,,,,,,,,,,,,,,,,,,,,,,,,,,,,,,,,,,,,,,,,,,,,,,,,,,,,,,,,,,,,,,,,,,,,,,,,1,2023-12-19_12h31.38.139,watkins1,2023.2.3,99.72108012789805,70,2023-12-19 12h31.48.696444 +0000,
,,,,,,,,,,,,,,,,,,,,,,,0,0,0,0,615.1818936999771,,,,,,,,,,658.9583580999752,659.4498691000044,,,,40.19934260001173,,,,,,,,,,,,3.5736764000030234,None,,,,,,,,,,Tasche,,,cuedRecallAdj,1,,,,,,,,,,,,,,,,,,,,,,,,,,,,,,,,,,,,,,,,,,,,,,,,,,,,,615.172870600014,615.1818936999771,0,615.1818936999771,655.3836038999725,matt,return,40.19934260001173,None,655.3840091999737,655.3931751999771,655.3931751999771,658.9579648000072,,return,3.555915000033565,None,,,,,1,2023-12-19_12h31.38.139,watkins1,2023.2.3,99.72108012789805,70,2023-12-19 12h31.48.696444 +0000,
,,,,,,,,,,,,,,,,,,,,,,,1,0,1,0,659.459858999995,,,,,,,,,,669.6916026999825,670.1827863999642,,,,9.857367100019474,,,,,,,,,,,,0.37078709999332204,None,,,,,,,,,,Brille,,,cuedRecallAdj,1,,,,,,,,,,,,,,,,,,,,,,,,,,,,,,,,,,,,,,,,,,,,,,,,,,,,,659.4501184999826,659.459858999995,0,659.459858999995,669.3198386000004,klobig,return,9.857367100019474,None,669.3201165999635,669.3294470999972,669.3294470999972,669.6913388000103,,return,0.3557462000171654,None,,,,,1,2023-12-19_12h31.38.139,watkins1,2023.2.3,99.72108012789805,70,2023-12-19 12h31.48.696444 +0000,
,,,,,,,,,,,,,,,,,,,,,,,2,0,2,0,670.1928419999895,,,,,,,,,,673.4593562000082,673.9579163999879,,,,3.260425899992697,,,,,,,,,,,,None,None,,,,,,,,,,Trommel,,,cuedRecallAdj,1,,,,,,,,,,,,,,,,,,,,,,,,,,,,,,,,,,,,,,,,,,,,,,,,,,,,,670.1830218000105,670.1928419999895,0,670.1928419999895,673.4563322999747,teuer,return,3.260425899992697,None,673.4565956000006,673.4659021999687,673.4659021999687,673.4592550999951,,None,,,,,,,1,2023-12-19_12h31.38.139,watkins1,2023.2.3,99.72108012789805,70,2023-12-19 12h31.48.696444 +0000,
,,,,,,,,,,,,,,,,,,,,,,,3,0,3,0,673.9678172999993,,,,,,,,,,694.1914310000138,694.6827101999661,,,,5.28542450000532,,,,,,,,,,,,14.930417800031137,None,,,,,,,,,,Fahrrad,,,cuedRecallAdj,1,,,,,,,,,,,,,,,,,,,,,,,,,,,,,,,,,,,,,,,,,,,,,,,,,,,,,673.958152599982,673.9678172999993,0,673.9678172999993,679.2600051999907,krumm,return,5.28542450000532,None,679.2602688999614,679.2695527999895,679.2695527999895,694.1911723999656,,return,14.919601900037378,None,,,,,1,2023-12-19_12h31.38.139,watkins1,2023.2.3,99.72108012789805,70,2023-12-19 12h31.48.696444 +0000,
,,,,,,,,,,,,,,,,,,,,,,,4,0,4,0,694.6927596000023,,,,,,,,,,740.7000740999938,741.1915391999646,,,nützlich,12.528386100020725,,,,,,,,,,,,30.21160099998815,None,,,,,,,,,,Schlüssel,,,cuedRecallAdj,1,,,,,,,,,,,,,,,,,,,,,,,,,,,,,,,,,,,,,,,,,,,,,,,,,,,,,694.6829554999713,694.6927596000023,0,694.6927596000023,707.2241155999945,durchsichtig,return,12.528386100020725,None,707.2243721999694,707.2337137999712,707.2337137999712,740.6998166000121,nützlich,return,33.45957649999764,None,,,,,1,2023-12-19_12h31.38.139,watkins1,2023.2.3,99.72108012789805,70,2023-12-19 12h31.48.696444 +0000,
,,,,,,,,,,,,,,,,,,,,,,,5,0,5,0,741.2013772999635,,,,,,,,,,754.6171225999715,755.1087156999856,,,klobig,4.731802400026936,,,,,,,,,,,,3.9457092999946326,None,,,,,,,,,,Uhr,,,cuedRecallAdj,1,,,,,,,,,,,,,,,,,,,,,,,,,,,,,,,,,,,,,,,,,,,,,,,,,,,,,741.1918245999841,741.2013772999635,0,741.2013772999635,745.9411449999898,hohl,return,4.731802400026936,None,745.9414008999593,745.9508324000053,745.9508324000053,754.6168525000103,klobig,return,8.662280999997165,None,,,,,1,2023-12-19_12h31.38.139,watkins1,2023.2.3,99.72108012789805,70,2023-12-19 12h31.48.696444 +0000,
,,,,,,,,,,,,,,,,,,,,,,,6,0,6,0,755.1186300999834,,,,,,,,,,757.9035119999899,758.4021091999603,,,,2.7747430999879725,,,,,,,,,,,,None,None,,,,,,,,,,Kamera,,,cuedRecallAdj,1,,,,,,,,,,,,,,,,,,,,,,,,,,,,,,,,,,,,,,,,,,,,,,,,,,,,,755.108956800017,755.1186300999834,0,755.1186300999834,757.9002968000132,nass,return,2.7747430999879725,None,757.9005670999759,757.910023399978,757.910023399978,757.9034026999725,,None,,,,,,,1,2023-12-19_12h31.38.139,watkins1,2023.2.3,99.72108012789805,70,2023-12-19 12h31.48.696444 +0000,
,,,,,,,,,,,,,,,,,,,,,,,7,0,7,0,758.4121551999706,,,,,,,,,,817.9159643999883,818.4072399999714,,,lustig,4.521100200014189,,,,,,,,,,,,14.74077049997868,41.54027419997146,,,,,,,,,,Schere,,,cuedRecallAdj,1,,,,,,,,,,,,,,,,,,,,,,,,,,,,,,,,,,,,,,,,,,,,,,,,,,,,,758.4023565999814,758.4121551999706,0,758.4121551999706,762.9405734000029,schwer,return,4.521100200014189,None,762.9408377999789,762.9503810000024,762.9503810000024,817.9157034999807,lustig,return,54.95885920000728,None,,,,,1,2023-12-19_12h31.38.139,watkins1,2023.2.3,99.72108012789805,70,2023-12-19 12h31.48.696444 +0000,
,,,,,,,,,,,,,,,,,,,,,,,8,0,8,0,818.417197200004,,,,,,,,,,831.7409850999829,832.2325016999966,,,,7.84407629998168,,,,,,,,,,,,5.471137200016528,None,,,,,,,,,,Geige,,,cuedRecallAdj,1,,,,,,,,,,,,,,,,,,,,,,,,,,,,,,,,,,,,,,,,,,,,,,,,,,,,,818.4074837999651,818.417197200004,0,818.417197200004,826.2690461999737,gestreift,return,7.84407629998168,None,826.2693039000151,826.2787714999868,826.2787714999868,831.7407260999898,,return,5.45437980000861,None,,,,,1,2023-12-19_12h31.38.139,watkins1,2023.2.3,99.72108012789805,70,2023-12-19 12h31.48.696444 +0000,
,,,,,,,,,,,,,,,,,,,,,,,9,0,9,0,832.2424527999829,,,,,,,,,,843.3018591,843.791057800001,,,,11.050711299991235,,,,,,,,,,,,None,None,,,,,,,,,,Rucksack,,,cuedRecallAdj,1,,,,,,,,,,,,,,,,,,,,,,,,,,,,,,,,,,,,,,,,,,,,,,,,,,,,,832.2327421999653,832.2424527999829,0,832.2424527999829,843.2995409999858,,return,11.050711299991235,None,843.2998048000154,843.3090704999631,843.3090704999631,843.3017572999815,,None,,,,,,,1,2023-12-19_12h31.38.139,watkins1,2023.2.3,99.72108012789805,70,2023-12-19 12h31.48.696444 +0000,
,,,,,,,,,,,,,,,,,,,,,,,10,0,10,0,843.8010230999789,,,,,,,,,,858.1601785999956,858.6514534999733,,,dunkel,11.372237500036135,,,,,,,,,,,,1.2042279000161216,None,,,,,,,,,,Hut,,,cuedRecallAdj,1,,,,,,,,,,,,,,,,,,,,,,,,,,,,,,,,,,,,,,,,,,,,,,,,,,,,,843.7912978999666,843.8010230999789,0,843.8010230999789,855.177621299983,nachhaltig,return,11.372237500036135,None,855.1778865999659,855.1871748999692,855.1871748999692,858.1599123000051,dunkel,return,2.9701659999554977,None,,,,,1,2023-12-19_12h31.38.139,watkins1,2023.2.3,99.72108012789805,70,2023-12-19 12h31.48.696444 +0000,
,,,,,,,,,,,,,,,,,,,,,,,11,0,11,0,858.6614319999935,,,,,,,,,,866.6272246000008,867.1254685999593,,,,7.959829600004014,,,,,,,,,,,,None,None,,,,,,,,,,Blume,,,cuedRecallAdj,1,,,,,,,,,,,,,,,,,,,,,,,,,,,,,,,,,,,,,,,,,,,,,,,,,,,,,858.6516969999648,858.6614319999935,0,858.6614319999935,866.6239300000016,flach,return,7.959829600004014,None,866.6241972999997,866.6334779000026,866.6334779000026,866.6271230999846,,None,,,,,,,1,2023-12-19_12h31.38.139,watkins1,2023.2.3,99.72108012789805,70,2023-12-19 12h31.48.696444 +0000,
,,,,,,,,,,,,,,,,,,,,,,,12,0,12,0,867.1353707999806,,,,,,,,,,872.1589394999901,872.6577721000067,,,,5.013794300029986,,,,,,,,,,,,None,None,,,,,,,,,,Buch,,,cuedRecallAdj,1,,,,,,,,,,,,,,,,,,,,,,,,,,,,,,,,,,,,,,,,,,,,,,,,,,,,,867.1257108999998,867.1353707999806,0,867.1353707999806,872.1560655999929,lang,return,5.013794300029986,None,872.1563274000073,872.1656003000098,872.1656003000098,872.1588406999945,,None,,,,,,,1,2023-12-19_12h31.38.139,watkins1,2023.2.3,99.72108012789805,70,2023-12-19 12h31.48.696444 +0000,
,,,,,,,,,,,,,,,,,,,,,,,13,0,13,0,872.6677105000126,,,,,,,,,,882.6887415999663,883.1800301999901,,,,5.89744749997044,,,,,,,,,,,,4.115706299955491,None,,,,,,,,,,Hammer,,,cuedRecallAdj,1,,,,,,,,,,,,,,,,,,,,,,,,,,,,,,,,,,,,,,,,,,,,,,,,,,,,,872.6580227999948,872.6677105000126,0,872.6677105000126,878.5720504999626,niedlich,return,5.89744749997044,None,878.572320599982,878.5816010999843,878.5816010999843,882.688483099977,,return,4.103569700033404,None,,,,,1,2023-12-19_12h31.38.139,watkins1,2023.2.3,99.72108012789805,70,2023-12-19 12h31.48.696444 +0000,
,,,,,,,,,,,,,,,,,,,,,,,14,0,14,0,883.1899413999636,,,,,,,,,,885.9839286999777,886.473509399977,,,,2.7833261999767274,,,,,,,,,,,,None,None,,,,,,,,,,Kette,,,cuedRecallAdj,1,,,,,,,,,,,,,,,,,,,,,,,,,,,,,,,,,,,,,,,,,,,,,,,,,,,,,883.1802766000037,883.1899413999636,0,883.1899413999636,885.9817664999864,,return,2.7833261999767274,None,885.9820227000164,885.9914551000111,885.9914551000111,885.9838301999844,,None,,,,,,,1,2023-12-19_12h31.38.139,watkins1,2023.2.3,99.72108012789805,70,2023-12-19 12h31.48.696444 +0000,
,,,,,,,,,,,,,,,,,,,,,,,15,0,15,0,886.4835034999996,,,,,,,,,,956.818454799999,957.3096662999596,,,sportlich,40.64178050000919,,,,,,,,,,,,2.459202900005039,None,,,,,,,,,,Ring,,,cuedRecallAdj,1,,,,,,,,,,,,,,,,,,,,,,,,,,,,,,,,,,,,,,,,,,,,,,,,,,,,,886.4737535999739,886.4835034999996,0,886.4835034999996,927.12807169999,verspielt,return,40.64178050000919,None,927.128334500012,927.1376349999919,927.1376349999919,956.8181863999926,sportlich,return,29.675536199996714,None,,,,,1,2023-12-19_12h31.38.139,watkins1,2023.2.3,99.72108012789805,70,2023-12-19 12h31.48.696444 +0000,
,,,,,,,,,,,,,,,,,,,,,,,16,0,16,0,957.3196260000113,,,,,,,,,,1062.045447600016,1062.5434714999865,,,,104.71756159997312,,,,,,,,,,,,None,None,,,,,,,,,,Stift,,,cuedRecallAdj,1,,,,,,,,,,,,,,,,,,,,,,,,,,,,,,,,,,,,,,,,,,,,,,,,,,,,,957.3099118999671,957.3196260000113,0,957.3196260000113,1062.0420288000023,edel,return,104.71756159997312,None,1062.0422976000118,1062.0515546000097,1062.0515546000097,1062.0453470000066,,None,,,,,,,1,2023-12-19_12h31.38.139,watkins1,2023.2.3,99.72108012789805,70,2023-12-19 12h31.48.696444 +0000,
,,,,,,,,,,,,,,,,,,,,,,,17,0,17,0,1062.5535269000102,,,,,,,,,,1087.5752138000098,1088.0666289000073,,,,6.939663500001188,,,,,,,,,,,,18.072650100046303,None,,,,,,,,,,Tasse,,,cuedRecallAdj,1,,,,,,,,,,,,,,,,,,,,,,,,,,,,,,,,,,,,,,,,,,,,,,,,,,,,,1062.543721999973,1062.5535269000102,0,1062.5535269000102,1069.5017421999946,kurz,return,6.939663500001188,None,1069.5020038000075,1069.511398200004,1069.511398200004,1087.5749452000018,,return,18.053900099999737,None,,,,,1,2023-12-19_12h31.38.139,watkins1,2023.2.3,99.72108012789805,70,2023-12-19 12h31.48.696444 +0000,
,,,,,,,,,,,,,,,,,,,,,,,18,0,18,0,1088.076610499993,,,,,,,,,,1101.1533362999908,1101.6516811999609,,,,13.064614099974278,,,,,,,,,,,,None,None,,,,,,,,,,Telefon,,,cuedRecallAdj,1,,,,,,,,,,,,,,,,,,,,,,,,,,,,,,,,,,,,,,,,,,,,,,,,,,,,,1088.066871899995,1088.076610499993,0,1088.076610499993,1101.1501040000003,flauschig,return,13.064614099974278,None,1101.150366799964,1101.1598390999716,1101.1598390999716,1101.1532357999822,,None,,,,,,,1,2023-12-19_12h31.38.139,watkins1,2023.2.3,99.72108012789805,70,2023-12-19 12h31.48.696444 +0000,
,,,,,,,,,,,,,,,,,,,,,,,19,0,19,0,1101.6615822999738,,,,,,,,,,1143.2225820000167,1143.7137572999927,,,,6.255715500039514,,,,,,,,,,,,35.294215100002475,None,,,,,,,,,,Vase,,,cuedRecallAdj,1,,,,,,,,,,,,,,,,,,,,,,,,,,,,,,,,,,,,,,,,,,,,,,,,,,,,,1101.6519313000026,1101.6615822999738,0,1101.6615822999738,1107.9273546999902,dick,return,6.255715500039514,None,1107.927612599975,1107.9370821999619,1107.9370821999619,1143.2223149999627,,return,35.28410230000736,None,,,,,1,2023-12-19_12h31.38.139,watkins1,2023.2.3,99.72108012789805,70,2023-12-19 12h31.48.696444 +0000,
,,,,,,,,,,,,,,,,,,,,,,,20,0,20,0,1143.723797100014,,,,,,,,,,1156.375637399964,1156.8671174999909,,,biegsam,5.065499699965585,,,,,,,,,,,,5.692491499998141,None,,,,,,,,,,Eimer,,,cuedRecallAdj,1,,,,,,,,,,,,,,,,,,,,,,,,,,,,,,,,,,,,,,,,,,,,,,,,,,,,,1143.7140065999702,1143.723797100014,0,1143.723797100014,1148.794787299994,glänzend,return,5.065499699965585,None,1148.7950529999798,1148.8043559999787,1148.8043559999787,1156.3753723999835,biegsam,return,7.56090540002333,None,,,,,1,2023-12-19_12h31.38.139,watkins1,2023.2.3,99.72108012789805,70,2023-12-19 12h31.48.696444 +0000,
,,,,,,,,,,,,,,,,,,,,,,,21,0,21,0,1156.8770726000075,,,,,,,,,,1159.8737181999604,1160.3720976999612,,,,2.992200899985619,,,,,,,,,,,,None,None,,,,,,,,,,Kiste,,,cuedRecallAdj,1,,,,,,,,,,,,,,,,,,,,,,,,,,,,,,,,,,,,,,,,,,,,,,,,,,,,,1156.86736069998,1156.8770726000075,0,1156.8770726000075,1159.8704556999728,bunt,return,2.992200899985619,None,1159.8707130000112,1159.879969200003,1159.879969200003,1159.873620199971,,None,,,,,,,1,2023-12-19_12h31.38.139,watkins1,2023.2.3,99.72108012789805,70,2023-12-19 12h31.48.696444 +0000,
,,,,,,,,,,,,,,,,,,,,,,,22,0,22,0,1160.3820324999979,,,,,,,,,,1250.6794742000056,1251.170965199999,,,,63.255179699976,,,,,,,,,,,,27.038666200009175,None,,,,,,,,,,Flasche,,,cuedRecallAdj,1,,,,,,,,,,,,,,,,,,,,,,,,,,,,,,,,,,,,,,,,,,,,,,,,,,,,,1160.3723425999633,1160.3820324999979,0,1160.3820324999979,1223.63998420001,,return,63.255179699976,None,1223.6402544999728,1223.6495211999863,1223.6495211999863,1250.6792143000057,,return,27.019681700039655,None,,,,,1,2023-12-19_12h31.38.139,watkins1,2023.2.3,99.72108012789805,70,2023-12-19 12h31.48.696444 +0000,
,,,,,,,,,,,,,,,,,,,,,,,23,0,23,0,1251.1809199000127,,,,,,,,,,1278.9359089999925,1279.42553399998,,,,27.752314499986824,,,,,,,,,,,,None,None,,,,,,,,,,Lampe,,,cuedRecallAdj,1,,,,,,,,,,,,,,,,,,,,,,,,,,,,,,,,,,,,,,,,,,,,,,,,,,,,,1251.1712135999696,1251.1809199000127,0,1251.1809199000127,1278.9339766000048,,return,27.752314499986824,None,1278.934233899985,1278.9436557000154,1278.9436557000154,1278.9358095999924,,None,,,,,,,1,2023-12-19_12h31.38.139,watkins1,2023.2.3,99.72108012789805,70,2023-12-19 12h31.48.696444 +0000,
,,,,,,,,,,,,,,,,,,,,,,,24,0,24,0,1279.4355925999698,,,,,,,,,,1287.953232400003,1288.4520214999793,,,,8.50570110004628,,,,,,,,,,,,None,None,,,,,,,,,,Würfel,,,cuedRecallAdj,1,,,,,,,,,,,,,,,,,,,,,,,,,,,,,,,,,,,,,,,,,,,,,,,,,,,,,1279.4257804999943,1279.4355925999698,0,1279.4355925999698,1287.950235299999,breit,return,8.50570110004628,None,1287.9505049000145,1287.9599469999666,1287.9599469999666,1287.9531313999905,,None,,,,,,,1,2023-12-19_12h31.38.139,watkins1,2023.2.3,99.72108012789805,70,2023-12-19 12h31.48.696444 +0000,
,,,,,,,,,,,,,,,,,,,,,,,25,0,25,0,1288.4619456999935,,,,,,,,,,1296.6989610000164,1297.1974745999905,,,,8.23124850000022,,,,,,,,,,,,None,None,,,,,,,,,,Socke,,,cuedRecallAdj,1,,,,,,,,,,,,,,,,,,,,,,,,,,,,,,,,,,,,,,,,,,,,,,,,,,,,,1288.4522662999807,1288.4619456999935,0,1288.4619456999935,1296.6959627000033,hübsch,return,8.23124850000022,None,1296.69623219996,1296.7054587999592,1296.7054587999592,1296.6988603000063,,None,,,,,,,1,2023-12-19_12h31.38.139,watkins1,2023.2.3,99.72108012789805,70,2023-12-19 12h31.48.696444 +0000,
,,,,,,,,,,,,,,,,,,,,,,,26,0,26,0,1297.2073678000015,,,,,,,,,,1310.8768719999935,1311.3754424999934,,,,13.661873499979265,,,,,,,,,,,,None,None,,,,,,,,,,Bürste,,,cuedRecallAdj,1,,,,,,,,,,,,,,,,,,,,,,,,,,,,,,,,,,,,,,,,,,,,,,,,,,,,,1297.1977222000132,1297.2073678000015,0,1297.2073678000015,1310.8736961999675,dreckig,return,13.661873499979265,None,1310.8739597999956,1310.8832801000099,1310.8832801000099,1310.8767720999895,,None,,,,,,,1,2023-12-19_12h31.38.139,watkins1,2023.2.3,99.72108012789805,70,2023-12-19 12h31.48.696444 +0000,
,,,,,,,,,,,,,,,,,,,,,,,27,0,27,0,1311.38538599998,,,,,,,,,,1315.6260157999932,1316.1244665000122,,,,4.235811299993657,,,,,,,,,,,,None,None,,,,,,,,,,Löffel,,,cuedRecallAdj,1,,,,,,,,,,,,,,,,,,,,,,,,,,,,,,,,,,,,,,,,,,,,,,,,,,,,,1311.3756876999978,1311.38538599998,0,1311.38538599998,1315.6227683000034,hässlich,return,4.235811299993657,None,1315.6230523000122,1315.6323495999677,1315.6323495999677,1315.6259073999827,,None,,,,,,,1,2023-12-19_12h31.38.139,watkins1,2023.2.3,99.72108012789805,70,2023-12-19 12h31.48.696444 +0000,
,,,,,,,,,,,,,,,,,,,,,,,28,0,28,0,1316.134371299995,,,,,,,,,,1322.7115166999865,1323.2030891999602,,,,4.166958699992392,,,,,,,,,,,,2.408247300016228,None,,,,,,,,,,Kerze,,,cuedRecallAdj,1,,,,,,,,,,,,,,,,,,,,,,,,,,,,,,,,,,,,,,,,,,,,,,,,,,,,,1316.1247162999935,1316.134371299995,0,1316.134371299995,1320.302247899992,gepunktet,return,4.166958699992392,None,1320.3025118999649,1320.3113825999899,1320.3113825999899,1322.7112471999717,,return,2.397787599998992,None,,,,,1,2023-12-19_12h31.38.139,watkins1,2023.2.3,99.72108012789805,70,2023-12-19 12h31.48.696444 +0000,
,,,,,,,,,,,,,,,,,,,,,,,29,0,29,0,1323.2130391999963,,,,,,,,,,1328.5881744999788,1329.0866274000145,,,,5.368283700023312,,,,,,,,,,,,None,None,,,,,,,,,,Jacke,,,cuedRecallAdj,1,,,,,,,,,,,,,,,,,,,,,,,,,,,,,,,,,,,,,,,,,,,,,,,,,,,,,1323.2033359999768,1323.2130391999963,0,1323.2130391999963,1328.585170699982,robust,return,5.368283700023312,None,1328.5854345000116,1328.5947182999807,1328.5947182999807,1328.5880739999702,,None,,,,,,,1,2023-12-19_12h31.38.139,watkins1,2023.2.3,99.72108012789805,70,2023-12-19 12h31.48.696444 +0000,
,,,,,,,,,,,,,,,,,,,,,,,,,,,,,,,,,,,,,,,,,,,,,,,,,,,,,,,,,,,,,,,,,,,,,1,,,,,,,,,,,,,,,,,,,,,,,,,,,,,,,,,,,,,,,,,,,,,,,,,,,,,,,,,,,,,,,,,,,,,,1329.1034282000037,q,2468.198072900006,None,1,2023-12-19_12h31.38.139,watkins1,2023.2.3,99.72108012789805,70,2023-12-19 12h31.48.696444 +0000,
