Equation,CorrectResponse,Correctbutton,trials_7.thisRepN,trials_7.thisTrialN,trials_7.thisN,trials_7.thisIndex,trials.thisRepN,trials.thisTrialN,trials.thisN,trials.thisIndex,trials_3.thisRepN,trials_3.thisTrialN,trials_3.thisN,trials_3.thisIndex,trials_2.thisRepN,trials_2.thisTrialN,trials_2.thisN,trials_2.thisIndex,trials_4.thisRepN,trials_4.thisTrialN,trials_4.thisN,trials_4.thisIndex,trials_5.thisRepN,trials_5.thisTrialN,trials_5.thisN,trials_5.thisIndex,thisRow.t,notes,list_sub_restudy,list_sub_testsub,code_marius.started,code_marius.stopped,welcome.started,welcome.stopped,instruction_study.started,instruction_study.stopped,fixationcross.started,fixationcross.stopped,blanc.started,blanc.stopped,study_control_probe.started,study_control_probe.stopped,responseKey,responseTime,scale_answer_2.keys,study_control_probe_2.started,study_control_probe_2.stopped,scale_answer_3.keys,scale_answer_3.rt,scale_answer_3.duration,blanc_2.started,blanc_2.stopped,test_attr_probe.started,test_attr_probe.stopped,recalled_attr,firstKeyTime,secondWordTime,blanc_3.started,blanc_3.stopped,test_sub_probe.started,test_sub_probe.stopped,recalled_sub,instruction_probe_end.started,instruction_probe_end.stopped,study.started,study.stopped,substantive,adjective,wordpair,task,condition,liste_sub_phase1,liste_adj_phase1,scale_answer.keys,scale_answer.rt,scale_answer.duration,code_defineWordsInit.started,code_defineWordsInit.stopped,liste_sub_phase2,study_control.started,study_control.stopped,scale_answer_4.keys,restudy_same.started,restudy_same.stopped,scale_answer_5.keys,scale_answer_5.rt,scale_answer_5.duration,restudy_different.started,restudy_different.stopped,scale_answer_6.keys,test_attr.started,test_attr.stopped,test_sub.started,test_sub.stopped,correct,distractortask.started,equation_text.started,distractortask.stopped,mouse_answer.x,mouse_answer.y,mouse_answer.leftButton,mouse_answer.midButton,mouse_answer.rightButton,mouse_answer.time,mouse_answer.clicked_name,feedback_distractortask.started,feedback_distractortask.stopped,free_recall.started,text_enter.started,key_resp.started,free_recall.stopped,key_resp.keys,key_resp.rt,key_resp.duration,free_recalled_sub,mouse_continue.x,mouse_continue.y,mouse_continue.leftButton,mouse_continue.midButton,mouse_continue.rightButton,mouse_continue.time,mouse_continue.clicked_name,cued_recall.started,text_enter_2.started,key_continue.started,cued_recall.stopped,recalled_attr1,key_continue.keys,key_continue.rt,key_continue.duration,cued_recall_2.started,text_enter_3.started,key_continue_2.started,cued_recall_2.stopped,recalled_attr2,key_continue_2.keys,key_resp_8.started,key_resp_8.keys,key_resp_8.rt,key_resp_8.duration,condition,date,expName,psychopyVersion,frameRate,participant,expStart,
,,,,,,,,,,,,,,,,,,,,,,,,,,,,,"['Schlüssel', 'Kerze', 'Rucksack', 'Lampe', 'Schere', 'Eimer', 'Socke', 'Brille', 'Geige', 'Blume', 'Bürste', 'Buch', 'Stift', 'Trommel', 'Kamera']","['Fahrrad', 'Flasche', 'Kette', 'Tasche', 'Hut', 'Jacke', 'Tasse', 'Kiste', 'Hammer', 'Ring', 'Löffel', 'Vase', 'Telefon', 'Würfel', 'Uhr']",0.11397770000621676,0.11404630006290972,0.1140542000066489,22.252167100086808,,,,,,,,,,,,,,,,,,,,,,,,,,,,,,,,,,,,,2,,,,,,,,,,,,,,,,,,,,,,,,,,,,,,,,,,,,,,,,,,,,,,,,,,,,,,,,,,,,,,,,,,,,,,2,2023-12-06_13h58.49.290,watkins1,2023.2.3,99.74942952239807,50,2023-12-06 13h58.58.461084 +0000,
,,,,,,,,,,,,,,,,,,,,,,,,,,,,,,,,,,,22.25221549998969,66.571521300124,,,,,,,,,,,,,,,,,,,,,,,,,,,,,,,,,,,2,,,,,,,,,,,,,,,,,,,,,,,,,,,,,,,,,,,,,,,,,,,,,,,,,,,,,,,,,,,,,,,,,,,,,,2,2023-12-06_13h58.49.290,watkins1,2023.2.3,99.74942952239807,50,2023-12-06 13h58.58.461084 +0000,
,,,0,0,0,0,,,,,,,,,,,,,,,,,,,,,67.58382720011286,,,,,,,,,,66.57153800013475,67.57390550011769,74.07326370012015,74.56463819998316,68.06586749991402,74.07309860014357,1,1.714314900105819,None,74.56464860006236,80.57136719999835,1,1.714314900105819,None,80.57166550005786,80.57168980012648,80.5716967000626,80.57177509996109,,2.881776699796319,None,80.57193879992701,81.06281389994547,81.06282559991814,87.06745290011168,Hund,,,,,,,,,2,,,,,,,,,,,,,,,,,,,,,,,,,,,,,,,,,,,,,,,,,,,,,,,,,,,,,,,,,,,,,,,,,,,,,,2,2023-12-06_13h58.49.290,watkins1,2023.2.3,99.74942952239807,50,2023-12-06 13h58.58.461084 +0000,
,,,,,,,,,,,,,,,,,,,,,,,,,,,,,,,,,,,,,,,,,,,,,,,,,,,,,,,,,,,,,,,87.0676148000639,90.190687000053,,,,,,,2,,,,,,,,,,,,,,,,,,,,,,,,,,,,,,,,,,,,,,,,,,,,,,,,,,,,,,,,,,,,,,,,,,,,,,2,2023-12-06_13h58.49.290,watkins1,2023.2.3,99.74942952239807,50,2023-12-06 13h58.58.461084 +0000,
,,,,,,,0,0,0,0,,,,,,,,,,,,,,,,,91.20412270002998,,,,,,,,,,90.19070279994048,91.19423189992085,91.19470959994942,91.68624219996855,,,1,3.540228100027889,,,,,,,,,,,,,,,,,,,,,91.68625220004469,97.69123540003784,Lampe,schlicht,"['Lampe', 'schlicht']",restudy,2,"['Lampe', 'Hut', 'Flasche', 'Tasse', 'Schere', 'Buch', 'Bürste', 'Rucksack', 'Kette', 'Löffel', 'Ring', 'Schlüssel', 'Kerze', 'Eimer', 'Trommel', 'Blume', 'Würfel', 'Vase', 'Telefon', 'Tasche', 'Kiste', 'Geige', 'Socke', 'Stift', 'Kamera', 'Hammer', 'Jacke', 'Uhr', 'Fahrrad', 'Brille']",['schlicht'],1,3.540228100027889,None,,,,,,,,,,,,,,,,,,,,,,,,,,,,,,,,,,,,,,,,,,,,,,,,,,,,,,,,,,,,,,,,,2,2023-12-06_13h58.49.290,watkins1,2023.2.3,99.74942952239807,50,2023-12-06 13h58.58.461084 +0000,
,,,,,,,1,0,1,0,,,,,,,,,,,,,,,,,97.70065689994954,,,,,,,,,,,,97.69189879996702,98.18246980011463,,,1,3.0780410000588745,,,,,,,,,,,,,,,,,,,,,98.18248039996251,104.1832533001434,Hut,gepunktet,"['Hut', 'gepunktet']",test_sub,2,"['Lampe', 'Hut', 'Flasche', 'Tasse', 'Schere', 'Buch', 'Bürste', 'Rucksack', 'Kette', 'Löffel', 'Ring', 'Schlüssel', 'Kerze', 'Eimer', 'Trommel', 'Blume', 'Würfel', 'Vase', 'Telefon', 'Tasche', 'Kiste', 'Geige', 'Socke', 'Stift', 'Kamera', 'Hammer', 'Jacke', 'Uhr', 'Fahrrad', 'Brille']","['schlicht', 'gepunktet']",1,3.0780410000588745,None,,,,,,,,,,,,,,,,,,,,,,,,,,,,,,,,,,,,,,,,,,,,,,,,,,,,,,,,,,,,,,,,,2,2023-12-06_13h58.49.290,watkins1,2023.2.3,99.74942952239807,50,2023-12-06 13h58.58.461084 +0000,
,,,,,,,2,0,2,0,,,,,,,,,,,,,,,,,104.19268839992583,,,,,,,,,,,,104.18378360010684,104.67471510008909,,,2,2.8582911000121385,,,,,,,,,,,,,,,,,,,,,104.67472460004501,110.68443399993703,Flasche,dunkel,"['Flasche', 'dunkel']",test_sub,2,"['Lampe', 'Hut', 'Flasche', 'Tasse', 'Schere', 'Buch', 'Bürste', 'Rucksack', 'Kette', 'Löffel', 'Ring', 'Schlüssel', 'Kerze', 'Eimer', 'Trommel', 'Blume', 'Würfel', 'Vase', 'Telefon', 'Tasche', 'Kiste', 'Geige', 'Socke', 'Stift', 'Kamera', 'Hammer', 'Jacke', 'Uhr', 'Fahrrad', 'Brille']","['schlicht', 'gepunktet', 'dunkel']",2,2.8582911000121385,None,,,,,,,,,,,,,,,,,,,,,,,,,,,,,,,,,,,,,,,,,,,,,,,,,,,,,,,,,,,,,,,,,2,2023-12-06_13h58.49.290,watkins1,2023.2.3,99.74942952239807,50,2023-12-06 13h58.58.461084 +0000,
,,,,,,,3,0,3,0,,,,,,,,,,,,,,,,,110.69387500011362,,,,,,,,,,,,110.68495919997804,111.17590290005319,,,2,2.7481201998889446,,,,,,,,,,,,,,,,,,,,,111.1759132000152,117.17729280004278,Tasse,glänzend,"['Tasse', 'glänzend']",test_sub,2,"['Lampe', 'Hut', 'Flasche', 'Tasse', 'Schere', 'Buch', 'Bürste', 'Rucksack', 'Kette', 'Löffel', 'Ring', 'Schlüssel', 'Kerze', 'Eimer', 'Trommel', 'Blume', 'Würfel', 'Vase', 'Telefon', 'Tasche', 'Kiste', 'Geige', 'Socke', 'Stift', 'Kamera', 'Hammer', 'Jacke', 'Uhr', 'Fahrrad', 'Brille']","['schlicht', 'gepunktet', 'dunkel', 'glänzend']",2,2.7481201998889446,None,,,,,,,,,,,,,,,,,,,,,,,,,,,,,,,,,,,,,,,,,,,,,,,,,,,,,,,,,,,,,,,,,2,2023-12-06_13h58.49.290,watkins1,2023.2.3,99.74942952239807,50,2023-12-06 13h58.58.461084 +0000,
,,,,,,,4,0,4,0,,,,,,,,,,,,,,,,,117.18678400013596,,,,,,,,,,,,117.17782330000773,117.6687253001146,,,3,2.1688773999921978,,,,,,,,,,,,,,,,,,,,,117.6687354000751,123.67813690006733,Schere,lang,"['Schere', 'lang']",restudy,2,"['Lampe', 'Hut', 'Flasche', 'Tasse', 'Schere', 'Buch', 'Bürste', 'Rucksack', 'Kette', 'Löffel', 'Ring', 'Schlüssel', 'Kerze', 'Eimer', 'Trommel', 'Blume', 'Würfel', 'Vase', 'Telefon', 'Tasche', 'Kiste', 'Geige', 'Socke', 'Stift', 'Kamera', 'Hammer', 'Jacke', 'Uhr', 'Fahrrad', 'Brille']","['schlicht', 'gepunktet', 'dunkel', 'glänzend', 'lang']",3,2.1688773999921978,None,,,,,,,,,,,,,,,,,,,,,,,,,,,,,,,,,,,,,,,,,,,,,,,,,,,,,,,,,,,,,,,,,2,2023-12-06_13h58.49.290,watkins1,2023.2.3,99.74942952239807,50,2023-12-06 13h58.58.461084 +0000,
,,,,,,,5,0,5,0,,,,,,,,,,,,,,,,,123.6877083000727,,,,,,,,,,,,123.67866869992577,124.16974289994687,,,1,1.9232573001645505,,,,,,,,,,,,,,,,,,,,,124.16975330002606,130.17162350006402,Buch,nass,"['Buch', 'nass']",restudy,2,"['Lampe', 'Hut', 'Flasche', 'Tasse', 'Schere', 'Buch', 'Bürste', 'Rucksack', 'Kette', 'Löffel', 'Ring', 'Schlüssel', 'Kerze', 'Eimer', 'Trommel', 'Blume', 'Würfel', 'Vase', 'Telefon', 'Tasche', 'Kiste', 'Geige', 'Socke', 'Stift', 'Kamera', 'Hammer', 'Jacke', 'Uhr', 'Fahrrad', 'Brille']","['schlicht', 'gepunktet', 'dunkel', 'glänzend', 'lang', 'nass']",1,1.9232573001645505,None,,,,,,,,,,,,,,,,,,,,,,,,,,,,,,,,,,,,,,,,,,,,,,,,,,,,,,,,,,,,,,,,,2,2023-12-06_13h58.49.290,watkins1,2023.2.3,99.74942952239807,50,2023-12-06 13h58.58.461084 +0000,
,,,,,,,6,0,6,0,,,,,,,,,,,,,,,,,130.1810554000549,,,,,,,,,,,,130.17215560004115,130.663192700129,,,3,2.669259199872613,,,,,,,,,,,,,,,,,,,,,130.6632024999708,136.6639209999703,Bürste,flach,"['Bürste', 'flach']",restudy,2,"['Lampe', 'Hut', 'Flasche', 'Tasse', 'Schere', 'Buch', 'Bürste', 'Rucksack', 'Kette', 'Löffel', 'Ring', 'Schlüssel', 'Kerze', 'Eimer', 'Trommel', 'Blume', 'Würfel', 'Vase', 'Telefon', 'Tasche', 'Kiste', 'Geige', 'Socke', 'Stift', 'Kamera', 'Hammer', 'Jacke', 'Uhr', 'Fahrrad', 'Brille']","['schlicht', 'gepunktet', 'dunkel', 'glänzend', 'lang', 'nass', 'flach']",3,2.669259199872613,None,,,,,,,,,,,,,,,,,,,,,,,,,,,,,,,,,,,,,,,,,,,,,,,,,,,,,,,,,,,,,,,,,2,2023-12-06_13h58.49.290,watkins1,2023.2.3,99.74942952239807,50,2023-12-06 13h58.58.461084 +0000,
,,,,,,,7,0,7,0,,,,,,,,,,,,,,,,,136.673383400077,,,,,,,,,,,,136.66444900003262,137.15527569991536,,,1,1.3132502001244575,,,,,,,,,,,,,,,,,,,,,137.15528589999303,143.16218760004267,Rucksack,kratzig,"['Rucksack', 'kratzig']",restudy,2,"['Lampe', 'Hut', 'Flasche', 'Tasse', 'Schere', 'Buch', 'Bürste', 'Rucksack', 'Kette', 'Löffel', 'Ring', 'Schlüssel', 'Kerze', 'Eimer', 'Trommel', 'Blume', 'Würfel', 'Vase', 'Telefon', 'Tasche', 'Kiste', 'Geige', 'Socke', 'Stift', 'Kamera', 'Hammer', 'Jacke', 'Uhr', 'Fahrrad', 'Brille']","['schlicht', 'gepunktet', 'dunkel', 'glänzend', 'lang', 'nass', 'flach', 'kratzig']",1,1.3132502001244575,None,,,,,,,,,,,,,,,,,,,,,,,,,,,,,,,,,,,,,,,,,,,,,,,,,,,,,,,,,,,,,,,,,2,2023-12-06_13h58.49.290,watkins1,2023.2.3,99.74942952239807,50,2023-12-06 13h58.58.461084 +0000,
,,,,,,,8,0,8,0,,,,,,,,,,,,,,,,,143.17162890010513,,,,,,,,,,,,143.16271389997564,143.65360840014182,,,1,2.647160500055179,,,,,,,,,,,,,,,,,,,,,143.65361839998513,149.6592864000704,Kette,schmutzig,"['Kette', 'schmutzig']",test_sub,2,"['Lampe', 'Hut', 'Flasche', 'Tasse', 'Schere', 'Buch', 'Bürste', 'Rucksack', 'Kette', 'Löffel', 'Ring', 'Schlüssel', 'Kerze', 'Eimer', 'Trommel', 'Blume', 'Würfel', 'Vase', 'Telefon', 'Tasche', 'Kiste', 'Geige', 'Socke', 'Stift', 'Kamera', 'Hammer', 'Jacke', 'Uhr', 'Fahrrad', 'Brille']","['schlicht', 'gepunktet', 'dunkel', 'glänzend', 'lang', 'nass', 'flach', 'kratzig', 'schmutzig']",1,2.647160500055179,None,,,,,,,,,,,,,,,,,,,,,,,,,,,,,,,,,,,,,,,,,,,,,,,,,,,,,,,,,,,,,,,,,2,2023-12-06_13h58.49.290,watkins1,2023.2.3,99.74942952239807,50,2023-12-06 13h58.58.461084 +0000,
,,,,,,,9,0,9,0,,,,,,,,,,,,,,,,,149.66886200010777,,,,,,,,,,,,149.65981899993494,150.1508059001062,,,2,2.4777465001679957,,,,,,,,,,,,,,,,,,,,,150.1508160000667,156.1533308001235,Löffel,neu,"['Löffel', 'neu']",test_sub,2,"['Lampe', 'Hut', 'Flasche', 'Tasse', 'Schere', 'Buch', 'Bürste', 'Rucksack', 'Kette', 'Löffel', 'Ring', 'Schlüssel', 'Kerze', 'Eimer', 'Trommel', 'Blume', 'Würfel', 'Vase', 'Telefon', 'Tasche', 'Kiste', 'Geige', 'Socke', 'Stift', 'Kamera', 'Hammer', 'Jacke', 'Uhr', 'Fahrrad', 'Brille']","['schlicht', 'gepunktet', 'dunkel', 'glänzend', 'lang', 'nass', 'flach', 'kratzig', 'schmutzig', 'neu']",2,2.4777465001679957,None,,,,,,,,,,,,,,,,,,,,,,,,,,,,,,,,,,,,,,,,,,,,,,,,,,,,,,,,,,,,,,,,,2,2023-12-06_13h58.49.290,watkins1,2023.2.3,99.74942952239807,50,2023-12-06 13h58.58.461084 +0000,
,,,,,,,10,0,10,0,,,,,,,,,,,,,,,,,156.16290360013954,,,,,,,,,,,,156.15385759994388,156.6449448999483,,,3,1.3365708000492305,,,,,,,,,,,,,,,,,,,,,156.6449545000214,162.64695640001446,Ring,teuer,"['Ring', 'teuer']",test_sub,2,"['Lampe', 'Hut', 'Flasche', 'Tasse', 'Schere', 'Buch', 'Bürste', 'Rucksack', 'Kette', 'Löffel', 'Ring', 'Schlüssel', 'Kerze', 'Eimer', 'Trommel', 'Blume', 'Würfel', 'Vase', 'Telefon', 'Tasche', 'Kiste', 'Geige', 'Socke', 'Stift', 'Kamera', 'Hammer', 'Jacke', 'Uhr', 'Fahrrad', 'Brille']","['schlicht', 'gepunktet', 'dunkel', 'glänzend', 'lang', 'nass', 'flach', 'kratzig', 'schmutzig', 'neu', 'teuer']",3,1.3365708000492305,None,,,,,,,,,,,,,,,,,,,,,,,,,,,,,,,,,,,,,,,,,,,,,,,,,,,,,,,,,,,,,,,,,2,2023-12-06_13h58.49.290,watkins1,2023.2.3,99.74942952239807,50,2023-12-06 13h58.58.461084 +0000,
,,,,,,,11,0,11,0,,,,,,,,,,,,,,,,,162.6564309000969,,,,,,,,,,,,162.647483299952,163.13843200006522,,,2,2.6106522001791745,,,,,,,,,,,,,,,,,,,,,163.1384424001444,169.1407528000418,Schlüssel,bunt,"['Schlüssel', 'bunt']",restudy,2,"['Lampe', 'Hut', 'Flasche', 'Tasse', 'Schere', 'Buch', 'Bürste', 'Rucksack', 'Kette', 'Löffel', 'Ring', 'Schlüssel', 'Kerze', 'Eimer', 'Trommel', 'Blume', 'Würfel', 'Vase', 'Telefon', 'Tasche', 'Kiste', 'Geige', 'Socke', 'Stift', 'Kamera', 'Hammer', 'Jacke', 'Uhr', 'Fahrrad', 'Brille']","['schlicht', 'gepunktet', 'dunkel', 'glänzend', 'lang', 'nass', 'flach', 'kratzig', 'schmutzig', 'neu', 'teuer', 'bunt']",2,2.6106522001791745,None,,,,,,,,,,,,,,,,,,,,,,,,,,,,,,,,,,,,,,,,,,,,,,,,,,,,,,,,,,,,,,,,,2,2023-12-06_13h58.49.290,watkins1,2023.2.3,99.74942952239807,50,2023-12-06 13h58.58.461084 +0000,
,,,,,,,12,0,12,0,,,,,,,,,,,,,,,,,169.150236699963,,,,,,,,,,,,169.1412885999307,169.63219469995238,,,1,1.5888933001551777,,,,,,,,,,,,,,,,,,,,,169.63220440014265,175.64251230005175,Kerze,schwer,"['Kerze', 'schwer']",restudy,2,"['Lampe', 'Hut', 'Flasche', 'Tasse', 'Schere', 'Buch', 'Bürste', 'Rucksack', 'Kette', 'Löffel', 'Ring', 'Schlüssel', 'Kerze', 'Eimer', 'Trommel', 'Blume', 'Würfel', 'Vase', 'Telefon', 'Tasche', 'Kiste', 'Geige', 'Socke', 'Stift', 'Kamera', 'Hammer', 'Jacke', 'Uhr', 'Fahrrad', 'Brille']","['schlicht', 'gepunktet', 'dunkel', 'glänzend', 'lang', 'nass', 'flach', 'kratzig', 'schmutzig', 'neu', 'teuer', 'bunt', 'schwer']",1,1.5888933001551777,None,,,,,,,,,,,,,,,,,,,,,,,,,,,,,,,,,,,,,,,,,,,,,,,,,,,,,,,,,,,,,,,,,2,2023-12-06_13h58.49.290,watkins1,2023.2.3,99.74942952239807,50,2023-12-06 13h58.58.461084 +0000,
,,,,,,,13,0,13,0,,,,,,,,,,,,,,,,,175.65199659997597,,,,,,,,,,,,175.64304740005173,176.13394329999574,,,3,1.6308949999511242,,,,,,,,,,,,,,,,,,,,,176.13395390007645,182.1358656999655,Eimer,robust,"['Eimer', 'robust']",restudy,2,"['Lampe', 'Hut', 'Flasche', 'Tasse', 'Schere', 'Buch', 'Bürste', 'Rucksack', 'Kette', 'Löffel', 'Ring', 'Schlüssel', 'Kerze', 'Eimer', 'Trommel', 'Blume', 'Würfel', 'Vase', 'Telefon', 'Tasche', 'Kiste', 'Geige', 'Socke', 'Stift', 'Kamera', 'Hammer', 'Jacke', 'Uhr', 'Fahrrad', 'Brille']","['schlicht', 'gepunktet', 'dunkel', 'glänzend', 'lang', 'nass', 'flach', 'kratzig', 'schmutzig', 'neu', 'teuer', 'bunt', 'schwer', 'robust']",3,1.6308949999511242,None,,,,,,,,,,,,,,,,,,,,,,,,,,,,,,,,,,,,,,,,,,,,,,,,,,,,,,,,,,,,,,,,,2,2023-12-06_13h58.49.290,watkins1,2023.2.3,99.74942952239807,50,2023-12-06 13h58.58.461084 +0000,
,,,,,,,14,0,14,0,,,,,,,,,,,,,,,,,182.14530179998837,,,,,,,,,,,,182.13640090008266,182.62727569998242,,,2,2.5060345998499542,,,,,,,,,,,,,,,,,,,,,182.62728630006313,188.63600319996476,Trommel,klobig,"['Trommel', 'klobig']",restudy,2,"['Lampe', 'Hut', 'Flasche', 'Tasse', 'Schere', 'Buch', 'Bürste', 'Rucksack', 'Kette', 'Löffel', 'Ring', 'Schlüssel', 'Kerze', 'Eimer', 'Trommel', 'Blume', 'Würfel', 'Vase', 'Telefon', 'Tasche', 'Kiste', 'Geige', 'Socke', 'Stift', 'Kamera', 'Hammer', 'Jacke', 'Uhr', 'Fahrrad', 'Brille']","['schlicht', 'gepunktet', 'dunkel', 'glänzend', 'lang', 'nass', 'flach', 'kratzig', 'schmutzig', 'neu', 'teuer', 'bunt', 'schwer', 'robust', 'klobig']",2,2.5060345998499542,None,,,,,,,,,,,,,,,,,,,,,,,,,,,,,,,,,,,,,,,,,,,,,,,,,,,,,,,,,,,,,,,,,2,2023-12-06_13h58.49.290,watkins1,2023.2.3,99.74942952239807,50,2023-12-06 13h58.58.461084 +0000,
,,,,,,,15,0,15,0,,,,,,,,,,,,,,,,,188.6455804000143,,,,,,,,,,,,188.63653320004232,189.1275387001224,,,1,2.12593559990637,,,,,,,,,,,,,,,,,,,,,189.12754889996722,195.13586100004613,Blume,krumm,"['Blume', 'krumm']",restudy,2,"['Lampe', 'Hut', 'Flasche', 'Tasse', 'Schere', 'Buch', 'Bürste', 'Rucksack', 'Kette', 'Löffel', 'Ring', 'Schlüssel', 'Kerze', 'Eimer', 'Trommel', 'Blume', 'Würfel', 'Vase', 'Telefon', 'Tasche', 'Kiste', 'Geige', 'Socke', 'Stift', 'Kamera', 'Hammer', 'Jacke', 'Uhr', 'Fahrrad', 'Brille']","['schlicht', 'gepunktet', 'dunkel', 'glänzend', 'lang', 'nass', 'flach', 'kratzig', 'schmutzig', 'neu', 'teuer', 'bunt', 'schwer', 'robust', 'klobig', 'krumm']",1,2.12593559990637,None,,,,,,,,,,,,,,,,,,,,,,,,,,,,,,,,,,,,,,,,,,,,,,,,,,,,,,,,,,,,,,,,,2,2023-12-06_13h58.49.290,watkins1,2023.2.3,99.74942952239807,50,2023-12-06 13h58.58.461084 +0000,
,,,,,,,16,0,16,0,,,,,,,,,,,,,,,,,195.14538979995996,,,,,,,,,,,,195.13639939995483,195.6273843999952,,,2,1.7135300999507308,,,,,,,,,,,,,,,,,,,,,195.62739509996027,201.63252869993448,Würfel,hässlich,"['Würfel', 'hässlich']",test_sub,2,"['Lampe', 'Hut', 'Flasche', 'Tasse', 'Schere', 'Buch', 'Bürste', 'Rucksack', 'Kette', 'Löffel', 'Ring', 'Schlüssel', 'Kerze', 'Eimer', 'Trommel', 'Blume', 'Würfel', 'Vase', 'Telefon', 'Tasche', 'Kiste', 'Geige', 'Socke', 'Stift', 'Kamera', 'Hammer', 'Jacke', 'Uhr', 'Fahrrad', 'Brille']","['schlicht', 'gepunktet', 'dunkel', 'glänzend', 'lang', 'nass', 'flach', 'kratzig', 'schmutzig', 'neu', 'teuer', 'bunt', 'schwer', 'robust', 'klobig', 'krumm', 'hässlich']",2,1.7135300999507308,None,,,,,,,,,,,,,,,,,,,,,,,,,,,,,,,,,,,,,,,,,,,,,,,,,,,,,,,,,,,,,,,,,2,2023-12-06_13h58.49.290,watkins1,2023.2.3,99.74942952239807,50,2023-12-06 13h58.58.461084 +0000,
,,,,,,,17,0,17,0,,,,,,,,,,,,,,,,,201.64201320009306,,,,,,,,,,,,201.63308029994369,202.12389299995266,,,3,1.9370246001053602,,,,,,,,,,,,,,,,,,,,,202.12390329991467,208.12871880014427,Vase,sauber,"['Vase', 'sauber']",test_sub,2,"['Lampe', 'Hut', 'Flasche', 'Tasse', 'Schere', 'Buch', 'Bürste', 'Rucksack', 'Kette', 'Löffel', 'Ring', 'Schlüssel', 'Kerze', 'Eimer', 'Trommel', 'Blume', 'Würfel', 'Vase', 'Telefon', 'Tasche', 'Kiste', 'Geige', 'Socke', 'Stift', 'Kamera', 'Hammer', 'Jacke', 'Uhr', 'Fahrrad', 'Brille']","['schlicht', 'gepunktet', 'dunkel', 'glänzend', 'lang', 'nass', 'flach', 'kratzig', 'schmutzig', 'neu', 'teuer', 'bunt', 'schwer', 'robust', 'klobig', 'krumm', 'hässlich', 'sauber']",3,1.9370246001053602,None,,,,,,,,,,,,,,,,,,,,,,,,,,,,,,,,,,,,,,,,,,,,,,,,,,,,,,,,,,,,,,,,,2,2023-12-06_13h58.49.290,watkins1,2023.2.3,99.74942952239807,50,2023-12-06 13h58.58.461084 +0000,
,,,,,,,18,0,18,0,,,,,,,,,,,,,,,,,208.13825180009007,,,,,,,,,,,,208.12924670008942,208.62009340012446,,,1,1.3848279998637736,,,,,,,,,,,,,,,,,,,,,208.62010370008647,214.62454529991373,Telefon,niedlich,"['Telefon', 'niedlich']",test_sub,2,"['Lampe', 'Hut', 'Flasche', 'Tasse', 'Schere', 'Buch', 'Bürste', 'Rucksack', 'Kette', 'Löffel', 'Ring', 'Schlüssel', 'Kerze', 'Eimer', 'Trommel', 'Blume', 'Würfel', 'Vase', 'Telefon', 'Tasche', 'Kiste', 'Geige', 'Socke', 'Stift', 'Kamera', 'Hammer', 'Jacke', 'Uhr', 'Fahrrad', 'Brille']","['schlicht', 'gepunktet', 'dunkel', 'glänzend', 'lang', 'nass', 'flach', 'kratzig', 'schmutzig', 'neu', 'teuer', 'bunt', 'schwer', 'robust', 'klobig', 'krumm', 'hässlich', 'sauber', 'niedlich']",1,1.3848279998637736,None,,,,,,,,,,,,,,,,,,,,,,,,,,,,,,,,,,,,,,,,,,,,,,,,,,,,,,,,,,,,,,,,,2,2023-12-06_13h58.49.290,watkins1,2023.2.3,99.74942952239807,50,2023-12-06 13h58.58.461084 +0000,
,,,,,,,19,0,19,0,,,,,,,,,,,,,,,,,214.63397480011918,,,,,,,,,,,,214.62507860013284,215.11601529992186,,,1,1.809431599918753,,,,,,,,,,,,,,,,,,,,,215.11602540011518,221.12451080000028,Tasche,blass,"['Tasche', 'blass']",test_sub,2,"['Lampe', 'Hut', 'Flasche', 'Tasse', 'Schere', 'Buch', 'Bürste', 'Rucksack', 'Kette', 'Löffel', 'Ring', 'Schlüssel', 'Kerze', 'Eimer', 'Trommel', 'Blume', 'Würfel', 'Vase', 'Telefon', 'Tasche', 'Kiste', 'Geige', 'Socke', 'Stift', 'Kamera', 'Hammer', 'Jacke', 'Uhr', 'Fahrrad', 'Brille']","['schlicht', 'gepunktet', 'dunkel', 'glänzend', 'lang', 'nass', 'flach', 'kratzig', 'schmutzig', 'neu', 'teuer', 'bunt', 'schwer', 'robust', 'klobig', 'krumm', 'hässlich', 'sauber', 'niedlich', 'blass']",1,1.809431599918753,None,,,,,,,,,,,,,,,,,,,,,,,,,,,,,,,,,,,,,,,,,,,,,,,,,,,,,,,,,,,,,,,,,2,2023-12-06_13h58.49.290,watkins1,2023.2.3,99.74942952239807,50,2023-12-06 13h58.58.461084 +0000,
,,,,,,,20,0,20,0,,,,,,,,,,,,,,,,,221.13398630009033,,,,,,,,,,,,221.12503589992411,221.61579890013672,,,1,1.381616699974984,,,,,,,,,,,,,,,,,,,,,221.61580909998156,227.6246629001107,Kiste,zart,"['Kiste', 'zart']",test_sub,2,"['Lampe', 'Hut', 'Flasche', 'Tasse', 'Schere', 'Buch', 'Bürste', 'Rucksack', 'Kette', 'Löffel', 'Ring', 'Schlüssel', 'Kerze', 'Eimer', 'Trommel', 'Blume', 'Würfel', 'Vase', 'Telefon', 'Tasche', 'Kiste', 'Geige', 'Socke', 'Stift', 'Kamera', 'Hammer', 'Jacke', 'Uhr', 'Fahrrad', 'Brille']","['schlicht', 'gepunktet', 'dunkel', 'glänzend', 'lang', 'nass', 'flach', 'kratzig', 'schmutzig', 'neu', 'teuer', 'bunt', 'schwer', 'robust', 'klobig', 'krumm', 'hässlich', 'sauber', 'niedlich', 'blass', 'zart']",1,1.381616699974984,None,,,,,,,,,,,,,,,,,,,,,,,,,,,,,,,,,,,,,,,,,,,,,,,,,,,,,,,,,,,,,,,,,2,2023-12-06_13h58.49.290,watkins1,2023.2.3,99.74942952239807,50,2023-12-06 13h58.58.461084 +0000,
,,,,,,,21,0,21,0,,,,,,,,,,,,,,,,,227.63414390012622,,,,,,,,,,,,227.62519349996,228.11602289997973,,,2,2.7923872999381274,,,,,,,,,,,,,,,,,,,,,228.116034100065,234.118986699963,Geige,nachhaltig,"['Geige', 'nachhaltig']",restudy,2,"['Lampe', 'Hut', 'Flasche', 'Tasse', 'Schere', 'Buch', 'Bürste', 'Rucksack', 'Kette', 'Löffel', 'Ring', 'Schlüssel', 'Kerze', 'Eimer', 'Trommel', 'Blume', 'Würfel', 'Vase', 'Telefon', 'Tasche', 'Kiste', 'Geige', 'Socke', 'Stift', 'Kamera', 'Hammer', 'Jacke', 'Uhr', 'Fahrrad', 'Brille']","['schlicht', 'gepunktet', 'dunkel', 'glänzend', 'lang', 'nass', 'flach', 'kratzig', 'schmutzig', 'neu', 'teuer', 'bunt', 'schwer', 'robust', 'klobig', 'krumm', 'hässlich', 'sauber', 'niedlich', 'blass', 'zart', 'nachhaltig']",2,2.7923872999381274,None,,,,,,,,,,,,,,,,,,,,,,,,,,,,,,,,,,,,,,,,,,,,,,,,,,,,,,,,,,,,,,,,,2,2023-12-06_13h58.49.290,watkins1,2023.2.3,99.74942952239807,50,2023-12-06 13h58.58.461084 +0000,
,,,,,,,22,0,22,0,,,,,,,,,,,,,,,,,234.12842299998738,,,,,,,,,,,,234.11954069999047,234.6108186999336,,,2,2.170500800013542,,,,,,,,,,,,,,,,,,,,,234.61082920012996,240.61149169993587,Socke,winzig,"['Socke', 'winzig']",restudy,2,"['Lampe', 'Hut', 'Flasche', 'Tasse', 'Schere', 'Buch', 'Bürste', 'Rucksack', 'Kette', 'Löffel', 'Ring', 'Schlüssel', 'Kerze', 'Eimer', 'Trommel', 'Blume', 'Würfel', 'Vase', 'Telefon', 'Tasche', 'Kiste', 'Geige', 'Socke', 'Stift', 'Kamera', 'Hammer', 'Jacke', 'Uhr', 'Fahrrad', 'Brille']","['schlicht', 'gepunktet', 'dunkel', 'glänzend', 'lang', 'nass', 'flach', 'kratzig', 'schmutzig', 'neu', 'teuer', 'bunt', 'schwer', 'robust', 'klobig', 'krumm', 'hässlich', 'sauber', 'niedlich', 'blass', 'zart', 'nachhaltig', 'winzig']",2,2.170500800013542,None,,,,,,,,,,,,,,,,,,,,,,,,,,,,,,,,,,,,,,,,,,,,,,,,,,,,,,,,,,,,,,,,,2,2023-12-06_13h58.49.290,watkins1,2023.2.3,99.74942952239807,50,2023-12-06 13h58.58.461084 +0000,
,,,,,,,23,0,23,0,,,,,,,,,,,,,,,,,240.62096989993006,,,,,,,,,,,,240.6120275000576,241.10309739992954,,,2,1.8535128999501467,,,,,,,,,,,,,,,,,,,,,241.10310820001177,247.1047644999344,Stift,verspielt,"['Stift', 'verspielt']",restudy,2,"['Lampe', 'Hut', 'Flasche', 'Tasse', 'Schere', 'Buch', 'Bürste', 'Rucksack', 'Kette', 'Löffel', 'Ring', 'Schlüssel', 'Kerze', 'Eimer', 'Trommel', 'Blume', 'Würfel', 'Vase', 'Telefon', 'Tasche', 'Kiste', 'Geige', 'Socke', 'Stift', 'Kamera', 'Hammer', 'Jacke', 'Uhr', 'Fahrrad', 'Brille']","['schlicht', 'gepunktet', 'dunkel', 'glänzend', 'lang', 'nass', 'flach', 'kratzig', 'schmutzig', 'neu', 'teuer', 'bunt', 'schwer', 'robust', 'klobig', 'krumm', 'hässlich', 'sauber', 'niedlich', 'blass', 'zart', 'nachhaltig', 'winzig', 'verspielt']",2,1.8535128999501467,None,,,,,,,,,,,,,,,,,,,,,,,,,,,,,,,,,,,,,,,,,,,,,,,,,,,,,,,,,,,,,,,,,2,2023-12-06_13h58.49.290,watkins1,2023.2.3,99.74942952239807,50,2023-12-06 13h58.58.461084 +0000,
,,,,,,,24,0,24,0,,,,,,,,,,,,,,,,,247.11433569993824,,,,,,,,,,,,247.1053015999496,247.59627249999903,,,1,1.2967077000066638,,,,,,,,,,,,,,,,,,,,,247.59628290007822,253.5979661999736,Kamera,durchsichtig,"['Kamera', 'durchsichtig']",restudy,2,"['Lampe', 'Hut', 'Flasche', 'Tasse', 'Schere', 'Buch', 'Bürste', 'Rucksack', 'Kette', 'Löffel', 'Ring', 'Schlüssel', 'Kerze', 'Eimer', 'Trommel', 'Blume', 'Würfel', 'Vase', 'Telefon', 'Tasche', 'Kiste', 'Geige', 'Socke', 'Stift', 'Kamera', 'Hammer', 'Jacke', 'Uhr', 'Fahrrad', 'Brille']","['schlicht', 'gepunktet', 'dunkel', 'glänzend', 'lang', 'nass', 'flach', 'kratzig', 'schmutzig', 'neu', 'teuer', 'bunt', 'schwer', 'robust', 'klobig', 'krumm', 'hässlich', 'sauber', 'niedlich', 'blass', 'zart', 'nachhaltig', 'winzig', 'verspielt', 'durchsichtig']",1,1.2967077000066638,None,,,,,,,,,,,,,,,,,,,,,,,,,,,,,,,,,,,,,,,,,,,,,,,,,,,,,,,,,,,,,,,,,2,2023-12-06_13h58.49.290,watkins1,2023.2.3,99.74942952239807,50,2023-12-06 13h58.58.461084 +0000,
,,,,,,,25,0,25,0,,,,,,,,,,,,,,,,,253.60742620006204,,,,,,,,,,,,253.59849240002222,254.08939120010473,,,1,1.0919435999821872,,,,,,,,,,,,,,,,,,,,,254.0894017999526,260.0993429000955,Hammer,hübsch,"['Hammer', 'hübsch']",test_sub,2,"['Lampe', 'Hut', 'Flasche', 'Tasse', 'Schere', 'Buch', 'Bürste', 'Rucksack', 'Kette', 'Löffel', 'Ring', 'Schlüssel', 'Kerze', 'Eimer', 'Trommel', 'Blume', 'Würfel', 'Vase', 'Telefon', 'Tasche', 'Kiste', 'Geige', 'Socke', 'Stift', 'Kamera', 'Hammer', 'Jacke', 'Uhr', 'Fahrrad', 'Brille']","['schlicht', 'gepunktet', 'dunkel', 'glänzend', 'lang', 'nass', 'flach', 'kratzig', 'schmutzig', 'neu', 'teuer', 'bunt', 'schwer', 'robust', 'klobig', 'krumm', 'hässlich', 'sauber', 'niedlich', 'blass', 'zart', 'nachhaltig', 'winzig', 'verspielt', 'durchsichtig', 'hübsch']",1,1.0919435999821872,None,,,,,,,,,,,,,,,,,,,,,,,,,,,,,,,,,,,,,,,,,,,,,,,,,,,,,,,,,,,,,,,,,2,2023-12-06_13h58.49.290,watkins1,2023.2.3,99.74942952239807,50,2023-12-06 13h58.58.461084 +0000,
,,,,,,,26,0,26,0,,,,,,,,,,,,,,,,,260.1087730000727,,,,,,,,,,,,260.09988100011833,260.5908834000584,,,3,1.0215331998188049,,,,,,,,,,,,,,,,,,,,,260.5908939000219,266.5986136000138,Jacke,dick,"['Jacke', 'dick']",test_sub,2,"['Lampe', 'Hut', 'Flasche', 'Tasse', 'Schere', 'Buch', 'Bürste', 'Rucksack', 'Kette', 'Löffel', 'Ring', 'Schlüssel', 'Kerze', 'Eimer', 'Trommel', 'Blume', 'Würfel', 'Vase', 'Telefon', 'Tasche', 'Kiste', 'Geige', 'Socke', 'Stift', 'Kamera', 'Hammer', 'Jacke', 'Uhr', 'Fahrrad', 'Brille']","['schlicht', 'gepunktet', 'dunkel', 'glänzend', 'lang', 'nass', 'flach', 'kratzig', 'schmutzig', 'neu', 'teuer', 'bunt', 'schwer', 'robust', 'klobig', 'krumm', 'hässlich', 'sauber', 'niedlich', 'blass', 'zart', 'nachhaltig', 'winzig', 'verspielt', 'durchsichtig', 'hübsch', 'dick']",3,1.0215331998188049,None,,,,,,,,,,,,,,,,,,,,,,,,,,,,,,,,,,,,,,,,,,,,,,,,,,,,,,,,,,,,,,,,,2,2023-12-06_13h58.49.290,watkins1,2023.2.3,99.74942952239807,50,2023-12-06 13h58.58.461084 +0000,
,,,,,,,27,0,27,0,,,,,,,,,,,,,,,,,266.6080770001281,,,,,,,,,,,,266.59914900013246,267.09020560001954,,,1,1.0262368000112474,,,,,,,,,,,,,,,,,,,,,267.0902168999892,273.0907610000577,Uhr,flauschig,"['Uhr', 'flauschig']",test_sub,2,"['Lampe', 'Hut', 'Flasche', 'Tasse', 'Schere', 'Buch', 'Bürste', 'Rucksack', 'Kette', 'Löffel', 'Ring', 'Schlüssel', 'Kerze', 'Eimer', 'Trommel', 'Blume', 'Würfel', 'Vase', 'Telefon', 'Tasche', 'Kiste', 'Geige', 'Socke', 'Stift', 'Kamera', 'Hammer', 'Jacke', 'Uhr', 'Fahrrad', 'Brille']","['schlicht', 'gepunktet', 'dunkel', 'glänzend', 'lang', 'nass', 'flach', 'kratzig', 'schmutzig', 'neu', 'teuer', 'bunt', 'schwer', 'robust', 'klobig', 'krumm', 'hässlich', 'sauber', 'niedlich', 'blass', 'zart', 'nachhaltig', 'winzig', 'verspielt', 'durchsichtig', 'hübsch', 'dick', 'flauschig']",1,1.0262368000112474,None,,,,,,,,,,,,,,,,,,,,,,,,,,,,,,,,,,,,,,,,,,,,,,,,,,,,,,,,,,,,,,,,,2,2023-12-06_13h58.49.290,watkins1,2023.2.3,99.74942952239807,50,2023-12-06 13h58.58.461084 +0000,
,,,,,,,28,0,28,0,,,,,,,,,,,,,,,,,273.10024060006253,,,,,,,,,,,,273.09129639994353,273.5822540000081,,,1,1.1110780001617968,,,,,,,,,,,,,,,,,,,,,273.5822632999625,279.59071679995395,Fahrrad,lustig,"['Fahrrad', 'lustig']",test_sub,2,"['Lampe', 'Hut', 'Flasche', 'Tasse', 'Schere', 'Buch', 'Bürste', 'Rucksack', 'Kette', 'Löffel', 'Ring', 'Schlüssel', 'Kerze', 'Eimer', 'Trommel', 'Blume', 'Würfel', 'Vase', 'Telefon', 'Tasche', 'Kiste', 'Geige', 'Socke', 'Stift', 'Kamera', 'Hammer', 'Jacke', 'Uhr', 'Fahrrad', 'Brille']","['schlicht', 'gepunktet', 'dunkel', 'glänzend', 'lang', 'nass', 'flach', 'kratzig', 'schmutzig', 'neu', 'teuer', 'bunt', 'schwer', 'robust', 'klobig', 'krumm', 'hässlich', 'sauber', 'niedlich', 'blass', 'zart', 'nachhaltig', 'winzig', 'verspielt', 'durchsichtig', 'hübsch', 'dick', 'flauschig', 'lustig']",1,1.1110780001617968,None,,,,,,,,,,,,,,,,,,,,,,,,,,,,,,,,,,,,,,,,,,,,,,,,,,,,,,,,,,,,,,,,,2,2023-12-06_13h58.49.290,watkins1,2023.2.3,99.74942952239807,50,2023-12-06 13h58.58.461084 +0000,
,,,,,,,29,0,29,0,,,,,,,,,,,,,,,,,279.600187700009,,,,,,,,,,,,279.59127050009556,280.08210589992814,,,1,1.2191751000937074,,,,,,,,,,,,,,,,,,,,,280.0821161000058,286.0873126001097,Brille,gestreift,"['Brille', 'gestreift']",restudy,2,"['Lampe', 'Hut', 'Flasche', 'Tasse', 'Schere', 'Buch', 'Bürste', 'Rucksack', 'Kette', 'Löffel', 'Ring', 'Schlüssel', 'Kerze', 'Eimer', 'Trommel', 'Blume', 'Würfel', 'Vase', 'Telefon', 'Tasche', 'Kiste', 'Geige', 'Socke', 'Stift', 'Kamera', 'Hammer', 'Jacke', 'Uhr', 'Fahrrad', 'Brille']","['schlicht', 'gepunktet', 'dunkel', 'glänzend', 'lang', 'nass', 'flach', 'kratzig', 'schmutzig', 'neu', 'teuer', 'bunt', 'schwer', 'robust', 'klobig', 'krumm', 'hässlich', 'sauber', 'niedlich', 'blass', 'zart', 'nachhaltig', 'winzig', 'verspielt', 'durchsichtig', 'hübsch', 'dick', 'flauschig', 'lustig', 'gestreift']",1,1.2191751000937074,None,,,,,,,,,,,,,,,,,,,,,,,,,,,,,,,,,,,,,,,,,,,,,,,,,,,,,,,,,,,,,,,,,2,2023-12-06_13h58.49.290,watkins1,2023.2.3,99.74942952239807,50,2023-12-06 13h58.58.461084 +0000,
,,,,,,,,,,,0,0,0,0,,,,,,,,,,,,,286.09690989996307,,,,,,,,,,,,286.0881724001374,286.5788630999159,,,[],[],,,,,,,,,,,,None,None,,,,,,,,,,Kerze,schwer,"['Kerze', 'schwer']",restudy,2,,,,,,286.08809780003503,286.0881457000505,"['Kerze', 'Hammer', 'Kiste', 'Eimer', 'Schere', 'Kette', 'Geige', 'Lampe', 'Bürste', 'Ring', 'Flasche', 'Kamera', 'Telefon', 'Socke', 'Buch', 'Blume', 'Uhr', 'Tasche', 'Brille', 'Löffel', 'Würfel', 'Trommel', 'Schlüssel', 'Vase', 'Fahrrad', 'Stift', 'Tasse', 'Hut', 'Rucksack', 'Jacke']",286.5788738001138,286.5818384999875,None,286.5820238001179,292.58620280004106,1,1.3192672000732273,None,292.5866249999963,292.5894035999663,None,292.58956350013614,292.5907618999481,292.59077399992384,292.59195040003397,,,,,,,,,,,,,,,,,,,,,,,,,,,,,,,,,,,,,,,,,,,,,,,2,2023-12-06_13h58.49.290,watkins1,2023.2.3,99.74942952239807,50,2023-12-06 13h58.58.461084 +0000,
,,,,,,,,,,,1,0,1,0,,,,,,,,,,,,,292.5957297999412,,,,,,,,,,,,292.5922338999808,293.0878880000673,,,[],[],,,,,,,,,,,,None,None,,,,,,,,,,Hammer,hübsch,"['Hammer', 'hübsch']",test_sub,2,,,,,,292.5921700000763,292.59220730001107,"['Kerze', 'Hammer', 'Kiste', 'Eimer', 'Schere', 'Kette', 'Geige', 'Lampe', 'Bürste', 'Ring', 'Flasche', 'Kamera', 'Telefon', 'Socke', 'Buch', 'Blume', 'Uhr', 'Tasche', 'Brille', 'Löffel', 'Würfel', 'Trommel', 'Schlüssel', 'Vase', 'Fahrrad', 'Stift', 'Tasse', 'Hut', 'Rucksack', 'Jacke']",293.0878987000324,293.0907644000836,None,293.0909047999885,293.09237170009874,None,,,293.09248240012676,293.09394000004977,None,293.0940505999606,293.09525949996896,293.0952721000649,299.0988435000181,0,,,,,,,,,,,,,,,,,,,,,,,,,,,,,,,,,,,,,,,,,,,,,,2,2023-12-06_13h58.49.290,watkins1,2023.2.3,99.74942952239807,50,2023-12-06 13h58.58.461084 +0000,
,,,,,,,,,,,2,0,2,0,,,,,,,,,,,,,299.1087080000434,,,,,,,,,,,,299.0991311001126,299.59071659995243,,,[],[],,,,,,,,,,,,1.5060501999687403,2.2492573000490665,,,,,Kerze,,,,,Kiste,zart,"['Kiste', 'zart']",test_sub,2,,,,,,299.0990651000757,299.0991009999998,"['Kerze', 'Hammer', 'Kiste', 'Eimer', 'Schere', 'Kette', 'Geige', 'Lampe', 'Bürste', 'Ring', 'Flasche', 'Kamera', 'Telefon', 'Socke', 'Buch', 'Blume', 'Uhr', 'Tasche', 'Brille', 'Löffel', 'Würfel', 'Trommel', 'Schlüssel', 'Vase', 'Fahrrad', 'Stift', 'Tasse', 'Hut', 'Rucksack', 'Jacke']",299.5907266999129,299.59349090000615,None,299.5936157000251,299.5961718999315,None,,,299.59628459997475,299.5988308999222,None,299.59894230007194,299.6001212000847,299.60013370006345,305.6048546000384,0,,,,,,,,,,,,,,,,,,,,,,,,,,,,,,,,,,,,,,,,,,,,,,2,2023-12-06_13h58.49.290,watkins1,2023.2.3,99.74942952239807,50,2023-12-06 13h58.58.461084 +0000,
,,,,,,,,,,,3,0,3,0,,,,,,,,,,,,,305.61470880010165,,,,,,,,,,,,305.6051390999928,306.0966550000012,,,[],[],,,,,,,,,,,,None,None,,,,,,,,,,Eimer,robust,"['Eimer', 'robust']",restudy,2,,,,,,305.6050710999407,305.60510980011895,"['Kerze', 'Hammer', 'Kiste', 'Eimer', 'Schere', 'Kette', 'Geige', 'Lampe', 'Bürste', 'Ring', 'Flasche', 'Kamera', 'Telefon', 'Socke', 'Buch', 'Blume', 'Uhr', 'Tasche', 'Brille', 'Löffel', 'Würfel', 'Trommel', 'Schlüssel', 'Vase', 'Fahrrad', 'Stift', 'Tasse', 'Hut', 'Rucksack', 'Jacke']",306.0966666000895,306.09926930000074,None,306.0993973999284,312.10172670008615,3,3.570281400112435,None,312.1020228001289,312.10472119995393,None,312.10483450000174,312.1060011999216,312.10601300001144,312.10750410007313,,,,,,,,,,,,,,,,,,,,,,,,,,,,,,,,,,,,,,,,,,,,,,,2,2023-12-06_13h58.49.290,watkins1,2023.2.3,99.74942952239807,50,2023-12-06 13h58.58.461084 +0000,
,,,,,,,,,,,4,0,4,0,,,,,,,,,,,,,312.11118309991434,,,,,,,,,,,,312.1077856000047,312.60329800006,,,[],[],,,,,,,,,,,,None,None,,,,,,,,,,Schere,lang,"['Schere', 'lang']",restudy,2,,,,,,312.10771979996935,312.1077586999163,"['Kerze', 'Hammer', 'Kiste', 'Eimer', 'Schere', 'Kette', 'Geige', 'Lampe', 'Bürste', 'Ring', 'Flasche', 'Kamera', 'Telefon', 'Socke', 'Buch', 'Blume', 'Uhr', 'Tasche', 'Brille', 'Löffel', 'Würfel', 'Trommel', 'Schlüssel', 'Vase', 'Fahrrad', 'Stift', 'Tasse', 'Hut', 'Rucksack', 'Jacke']",312.60330880014226,312.60620929999277,None,312.6063358001411,318.6078645000234,3,2.7356757998932153,None,318.60816740011796,318.6107640999835,None,318.61088089994155,318.6120800001081,318.61209199996665,318.6131458999589,,,,,,,,,,,,,,,,,,,,,,,,,,,,,,,,,,,,,,,,,,,,,,,2,2023-12-06_13h58.49.290,watkins1,2023.2.3,99.74942952239807,50,2023-12-06 13h58.58.461084 +0000,
,,,,,,,,,,,5,0,5,0,,,,,,,,,,,,,318.6173249001149,,,,,,,,,,,,318.6134278001264,319.1094589999411,,,[],[],,,,,,,,,,,,2.39808960002847,None,,,,,Eimer,,,,,Kette,schmutzig,"['Kette', 'schmutzig']",test_sub,2,,,,,,318.61336229997687,318.61340039991774,"['Kerze', 'Hammer', 'Kiste', 'Eimer', 'Schere', 'Kette', 'Geige', 'Lampe', 'Bürste', 'Ring', 'Flasche', 'Kamera', 'Telefon', 'Socke', 'Buch', 'Blume', 'Uhr', 'Tasche', 'Brille', 'Löffel', 'Würfel', 'Trommel', 'Schlüssel', 'Vase', 'Fahrrad', 'Stift', 'Tasse', 'Hut', 'Rucksack', 'Jacke']",319.10947010014206,319.1120524001308,None,319.11217999993823,319.11360429995693,None,,,319.1137149001006,319.11513329995796,None,319.1152425999753,319.11639570002444,319.1164083001204,325.1191847000737,0,,,,,,,,,,,,,,,,,,,,,,,,,,,,,,,,,,,,,,,,,,,,,,2,2023-12-06_13h58.49.290,watkins1,2023.2.3,99.74942952239807,50,2023-12-06 13h58.58.461084 +0000,
,,,,,,,,,,,6,0,6,0,,,,,,,,,,,,,325.12901380006224,,,,,,,,,,,,325.11946860002354,325.61109700007364,,,[],[],,,,,,,,,,,,None,None,,,,,,,,,,Geige,nachhaltig,"['Geige', 'nachhaltig']",restudy,2,,,,,,325.1194017000962,325.1194396999199,"['Kerze', 'Hammer', 'Kiste', 'Eimer', 'Schere', 'Kette', 'Geige', 'Lampe', 'Bürste', 'Ring', 'Flasche', 'Kamera', 'Telefon', 'Socke', 'Buch', 'Blume', 'Uhr', 'Tasche', 'Brille', 'Löffel', 'Würfel', 'Trommel', 'Schlüssel', 'Vase', 'Fahrrad', 'Stift', 'Tasse', 'Hut', 'Rucksack', 'Jacke']",325.61110739992,325.6139360999223,None,325.61406280007213,331.6156587000005,2,2.2551356002222747,None,331.61595480004326,331.6187126999721,None,331.6188243001234,331.6199755000416,331.61998730013147,331.6215626001358,,,,,,,,,,,,,,,,,,,,,,,,,,,,,,,,,,,,,,,,,,,,,,,2,2023-12-06_13h58.49.290,watkins1,2023.2.3,99.74942952239807,50,2023-12-06 13h58.58.461084 +0000,
,,,,,,,,,,,7,0,7,0,,,,,,,,,,,,,331.6251429999247,,,,,,,,,,,,331.62184239993803,332.1172613000963,,,[],[],,,,,,,,,,,,None,None,,,,,,,,,,Lampe,schlicht,"['Lampe', 'schlicht']",restudy,2,,,,,,331.6217773000244,331.6218153000809,"['Kerze', 'Hammer', 'Kiste', 'Eimer', 'Schere', 'Kette', 'Geige', 'Lampe', 'Bürste', 'Ring', 'Flasche', 'Kamera', 'Telefon', 'Socke', 'Buch', 'Blume', 'Uhr', 'Tasche', 'Brille', 'Löffel', 'Würfel', 'Trommel', 'Schlüssel', 'Vase', 'Fahrrad', 'Stift', 'Tasse', 'Hut', 'Rucksack', 'Jacke']",332.11727169994265,332.1200751999859,None,332.1202025001403,338.1215942001436,3,3.1813517999835312,None,338.1219015000388,338.1246430000756,None,338.1247568000108,338.1259367999155,338.1259483001195,338.1271792000625,,,,,,,,,,,,,,,,,,,,,,,,,,,,,,,,,,,,,,,,,,,,,,,2,2023-12-06_13h58.49.290,watkins1,2023.2.3,99.74942952239807,50,2023-12-06 13h58.58.461084 +0000,
,,,,,,,,,,,8,0,8,0,,,,,,,,,,,,,338.13106569997035,,,,,,,,,,,,338.12746170000173,338.62300850008614,,,[],[],,,,,,,,,,,,None,None,,,,,,,,,,Bürste,flach,"['Bürste', 'flach']",restudy,2,,,,,,338.12739700009115,338.12743499991484,"['Kerze', 'Hammer', 'Kiste', 'Eimer', 'Schere', 'Kette', 'Geige', 'Lampe', 'Bürste', 'Ring', 'Flasche', 'Kamera', 'Telefon', 'Socke', 'Buch', 'Blume', 'Uhr', 'Tasche', 'Brille', 'Löffel', 'Würfel', 'Trommel', 'Schlüssel', 'Vase', 'Fahrrad', 'Stift', 'Tasse', 'Hut', 'Rucksack', 'Jacke']",338.6230188999325,338.625780900009,None,338.6259073000401,344.62654550001025,3,1.5395294001791626,None,344.6268509000074,344.62957290001214,None,344.62968769995496,344.6308856001124,344.6308971999679,344.63206880004145,,,,,,,,,,,,,,,,,,,,,,,,,,,,,,,,,,,,,,,,,,,,,,,2,2023-12-06_13h58.49.290,watkins1,2023.2.3,99.74942952239807,50,2023-12-06 13h58.58.461084 +0000,
,,,,,,,,,,,9,0,9,0,,,,,,,,,,,,,344.6359671000391,,,,,,,,,,,,344.63235369999893,345.12830540002324,,,[],[],,,,,,,,,,,,1.4333857998717576,None,,,,,Ring,,,,,Ring,teuer,"['Ring', 'teuer']",test_sub,2,,,,,,344.6322880999651,344.6323269000277,"['Kerze', 'Hammer', 'Kiste', 'Eimer', 'Schere', 'Kette', 'Geige', 'Lampe', 'Bürste', 'Ring', 'Flasche', 'Kamera', 'Telefon', 'Socke', 'Buch', 'Blume', 'Uhr', 'Tasche', 'Brille', 'Löffel', 'Würfel', 'Trommel', 'Schlüssel', 'Vase', 'Fahrrad', 'Stift', 'Tasse', 'Hut', 'Rucksack', 'Jacke']",345.1283160999883,345.1308760999236,None,345.13100160006434,345.13231349992566,None,,,345.13242330006324,345.1337290999945,None,345.13383830012754,345.13487800001167,345.1348904001061,351.13703370001167,1,,,,,,,,,,,,,,,,,,,,,,,,,,,,,,,,,,,,,,,,,,,,,,2,2023-12-06_13h58.49.290,watkins1,2023.2.3,99.74942952239807,50,2023-12-06 13h58.58.461084 +0000,
,,,,,,,,,,,10,0,10,0,,,,,,,,,,,,,351.1468213999178,,,,,,,,,,,,351.1373139999341,351.62882099999115,,,[],[],,,,,,,,,,,,2.321028299862519,5.7952097998932,,,,,f,,,,,Flasche,dunkel,"['Flasche', 'dunkel']",test_sub,2,,,,,,351.1372482001316,351.1372851000633,"['Kerze', 'Hammer', 'Kiste', 'Eimer', 'Schere', 'Kette', 'Geige', 'Lampe', 'Bürste', 'Ring', 'Flasche', 'Kamera', 'Telefon', 'Socke', 'Buch', 'Blume', 'Uhr', 'Tasche', 'Brille', 'Löffel', 'Würfel', 'Trommel', 'Schlüssel', 'Vase', 'Fahrrad', 'Stift', 'Tasse', 'Hut', 'Rucksack', 'Jacke']",351.62883129995316,351.6315898001194,None,351.63171520014293,351.6343126001302,None,,,351.63442389992997,351.637134199962,None,351.6372438999824,351.63852889998816,351.63854239997454,357.6448272000998,0,,,,,,,,,,,,,,,,,,,,,,,,,,,,,,,,,,,,,,,,,,,,,,2,2023-12-06_13h58.49.290,watkins1,2023.2.3,99.74942952239807,50,2023-12-06 13h58.58.461084 +0000,
,,,,,,,,,,,11,0,11,0,,,,,,,,,,,,,357.65459410008043,,,,,,,,,,,,357.64511070004664,358.1366228000261,,,[],[],,,,,,,,,,,,None,None,,,,,,,,,,Kamera,durchsichtig,"['Kamera', 'durchsichtig']",restudy,2,,,,,,357.6450420001056,357.6450801999308,"['Kerze', 'Hammer', 'Kiste', 'Eimer', 'Schere', 'Kette', 'Geige', 'Lampe', 'Bürste', 'Ring', 'Flasche', 'Kamera', 'Telefon', 'Socke', 'Buch', 'Blume', 'Uhr', 'Tasche', 'Brille', 'Löffel', 'Würfel', 'Trommel', 'Schlüssel', 'Vase', 'Fahrrad', 'Stift', 'Tasse', 'Hut', 'Rucksack', 'Jacke']",358.13663429999724,358.1394064000342,None,358.1395368000958,364.1462668001186,1,1.8975868001580238,None,364.1465914999135,364.1494990999345,None,364.14961490011774,364.15094089997,364.15095250005834,364.15258090011775,,,,,,,,,,,,,,,,,,,,,,,,,,,,,,,,,,,,,,,,,,,,,,,2,2023-12-06_13h58.49.290,watkins1,2023.2.3,99.74942952239807,50,2023-12-06 13h58.58.461084 +0000,
,,,,,,,,,,,12,0,12,0,,,,,,,,,,,,,364.1556675999891,,,,,,,,,,,,364.1528660999611,364.64785680011846,,,[],[],,,,,,,,,,,,1.314399200025946,None,,,,,Katze,,,,,Telefon,niedlich,"['Telefon', 'niedlich']",test_sub,2,,,,,,364.15280029992573,364.152839000104,"['Kerze', 'Hammer', 'Kiste', 'Eimer', 'Schere', 'Kette', 'Geige', 'Lampe', 'Bürste', 'Ring', 'Flasche', 'Kamera', 'Telefon', 'Socke', 'Buch', 'Blume', 'Uhr', 'Tasche', 'Brille', 'Löffel', 'Würfel', 'Trommel', 'Schlüssel', 'Vase', 'Fahrrad', 'Stift', 'Tasse', 'Hut', 'Rucksack', 'Jacke']",364.64786759996787,364.6507769001182,None,364.650903099915,364.65238710003905,None,,,364.6524992999621,364.6539769999217,None,364.65408720006235,364.6553094999399,364.65532210003585,370.6589818999637,0,,,,,,,,,,,,,,,,,,,,,,,,,,,,,,,,,,,,,,,,,,,,,,2,2023-12-06_13h58.49.290,watkins1,2023.2.3,99.74942952239807,50,2023-12-06 13h58.58.461084 +0000,
,,,,,,,,,,,13,0,13,0,,,,,,,,,,,,,370.66877020010725,,,,,,,,,,,,370.65926280012354,371.15075969998725,,,[],[],,,,,,,,,,,,None,None,,,,,,,,,,Socke,winzig,"['Socke', 'winzig']",restudy,2,,,,,,370.65919520007446,370.65923280012794,"['Kerze', 'Hammer', 'Kiste', 'Eimer', 'Schere', 'Kette', 'Geige', 'Lampe', 'Bürste', 'Ring', 'Flasche', 'Kamera', 'Telefon', 'Socke', 'Buch', 'Blume', 'Uhr', 'Tasche', 'Brille', 'Löffel', 'Würfel', 'Trommel', 'Schlüssel', 'Vase', 'Fahrrad', 'Stift', 'Tasse', 'Hut', 'Rucksack', 'Jacke']",371.15077010006644,371.1535271999892,None,371.15365380002186,377.15613449993543,1,1.9879488998558372,None,377.15643900004216,377.1592413999606,None,377.159355700016,377.1605338000227,377.1605456001125,377.16205470007844,,,,,,,,,,,,,,,,,,,,,,,,,,,,,,,,,,,,,,,,,,,,,,,2,2023-12-06_13h58.49.290,watkins1,2023.2.3,99.74942952239807,50,2023-12-06 13h58.58.461084 +0000,
,,,,,,,,,,,14,0,14,0,,,,,,,,,,,,,377.1656168999616,,,,,,,,,,,,377.1623416999355,377.657658000011,,,[],[],,,,,,,,,,,,None,None,,,,,,,,,,Buch,nass,"['Buch', 'nass']",restudy,2,,,,,,377.16227560001425,377.1623142999597,"['Kerze', 'Hammer', 'Kiste', 'Eimer', 'Schere', 'Kette', 'Geige', 'Lampe', 'Bürste', 'Ring', 'Flasche', 'Kamera', 'Telefon', 'Socke', 'Buch', 'Blume', 'Uhr', 'Tasche', 'Brille', 'Löffel', 'Würfel', 'Trommel', 'Schlüssel', 'Vase', 'Fahrrad', 'Stift', 'Tasse', 'Hut', 'Rucksack', 'Jacke']",377.6576676000841,377.66021510004066,None,377.66033930005506,383.6672201999463,1,1.8015843001194298,None,383.6675225000363,383.67009579995647,None,383.67020890000276,383.6712601000909,383.6712720000651,383.6723098999355,,,,,,,,,,,,,,,,,,,,,,,,,,,,,,,,,,,,,,,,,,,,,,,2,2023-12-06_13h58.49.290,watkins1,2023.2.3,99.74942952239807,50,2023-12-06 13h58.58.461084 +0000,
,,,,,,,,,,,15,0,15,0,,,,,,,,,,,,,383.6767339000944,,,,,,,,,,,,383.67258949996904,384.1686998999212,,,[],[],,,,,,,,,,,,None,None,,,,,,,,,,Blume,krumm,"['Blume', 'krumm']",restudy,2,,,,,,383.67252480005845,383.6725630001165,"['Kerze', 'Hammer', 'Kiste', 'Eimer', 'Schere', 'Kette', 'Geige', 'Lampe', 'Bürste', 'Ring', 'Flasche', 'Kamera', 'Telefon', 'Socke', 'Buch', 'Blume', 'Uhr', 'Tasche', 'Brille', 'Löffel', 'Würfel', 'Trommel', 'Schlüssel', 'Vase', 'Fahrrad', 'Stift', 'Tasse', 'Hut', 'Rucksack', 'Jacke']",384.16871090000495,384.17130360007286,None,384.1714302999899,390.1810928999912,1,1.3699463999364525,None,390.18138869991526,390.18426909996197,None,390.18438220000826,390.1855721999891,390.1855838999618,390.18672759993933,,,,,,,,,,,,,,,,,,,,,,,,,,,,,,,,,,,,,,,,,,,,,,,2,2023-12-06_13h58.49.290,watkins1,2023.2.3,99.74942952239807,50,2023-12-06 13h58.58.461084 +0000,
,,,,,,,,,,,16,0,16,0,,,,,,,,,,,,,390.19059469993226,,,,,,,,,,,,390.18700650008395,390.68290979997255,,,[],[],,,,,,,,,,,,2.02604590007104,None,,,,,Socke,,,,,Uhr,flauschig,"['Uhr', 'flauschig']",test_sub,2,,,,,,390.1869423999451,390.18698060000315,"['Kerze', 'Hammer', 'Kiste', 'Eimer', 'Schere', 'Kette', 'Geige', 'Lampe', 'Bürste', 'Ring', 'Flasche', 'Kamera', 'Telefon', 'Socke', 'Buch', 'Blume', 'Uhr', 'Tasche', 'Brille', 'Löffel', 'Würfel', 'Trommel', 'Schlüssel', 'Vase', 'Fahrrad', 'Stift', 'Tasse', 'Hut', 'Rucksack', 'Jacke']",390.68292069993913,390.68549109995365,None,390.6856174999848,390.68691819999367,None,,,390.6870286001358,390.68834020011127,None,390.68844870012254,390.68948590010405,390.6894984000828,396.6918027999345,0,,,,,,,,,,,,,,,,,,,,,,,,,,,,,,,,,,,,,,,,,,,,,,2,2023-12-06_13h58.49.290,watkins1,2023.2.3,99.74942952239807,50,2023-12-06 13h58.58.461084 +0000,
,,,,,,,,,,,17,0,17,0,,,,,,,,,,,,,396.70167959993705,,,,,,,,,,,,396.6920797000639,397.1835676000919,,,[],[],,,,,,,,,,,,2.060109500074759,4.319281300064176,,,,,,,,,,Tasche,blass,"['Tasche', 'blass']",test_sub,2,,,,,,396.6920138001442,396.6920511999633,"['Kerze', 'Hammer', 'Kiste', 'Eimer', 'Schere', 'Kette', 'Geige', 'Lampe', 'Bürste', 'Ring', 'Flasche', 'Kamera', 'Telefon', 'Socke', 'Buch', 'Blume', 'Uhr', 'Tasche', 'Brille', 'Löffel', 'Würfel', 'Trommel', 'Schlüssel', 'Vase', 'Fahrrad', 'Stift', 'Tasse', 'Hut', 'Rucksack', 'Jacke']",397.18357879994437,397.1864223999437,None,397.1865503001027,397.1892256999854,None,,,397.1893372000195,397.1920030999463,None,397.192114100093,397.1934039001353,397.19341669999994,403.19989209994674,0,,,,,,,,,,,,,,,,,,,,,,,,,,,,,,,,,,,,,,,,,,,,,,2,2023-12-06_13h58.49.290,watkins1,2023.2.3,99.74942952239807,50,2023-12-06 13h58.58.461084 +0000,
,,,,,,,,,,,18,0,18,0,,,,,,,,,,,,,403.2096490999684,,,,,,,,,,,,403.2001764001325,403.6916346999351,,,[],[],,,,,,,,,,,,None,None,,,,,,,,,,Brille,gestreift,"['Brille', 'gestreift']",restudy,2,,,,,,403.2001076999586,403.2001456001308,"['Kerze', 'Hammer', 'Kiste', 'Eimer', 'Schere', 'Kette', 'Geige', 'Lampe', 'Bürste', 'Ring', 'Flasche', 'Kamera', 'Telefon', 'Socke', 'Buch', 'Blume', 'Uhr', 'Tasche', 'Brille', 'Löffel', 'Würfel', 'Trommel', 'Schlüssel', 'Vase', 'Fahrrad', 'Stift', 'Tasse', 'Hut', 'Rucksack', 'Jacke']",403.69164470001124,403.69449270004407,None,403.6946179000661,409.7017860999331,2,2.9188234000466764,None,409.70209069992416,409.70498130004853,None,409.7050985000096,409.7063112000469,409.7063231000211,409.70757189998403,,,,,,,,,,,,,,,,,,,,,,,,,,,,,,,,,,,,,,,,,,,,,,,2,2023-12-06_13h58.49.290,watkins1,2023.2.3,99.74942952239807,50,2023-12-06 13h58.58.461084 +0000,
,,,,,,,,,,,19,0,19,0,,,,,,,,,,,,,409.7111867000349,,,,,,,,,,,,409.7078535000328,410.2035022000782,,,[],[],,,,,,,,,,,,None,None,,,,,,,,,,Löffel,neu,"['Löffel', 'neu']",test_sub,2,,,,,,409.7077891000081,409.70782639994286,"['Kerze', 'Hammer', 'Kiste', 'Eimer', 'Schere', 'Kette', 'Geige', 'Lampe', 'Bürste', 'Ring', 'Flasche', 'Kamera', 'Telefon', 'Socke', 'Buch', 'Blume', 'Uhr', 'Tasche', 'Brille', 'Löffel', 'Würfel', 'Trommel', 'Schlüssel', 'Vase', 'Fahrrad', 'Stift', 'Tasse', 'Hut', 'Rucksack', 'Jacke']",410.2035129999276,410.2062971999403,None,410.2064247999806,410.20786810014397,None,,,410.2079797000624,410.20941839995794,None,410.20952680008486,410.2107148999348,410.2107277000323,416.2150888000615,0,,,,,,,,,,,,,,,,,,,,,,,,,,,,,,,,,,,,,,,,,,,,,,2,2023-12-06_13h58.49.290,watkins1,2023.2.3,99.74942952239807,50,2023-12-06 13h58.58.461084 +0000,
,,,,,,,,,,,20,0,20,0,,,,,,,,,,,,,416.2249936000444,,,,,,,,,,,,416.21536929998547,416.7070083001163,,,[],[],,,,,,,,,,,,1.3255884000100195,4.9802385000512,,,,,P,,,,,Würfel,hässlich,"['Würfel', 'hässlich']",test_sub,2,,,,,,416.2153042999562,416.215340499999,"['Kerze', 'Hammer', 'Kiste', 'Eimer', 'Schere', 'Kette', 'Geige', 'Lampe', 'Bürste', 'Ring', 'Flasche', 'Kamera', 'Telefon', 'Socke', 'Buch', 'Blume', 'Uhr', 'Tasche', 'Brille', 'Löffel', 'Würfel', 'Trommel', 'Schlüssel', 'Vase', 'Fahrrad', 'Stift', 'Tasse', 'Hut', 'Rucksack', 'Jacke']",416.70701869996265,416.70961889997125,None,416.7097454001196,416.71216710004956,None,,,416.7122798000928,416.71470459993,None,416.7148126999382,416.71601930004545,416.7160321001429,422.7205404001288,0,,,,,,,,,,,,,,,,,,,,,,,,,,,,,,,,,,,,,,,,,,,,,,2,2023-12-06_13h58.49.290,watkins1,2023.2.3,99.74942952239807,50,2023-12-06 13h58.58.461084 +0000,
,,,,,,,,,,,21,0,21,0,,,,,,,,,,,,,422.7303015999496,,,,,,,,,,,,422.7208235000726,423.2125105999876,,,[],[],,,,,,,,,,,,None,None,,,,,,,,,,Trommel,klobig,"['Trommel', 'klobig']",restudy,2,,,,,,422.72075630002655,422.72079430008307,"['Kerze', 'Hammer', 'Kiste', 'Eimer', 'Schere', 'Kette', 'Geige', 'Lampe', 'Bürste', 'Ring', 'Flasche', 'Kamera', 'Telefon', 'Socke', 'Buch', 'Blume', 'Uhr', 'Tasche', 'Brille', 'Löffel', 'Würfel', 'Trommel', 'Schlüssel', 'Vase', 'Fahrrad', 'Stift', 'Tasse', 'Hut', 'Rucksack', 'Jacke']",423.2125220000744,423.21532770013437,None,423.21545729995705,429.21745550003834,2,4.630018300144002,None,429.217759600142,429.2205356999766,None,429.22064940002747,429.2218679001089,429.2218794999644,429.2233867999166,,,,,,,,,,,,,,,,,,,,,,,,,,,,,,,,,,,,,,,,,,,,,,,2,2023-12-06_13h58.49.290,watkins1,2023.2.3,99.74942952239807,50,2023-12-06 13h58.58.461084 +0000,
,,,,,,,,,,,22,0,22,0,,,,,,,,,,,,,429.22666870011017,,,,,,,,,,,,429.22367110010237,429.71894060005434,,,[],[],,,,,,,,,,,,None,None,,,,,,,,,,Schlüssel,bunt,"['Schlüssel', 'bunt']",restudy,2,,,,,,429.2236059999559,429.22364450013265,"['Kerze', 'Hammer', 'Kiste', 'Eimer', 'Schere', 'Kette', 'Geige', 'Lampe', 'Bürste', 'Ring', 'Flasche', 'Kamera', 'Telefon', 'Socke', 'Buch', 'Blume', 'Uhr', 'Tasche', 'Brille', 'Löffel', 'Würfel', 'Trommel', 'Schlüssel', 'Vase', 'Fahrrad', 'Stift', 'Tasse', 'Hut', 'Rucksack', 'Jacke']",429.71895090001635,429.72172520007007,None,429.72185490000993,435.72656859993003,2,1.459735699929297,None,435.72686870000325,435.72950590006076,None,435.7296188001055,435.7308742001187,435.7308861000929,435.73193020001054,,,,,,,,,,,,,,,,,,,,,,,,,,,,,,,,,,,,,,,,,,,,,,,2,2023-12-06_13h58.49.290,watkins1,2023.2.3,99.74942952239807,50,2023-12-06 13h58.58.461084 +0000,
,,,,,,,,,,,23,0,23,0,,,,,,,,,,,,,435.7361369000282,,,,,,,,,,,,435.732213600073,436.2281866001431,,,[],[],,,,,,,,,,,,3.421568299876526,None,,,,,Tri,,,,,Vase,sauber,"['Vase', 'sauber']",test_sub,2,,,,,,435.73214860004373,435.7321868001018,"['Kerze', 'Hammer', 'Kiste', 'Eimer', 'Schere', 'Kette', 'Geige', 'Lampe', 'Bürste', 'Ring', 'Flasche', 'Kamera', 'Telefon', 'Socke', 'Buch', 'Blume', 'Uhr', 'Tasche', 'Brille', 'Löffel', 'Würfel', 'Trommel', 'Schlüssel', 'Vase', 'Fahrrad', 'Stift', 'Tasse', 'Hut', 'Rucksack', 'Jacke']",436.2281977001112,436.2306339000352,None,436.2307615999598,436.23206750000827,None,,,436.23217749991454,436.2334851999767,None,436.2335948999971,436.23463360010646,436.2346461999696,442.23693650006317,0,,,,,,,,,,,,,,,,,,,,,,,,,,,,,,,,,,,,,,,,,,,,,,2,2023-12-06_13h58.49.290,watkins1,2023.2.3,99.74942952239807,50,2023-12-06 13h58.58.461084 +0000,
,,,,,,,,,,,24,0,24,0,,,,,,,,,,,,,442.2467386999633,,,,,,,,,,,,442.2372163999826,442.7287570000626,,,[],[],,,,,,,,,,,,1.7482674999628216,None,,,,,Fahrrad,,,,,Fahrrad,lustig,"['Fahrrad', 'lustig']",test_sub,2,,,,,,442.2371507000644,442.2371875999961,"['Kerze', 'Hammer', 'Kiste', 'Eimer', 'Schere', 'Kette', 'Geige', 'Lampe', 'Bürste', 'Ring', 'Flasche', 'Kamera', 'Telefon', 'Socke', 'Buch', 'Blume', 'Uhr', 'Tasche', 'Brille', 'Löffel', 'Würfel', 'Trommel', 'Schlüssel', 'Vase', 'Fahrrad', 'Stift', 'Tasse', 'Hut', 'Rucksack', 'Jacke']",442.7287677000277,442.7315118999686,None,442.7316411000211,442.73421239992604,None,,,442.73432549997233,442.7369015000295,None,442.73701240005903,442.7382132001221,442.7382257001009,448.744246999966,1,,,,,,,,,,,,,,,,,,,,,,,,,,,,,,,,,,,,,,,,,,,,,,2,2023-12-06_13h58.49.290,watkins1,2023.2.3,99.74942952239807,50,2023-12-06 13h58.58.461084 +0000,
,,,,,,,,,,,25,0,25,0,,,,,,,,,,,,,448.7540500999894,,,,,,,,,,,,448.7445316000376,449.23608870012686,,,[],[],,,,,,,,,,,,None,None,,,,,,,,,,Stift,verspielt,"['Stift', 'verspielt']",restudy,2,,,,,,448.74446439999156,448.7445028000511,"['Kerze', 'Hammer', 'Kiste', 'Eimer', 'Schere', 'Kette', 'Geige', 'Lampe', 'Bürste', 'Ring', 'Flasche', 'Kamera', 'Telefon', 'Socke', 'Buch', 'Blume', 'Uhr', 'Tasche', 'Brille', 'Löffel', 'Würfel', 'Trommel', 'Schlüssel', 'Vase', 'Fahrrad', 'Stift', 'Tasse', 'Hut', 'Rucksack', 'Jacke']",449.2361004999839,449.23877710010856,None,449.2389030000195,455.24481810000725,2,2.2785521999467164,None,455.2451206999831,455.2478726000991,None,455.247988200048,455.24915800010785,455.2491699999664,455.25072590005584,,,,,,,,,,,,,,,,,,,,,,,,,,,,,,,,,,,,,,,,,,,,,,,2,2023-12-06_13h58.49.290,watkins1,2023.2.3,99.74942952239807,50,2023-12-06 13h58.58.461084 +0000,
,,,,,,,,,,,26,0,26,0,,,,,,,,,,,,,455.25425960007124,,,,,,,,,,,,455.2510114000179,455.74654570012353,,,[],[],,,,,,,,,,,,2.197682699887082,None,,,,,Teller,,,,,Tasse,glänzend,"['Tasse', 'glänzend']",test_sub,2,,,,,,455.25094399997033,455.2509840000421,"['Kerze', 'Hammer', 'Kiste', 'Eimer', 'Schere', 'Kette', 'Geige', 'Lampe', 'Bürste', 'Ring', 'Flasche', 'Kamera', 'Telefon', 'Socke', 'Buch', 'Blume', 'Uhr', 'Tasche', 'Brille', 'Löffel', 'Würfel', 'Trommel', 'Schlüssel', 'Vase', 'Fahrrad', 'Stift', 'Tasse', 'Hut', 'Rucksack', 'Jacke']",455.74655729997903,455.74932750011794,None,455.74945480003953,455.7508960000705,None,,,455.7510059000924,455.7526173000224,None,455.752728600055,455.7538783000782,455.7538910000585,461.7572137999814,0,,,,,,,,,,,,,,,,,,,,,,,,,,,,,,,,,,,,,,,,,,,,,,2,2023-12-06_13h58.49.290,watkins1,2023.2.3,99.74942952239807,50,2023-12-06 13h58.58.461084 +0000,
,,,,,,,,,,,27,0,27,0,,,,,,,,,,,,,461.7670116000809,,,,,,,,,,,,461.7574954999145,462.24901130003855,,,[],[],,,,,,,,,,,,1.457127699861303,None,,,,,Hund,,,,,Hut,gepunktet,"['Hut', 'gepunktet']",test_sub,2,,,,,,461.75742939999327,461.7574664999265,"['Kerze', 'Hammer', 'Kiste', 'Eimer', 'Schere', 'Kette', 'Geige', 'Lampe', 'Bürste', 'Ring', 'Flasche', 'Kamera', 'Telefon', 'Socke', 'Buch', 'Blume', 'Uhr', 'Tasche', 'Brille', 'Löffel', 'Würfel', 'Trommel', 'Schlüssel', 'Vase', 'Fahrrad', 'Stift', 'Tasse', 'Hut', 'Rucksack', 'Jacke']",462.2490228000097,462.2518249999266,None,462.25195350009017,462.2544394999277,None,,,462.2545503999572,462.2569963999558,None,462.25710629997775,462.2581275999546,462.25814020005055,468.264013200067,0,,,,,,,,,,,,,,,,,,,,,,,,,,,,,,,,,,,,,,,,,,,,,,2,2023-12-06_13h58.49.290,watkins1,2023.2.3,99.74942952239807,50,2023-12-06 13h58.58.461084 +0000,
,,,,,,,,,,,28,0,28,0,,,,,,,,,,,,,468.27390819997527,,,,,,,,,,,,468.2642950001173,468.7558741001412,,,[],[],,,,,,,,,,,,None,None,,,,,,,,,,Rucksack,kratzig,"['Rucksack', 'kratzig']",restudy,2,,,,,,468.26422800007276,468.26426610001363,"['Kerze', 'Hammer', 'Kiste', 'Eimer', 'Schere', 'Kette', 'Geige', 'Lampe', 'Bürste', 'Ring', 'Flasche', 'Kamera', 'Telefon', 'Socke', 'Buch', 'Blume', 'Uhr', 'Tasche', 'Brille', 'Löffel', 'Würfel', 'Trommel', 'Schlüssel', 'Vase', 'Fahrrad', 'Stift', 'Tasse', 'Hut', 'Rucksack', 'Jacke']",468.75588509999216,468.7588633999694,None,468.75899140001275,474.76398480008356,1,1.5022110999561846,None,474.7642866000533,474.76717160013504,None,474.7672862999607,474.7685182001442,474.76853040000424,474.7700599001255,,,,,,,,,,,,,,,,,,,,,,,,,,,,,,,,,,,,,,,,,,,,,,,2,2023-12-06_13h58.49.290,watkins1,2023.2.3,99.74942952239807,50,2023-12-06 13h58.58.461084 +0000,
,,,,,,,,,,,29,0,29,0,,,,,,,,,,,,,474.7734874000307,,,,,,,,,,,,474.7703442000784,475.26556310011074,,,[],[],,,,,,,,,,,,1.8258062000386417,None,,,,,Jacke,,,,,Jacke,dick,"['Jacke', 'dick']",test_sub,2,,,,,,474.770278400043,474.7703170001041,"['Kerze', 'Hammer', 'Kiste', 'Eimer', 'Schere', 'Kette', 'Geige', 'Lampe', 'Bürste', 'Ring', 'Flasche', 'Kamera', 'Telefon', 'Socke', 'Buch', 'Blume', 'Uhr', 'Tasche', 'Brille', 'Löffel', 'Würfel', 'Trommel', 'Schlüssel', 'Vase', 'Fahrrad', 'Stift', 'Tasse', 'Hut', 'Rucksack', 'Jacke']",475.26557440008037,475.2683008001186,None,475.26842620014213,475.26986310002394,None,,,475.2699744000565,475.2714166000951,None,475.2715266000014,475.27271090005524,475.27272360003553,481.2757274999749,1,,,,,,,,,,,,,,,,,,,,,,,,,,,,,,,,,,,,,,,,,,,,,,2,2023-12-06_13h58.49.290,watkins1,2023.2.3,99.74942952239807,50,2023-12-06 13h58.58.461084 +0000,
,,,,,,,,,,,,,,,,,,,,,,,,,,,,,,,,,,,,,,,,,,,,,,,,,,,,,,,,,,,,,,,,,,,,,,,2,,,,,,,,,,,,,,,,,,,,,,,,,,,,,,,,,,,,,,,,,,,,,,,,,,,,,,,,,,,,,,,,,,,,,,2,2023-12-06_13h58.49.290,watkins1,2023.2.3,99.74942952239807,50,2023-12-06 13h58.58.461084 +0000,
(28 : 7) - 3 = 1 ,Correct,button_correct,,,,,,,,,,,,,0,0,0,0,,,,,,,,,498.7978083000053,,,,,,,,,,497.7652745000087,498.7691210999619,,,,,['button_correct'],[15.006175999995321],,,,,,,,,,,,,,,,,,,,,,,,,,distractorTask,2,,,,,,,,,,,,,,,,,,,,,,,,,498.78597990004346,498.7978083000053,513.7977082999423,[0.31666666666666665],[-0.3962962962962963],[1],[0],[0],[15.006175999995321],['button_correct'],513.7984243000392,514.8017307999544,,,,,,,,,,,,,,,,,,,,,,,,,,,,,,,,,,2,2023-12-06_13h58.49.290,watkins1,2023.2.3,99.74942952239807,50,2023-12-06 13h58.58.461084 +0000,
(4 : 2) + 4 = 6 ,Correct,button_correct,,,,,,,,,,,,,0,1,1,1,,,,,,,,,514.8117174999788,,,,,,,,,,,,,,,,['button_correct'],[4.656554100103676],,,,,,,,,,,,,,,,,,,,,,,,,,distractorTask,2,,,,,,,,,,,,,,,,,,,,,,,,,514.8019266000483,514.8117174999788,519.4611130000558,[0.2962962962962963],[-0.4101851851851852],[1],[0],[0],[4.656554100103676],['button_correct'],519.4614985000808,520.4645660999231,,,,,,,,,,,,,,,,,,,,,,,,,,,,,,,,,,2,2023-12-06_13h58.49.290,watkins1,2023.2.3,99.74942952239807,50,2023-12-06 13h58.58.461084 +0000,
(7 x 6) + 9 = 48 ,Incorrect,button_incorrect,,,,,,,,,,,,,0,2,2,9,,,,,,,,,520.4745974999387,,,,,,,,,,,,,,,,['button_incorrect'],[6.544096200028434],,,,,,,,,,,,,,,,,,,,,,,,,,distractorTask,2,,,,,,,,,,,,,,,,,,,,,,,,,520.4647552999668,520.4745974999387,527.0122017001268,[-0.32592592592592595],[-0.387037037037037],[1],[0],[0],[6.544096200028434],['button_incorrect'],527.0125877999235,528.0156855999958,,,,,,,,,,,,,,,,,,,,,,,,,,,,,,,,,,2,2023-12-06_13h58.49.290,watkins1,2023.2.3,99.74942952239807,50,2023-12-06 13h58.58.461084 +0000,
(54 : 6) - 10 = 0 ,Incorrect,button_incorrect,,,,,,,,,,,,,0,3,3,5,,,,,,,,,528.025731800124,,,,,,,,,,,,,,,,['button_incorrect'],[4.6165885999798775],,,,,,,,,,,,,,,,,,,,,,,,,,distractorTask,2,,,,,,,,,,,,,,,,,,,,,,,,,528.0158736000303,528.025731800124,532.6354485000484,[-0.3574074074074074],[-0.4148148148148148],[1],[0],[0],[4.6165885999798775],['button_incorrect'],532.6358336999547,533.639173100004,,,,,,,,,,,,,,,,,,,,,,,,,,,,,,,,,,2,2023-12-06_13h58.49.290,watkins1,2023.2.3,99.74942952239807,50,2023-12-06 13h58.58.461084 +0000,
(25 : 5) + 5 = 9 ,Incorrect,button_incorrect,,,,,,,,,,,,,0,4,4,6,,,,,,,,,533.6491684999783,,,,,,,,,,,,,,,,['button_incorrect'],"[6.394152000080794, 6.826105899875984]",,,,,,,,,,,,,,,,,,,,,,,,,,distractorTask,2,,,,,,,,,,,,,,,,,,,,,,,,,533.6393583000172,533.6491684999783,540.4673258999828,"[-0.3074074074074074, -0.3074074074074074]","[-0.42592592592592593, -0.4148148148148148]","[1, 1]","[0, 0]","[0, 0]","[6.394152000080794, 6.826105899875984]",['button_incorrect'],540.4677381000947,541.4709334999789,,,,,,,,,,,,,,,,,,,,,,,,,,,,,,,,,,2,2023-12-06_13h58.49.290,watkins1,2023.2.3,99.74942952239807,50,2023-12-06 13h58.58.461084 +0000,
(40 : 5) + 8 = 15 ,Incorrect,button_incorrect,,,,,,,,,,,,,0,5,5,7,,,,,,,,,541.4809143999591,,,,,,,,,,,,,,,,['button_incorrect'],[12.771533799823374],,,,,,,,,,,,,,,,,,,,,,,,,,distractorTask,2,,,,,,,,,,,,,,,,,,,,,,,,,541.471123999916,541.4809143999591,554.2444075001404,[-0.29444444444444445],[-0.42314814814814816],[1],[0],[0],[12.771533799823374],['button_incorrect'],554.2447981000878,555.2478853000794,,,,,,,,,,,,,,,,,,,,,,,,,,,,,,,,,,2,2023-12-06_13h58.49.290,watkins1,2023.2.3,99.74942952239807,50,2023-12-06 13h58.58.461084 +0000,
(6 x 3) + 10 = 27 ,Incorrect,button_incorrect,,,,,,,,,,,,,0,6,6,8,,,,,,,,,555.2578696999699,,,,,,,,,,,,,,,,['button_incorrect'],[11.113908699946478],,,,,,,,,,,,,,,,,,,,,,,,,,distractorTask,2,,,,,,,,,,,,,,,,,,,,,,,,,555.2480717999861,555.2578696999699,566.3638822000939,[-0.3314814814814815],[-0.38055555555555554],[1],[0],[0],[11.113908699946478],['button_incorrect'],566.3642736999318,567.3673568000086,,,,,,,,,,,,,,,,,,,,,,,,,,,,,,,,,,2,2023-12-06_13h58.49.290,watkins1,2023.2.3,99.74942952239807,50,2023-12-06 13h58.58.461084 +0000,
(2 x 5) + 3 = 13 ,Correct,button_correct,,,,,,,,,,,,,0,7,7,2,,,,,,,,,567.3774311000016,,,,,,,,,,,,,,,,['button_correct'],[2.4482851000502706],,,,,,,,,,,,,,,,,,,,,,,,,,distractorTask,2,,,,,,,,,,,,,,,,,,,,,,,,,567.3675494999625,567.3774311000016,569.8177684000693,[0.41203703703703703],[-0.4009259259259259],[1],[0],[0],[2.4482851000502706],['button_correct'],569.8181505999528,570.821521700127,,,,,,,,,,,,,,,,,,,,,,,,,,,,,,,,,,2,2023-12-06_13h58.49.290,watkins1,2023.2.3,99.74942952239807,50,2023-12-06 13h58.58.461084 +0000,
(9 x 5) - 9 = 36 ,Correct,button_correct,,,,,,,,,,,,,0,8,8,4,,,,,,,,,570.831510100048,,,,,,,,,,,,,,,,['button_incorrect'],[11.855153399985284],,,,,,,,,,,,,,,,,,,,,,,,,,distractorTask,2,,,,,,,,,,,,,,,,,,,,,,,,,570.8217148999684,570.831510100048,582.678596300073,[-0.32592592592592595],[-0.4148148148148148],[1],[0],[0],[11.855153399985284],['button_incorrect'],582.6789891000371,583.6821574999485,,,,,,,,,,,,,,,,,,,,,,,,,,,,,,,,,,2,2023-12-06_13h58.49.290,watkins1,2023.2.3,99.74942952239807,50,2023-12-06 13h58.58.461084 +0000,
(80 : 10) + 9 = 17 ,Correct,button_correct,,,,,,,,,,,,,0,9,9,3,,,,,,,,,583.6920956000686,,,,,,,,,,,,,,,,['button_incorrect'],[5.380308500025421],,,,,,,,,,,,,,,,,,,,,,,,,,distractorTask,2,,,,,,,,,,,,,,,,,,,,,,,,,583.6823559000622,583.6920956000686,589.0645677999128,[-0.37592592592592594],[-0.4166666666666667],[1],[0],[0],[5.380308500025421],['button_incorrect'],589.0649530000519,590.0681211999618,,,,,,,,,,,,,,,,,,,,,,,,,,,,,,,,,,2,2023-12-06_13h58.49.290,watkins1,2023.2.3,99.74942952239807,50,2023-12-06 13h58.58.461084 +0000,
,,,,,,,,,,,,,,,,,,,,,,,,,,,,,,,,,,,,,,,,,,,,,,,,,,,,,,,,,,,,,,,,,,,,,,,2,,,,,,,,,,,,,,,,,,,,,,,,,,,,,,,,,,,,,,,,,,,,,,,,,,,,,,,,,,,,,,,,,,,,,,2,2023-12-06_13h58.49.290,watkins1,2023.2.3,99.74942952239807,50,2023-12-06 13h58.58.461084 +0000,
,,,,,,,,,,,,,,,,,,,0,0,0,0,,,,,605.2281561000273,,,,,,,,,,,,,,,,Hund,64.48535529989749,,,,,,,,,,,,3.6029576000291854,62.383340399945155,,,,,,,,,,,,,freeRecallSub,2,,,,,,,,,,,,,,,,,,,,,,,,,,,,,,,,,,,,,605.2206518000457,605.2281561000273,605.2281561000273,669.7219998000655,return,64.48535529989749,None,Hund,[-0.021296296296296296],[0.049074074074074076],[1],[0],[0],[2.4578615000937134],[],,,,,,,,,,,,,,,,,,,2,2023-12-06_13h58.49.290,watkins1,2023.2.3,99.74942952239807,50,2023-12-06 13h58.58.461084 +0000,
,,,,,,,,,,,,,,,,,,,1,0,1,0,,,,,669.7339383999351,,,,,,,,,,,,,,,,Lampe,6.451511200051755,,,,,,,,,,,,1.0356775999534875,None,,,,,,,,,,,,,freeRecallSub,2,,,,,,,,,,,,,,,,,,,,,,,,,,,,,,,,,,,,,669.7238398001064,669.7339383999351,669.7339383999351,676.1915001999587,return,6.451511200051755,None,Lampe,[],[],[],[],[],[],[],,,,,,,,,,,,,,,,,,,2,2023-12-06_13h58.49.290,watkins1,2023.2.3,99.74942952239807,50,2023-12-06 13h58.58.461084 +0000,
,,,,,,,,,,,,,,,,,,,2,0,2,0,,,,,676.2022907000501,,,,,,,,,,,,,,,,Katze,3.7911445999052376,,,,,,,,,,,,2.0380734999198467,None,,,,,,,,,,,,,freeRecallSub,2,,,,,,,,,,,,,,,,,,,,,,,,,,,,,,,,,,,,,676.1927734001074,676.2022907000501,676.2022907000501,679.9982658000663,return,3.7911445999052376,None,Katze,[],[],[],[],[],[],[],,,,,,,,,,,,,,,,,,,2,2023-12-06_13h58.49.290,watkins1,2023.2.3,99.74942952239807,50,2023-12-06 13h58.58.461084 +0000,
,,,,,,,,,,,,,,,,,,,3,0,3,0,,,,,680.0088400000241,,,,,,,,,,,,,,,,Flasche,5.544582000002265,,,,,,,,,,,,0.6726581000257283,None,,,,,,,,,,,,,freeRecallSub,2,,,,,,,,,,,,,,,,,,,,,,,,,,,,,,,,,,,,,679.9995188000612,680.0088400000241,680.0088400000241,685.5621376999188,return,5.544582000002265,None,Flasche,[],[],[],[],[],[],[],,,,,,,,,,,,,,,,,,,2,2023-12-06_13h58.49.290,watkins1,2023.2.3,99.74942952239807,50,2023-12-06 13h58.58.461084 +0000,
,,,,,,,,,,,,,,,,,,,4,0,4,0,,,,,685.5733954999596,,,,,,,,,,,,,,,,Fahrrad,2.5961255999282002,,,,,,,,,,,,0.3021623999811709,None,,,,,,,,,,,,,freeRecallSub,2,,,,,,,,,,,,,,,,,,,,,,,,,,,,,,,,,,,,,685.5634109999519,685.5733954999596,685.5733954999596,688.175668900134,return,2.5961255999282002,None,Fahrrad,[],[],[],[],[],[],[],,,,,,,,,,,,,,,,,,,2,2023-12-06_13h58.49.290,watkins1,2023.2.3,99.74942952239807,50,2023-12-06 13h58.58.461084 +0000,
,,,,,,,,,,,,,,,,,,,5,0,5,0,,,,,688.1864938000217,,,,,,,,,,,,,,,,Ring,5.710892099887133,,,,,,,,,,,,1.4258226999081671,2.530212299898267,,,,,,,,,,,,,freeRecallSub,2,,,,,,,,,,,,,,,,,,,,,,,,,,,,,,,,,,,,,688.176942900056,688.1864938000217,688.1864938000217,693.9002622999251,return,5.710892099887133,None,Ring,[],[],[],[],[],[],[],,,,,,,,,,,,,,,,,,,2,2023-12-06_13h58.49.290,watkins1,2023.2.3,99.74942952239807,50,2023-12-06 13h58.58.461084 +0000,
,,,,,,,,,,,,,,,,,,,6,0,6,0,,,,,693.9118514999282,,,,,,,,,,,,,,,,Teller,11.529732999857515,,,,,,,,,,,,2.5014899999368936,4.660222900100052,,,,,,,,,,,,,freeRecallSub,2,,,,,,,,,,,,,,,,,,,,,,,,,,,,,,,,,,,,,693.901532500051,693.9118514999282,693.9118514999282,705.450862800004,return,11.529732999857515,None,Teller,[],[],[],[],[],[],[],,,,,,,,,,,,,,,,,,,2,2023-12-06_13h58.49.290,watkins1,2023.2.3,99.74942952239807,50,2023-12-06 13h58.58.461084 +0000,
,,,,,,,,,,,,,,,,,,,7,0,7,0,,,,,705.4656555000693,,,,,,,,,,,,,,,,Rucksack,5.359685699921101,,,,,,,,,,,,2.6387698999606073,None,,,,,,,,,,,,,freeRecallSub,2,,,,,,,,,,,,,,,,,,,,,,,,,,,,,,,,,,,,,705.4529757001437,705.4656555000693,705.4656555000693,710.8330234999303,return,5.359685699921101,None,Rucksack,[],[],[],[],[],[],[],,,,,,,,,,,,,,,,,,,2,2023-12-06_13h58.49.290,watkins1,2023.2.3,99.74942952239807,50,2023-12-06 13h58.58.461084 +0000,
,,,,,,,,,,,,,,,,,,,8,0,8,0,,,,,710.8451598000247,,,,,,,,,,,,,,,,Jacke,7.788314300123602,,,,,,,,,,,,5.374698099913076,None,,,,,,,,,,,,,freeRecallSub,2,,,,,,,,,,,,,,,,,,,,,,,,,,,,,,,,,,,,,710.8344018999487,710.8451598000247,710.8451598000247,718.6391070999671,return,7.788314300123602,None,Jacke,[],[],[],[],[],[],[],,,,,,,,,,,,,,,,,,,2,2023-12-06_13h58.49.290,watkins1,2023.2.3,99.74942952239807,50,2023-12-06 13h58.58.461084 +0000,
,,,,,,,,,,,,,,,,,,,9,0,9,0,,,,,718.6512196001131,,,,,,,,,,,,,,,,,[],,,,,,,,,,,,0.9865922001190484,8.39669240009971,,,,,,,,,,,,,freeRecallSub,2,,,,,,,,,,,,,,,,,,,,,,,,,,,,,,,,,,,,,718.6403850999195,718.6512196001131,718.6512196001131,780.1047134001274,None,,,,[0.4074074074074074],[-0.4166666666666667],[1],[0],[0],[61.459704200038686],['button_continue'],,,,,,,,,,,,,,,,,,,2,2023-12-06_13h58.49.290,watkins1,2023.2.3,99.74942952239807,50,2023-12-06 13h58.58.461084 +0000,
,,,,,,,,,,,,,,,,,,,,,,,,,,,,,,,,,,,,,,,,,,,,,,,,,,,,,,,,,,,,,,,,,,,,,,,2,,,,,,,,,,,,,,,,,,,,,,,,,,,,,,,,,,,,,,,,,,,,,,,,,,,,,,,,,,,,,,,,,,,,,,2,2023-12-06_13h58.49.290,watkins1,2023.2.3,99.74942952239807,50,2023-12-06 13h58.58.461084 +0000,
,,,,,,,,,,,,,,,,,,,,,,,0,0,0,0,787.8057532000821,,,,,,,,,,,,800.4112716000527,800.9095139000565,,,,12.59553509997204,,,,,,,,,,,,None,None,,,,,,,,,,Telefon,,,cuedRecallAdj,2,,,,,,,,,,,,,,,,,,,,,,,,0,,,,,,,,,,,,,,,,,,,,,,,,,,,,787.7967588000465,787.8057532000821,787.8057532000821,800.4078921999317,kratzig,return,12.59553509997204,None,800.4082941000815,800.4174246001057,800.4174246001057,800.411120200064,,None,,,,,2,2023-12-06_13h58.49.290,watkins1,2023.2.3,99.74942952239807,50,2023-12-06 13h58.58.461084 +0000,
,,,,,,,,,,,,,,,,,,,,,,,1,0,1,0,800.9194171000272,,,,,,,,,,,,804.1359431999736,804.6348709999584,,,,3.2099576999899,,,,,,,,,,,,None,None,,,,,,,,,,Bürste,,,cuedRecallAdj,2,,,,,,,,,,,,,,,,,,,,,,,,0,,,,,,,,,,,,,,,,,,,,,,,,,,,,800.909759500064,800.9194171000272,800.9194171000272,804.1329272999428,flach,return,3.2099576999899,None,804.1332006999291,804.1424450001214,804.1424450001214,804.1358412001282,,None,,,,,2,2023-12-06_13h58.49.290,watkins1,2023.2.3,99.74942952239807,50,2023-12-06 13h58.58.461084 +0000,
,,,,,,,,,,,,,,,,,,,,,,,2,0,2,0,804.644770800136,,,,,,,,,,,,808.4737474999856,808.9725337000564,,,,3.8207231000997126,,,,,,,,,,,,None,None,,,,,,,,,,Schere,,,cuedRecallAdj,2,,,,,,,,,,,,,,,,,,,,,,,,0,,,,,,,,,,,,,,,,,,,,,,,,,,,,804.635117799975,804.644770800136,804.644770800136,808.4708811000455,lang,return,3.8207231000997126,None,808.4711521000136,808.4803657999728,808.4803657999728,808.4736458000261,,None,,,,,2,2023-12-06_13h58.49.290,watkins1,2023.2.3,99.74942952239807,50,2023-12-06 13h58.58.461084 +0000,
,,,,,,,,,,,,,,,,,,,,,,,3,0,3,0,808.9824638001155,,,,,,,,,,,,817.1997666999232,817.6982561000623,,,,8.210894099902362,,,,,,,,,,,,None,None,,,,,,,,,,Socke,,,cuedRecallAdj,2,,,,,,,,,,,,,,,,,,,,,,,,0,,,,,,,,,,,,,,,,,,,,,,,,,,,,808.972771700006,808.9824638001155,808.9824638001155,817.1967496001162,winzig,return,8.210894099902362,None,817.1970210999716,817.2062679000665,817.2062679000665,817.1996647000778,,None,,,,,2,2023-12-06_13h58.49.290,watkins1,2023.2.3,99.74942952239807,50,2023-12-06 13h58.58.461084 +0000,
,,,,,,,,,,,,,,,,,,,,,,,4,0,4,0,817.7083159000613,,,,,,,,,,,,820.8344447999261,821.3331337000709,,,,3.116917100036517,,,,,,,,,,,,None,None,,,,,,,,,,Schlüssel,,,cuedRecallAdj,2,,,,,,,,,,,,,,,,,,,,,,,,0,,,,,,,,,,,,,,,,,,,,,,,,,,,,817.6984954001382,817.7083159000613,817.7083159000613,820.8314024999272,bunt,return,3.116917100036517,None,820.831688700011,820.8410656999331,820.8410656999331,820.8343422999606,,None,,,,,2,2023-12-06_13h58.49.290,watkins1,2023.2.3,99.74942952239807,50,2023-12-06 13h58.58.461084 +0000,
,,,,,,,,,,,,,,,,,,,,,,,5,0,5,0,821.3430805001408,,,,,,,,,,,,823.4852801000234,823.9838968999684,,,,2.138204399961978,,,,,,,,,,,,None,None,,,,,,,,,,Ring,,,cuedRecallAdj,2,,,,,,,,,,,,,,,,,,,,,,,,0,,,,,,,,,,,,,,,,,,,,,,,,,,,,821.3333779999521,821.3430805001408,821.3430805001408,823.4822420999408,teuer,return,2.138204399961978,None,823.4825100000016,823.4918120000511,823.4918120000511,823.4851772000547,,None,,,,,2,2023-12-06_13h58.49.290,watkins1,2023.2.3,99.74942952239807,50,2023-12-06 13h58.58.461084 +0000,
,,,,,,,,,,,,,,,,,,,,,,,6,0,6,0,823.993851599982,,,,,,,,,,,,828.2146389000118,828.71319889999,,,,4.215470700059086,,,,,,,,,,,,None,None,,,,,,,,,,Rucksack,,,cuedRecallAdj,2,,,,,,,,,,,,,,,,,,,,,,,,0,,,,,,,,,,,,,,,,,,,,,,,,,,,,823.984138000058,823.993851599982,823.993851599982,828.2115267000627,kratzig,return,4.215470700059086,None,828.2117999999318,828.2211472000927,828.2211472000927,828.2145352000371,,None,,,,,2,2023-12-06_13h58.49.290,watkins1,2023.2.3,99.74942952239807,50,2023-12-06 13h58.58.461084 +0000,
,,,,,,,,,,,,,,,,,,,,,,,7,0,7,0,828.723138500005,,,,,,,,,,,,831.7185204001144,832.2173969999421,,,,2.9901578000281006,,,,,,,,,,,,None,None,,,,,,,,,,Jacke,,,cuedRecallAdj,2,,,,,,,,,,,,,,,,,,,,,,,,0,,,,,,,,,,,,,,,,,,,,,,,,,,,,828.7134483000264,828.723138500005,828.723138500005,831.715730200056,dick,return,2.9901578000281006,None,831.7159927000757,831.7252903999761,831.7252903999761,831.7184202999342,,None,,,,,2,2023-12-06_13h58.49.290,watkins1,2023.2.3,99.74942952239807,50,2023-12-06 13h58.58.461084 +0000,
,,,,,,,,,,,,,,,,,,,,,,,8,0,8,0,832.2273452000227,,,,,,,,,,,,842.1105709001422,842.609600200085,,,,9.878021199954674,,,,,,,,,,,,None,None,,,,,,,,,,Blume,,,cuedRecallAdj,2,,,,,,,,,,,,,,,,,,,,,,,,0,,,,,,,,,,,,,,,,,,,,,,,,,,,,832.2176441999618,832.2273452000227,832.2273452000227,842.1081364999991,,return,9.878021199954674,None,842.1084080000874,842.1176942000166,842.1176942000166,842.1104691999499,,None,,,,,2,2023-12-06_13h58.49.290,watkins1,2023.2.3,99.74942952239807,50,2023-12-06 13h58.58.461084 +0000,
,,,,,,,,,,,,,,,,,,,,,,,9,0,9,0,842.619521799963,,,,,,,,,,,,849.2805196000263,849.7787904001307,,,,6.653707900084555,,,,,,,,,,,,None,None,,,,,,,,,,Kette,,,cuedRecallAdj,2,,,,,,,,,,,,,,,,,,,,,,,,0,,,,,,,,,,,,,,,,,,,,,,,,,,,,842.6098490001168,842.619521799963,842.619521799963,849.2771658001002,dunekl,return,6.653707900084555,None,849.2774605001323,849.2867640999611,849.2867640999611,849.2804191999603,,None,,,,,2,2023-12-06_13h58.49.290,watkins1,2023.2.3,99.74942952239807,50,2023-12-06 13h58.58.461084 +0000,
,,,,,,,,,,,,,,,,,,,,,,,10,0,10,0,849.7887830000836,,,,,,,,,,,,852.5237781000324,853.022336000111,,,,2.724501500139013,,,,,,,,,,,,None,None,,,,,,,,,,Trommel,,,cuedRecallAdj,2,,,,,,,,,,,,,,,,,,,,,,,,0,,,,,,,,,,,,,,,,,,,,,,,,,,,,849.7790385000408,849.7887830000836,849.7887830000836,852.5205507001374,klobig,return,2.724501500139013,None,852.5208179999609,852.5303688000422,852.5303688000422,852.5236722000409,,None,,,,,2,2023-12-06_13h58.49.290,watkins1,2023.2.3,99.74942952239807,50,2023-12-06 13h58.58.461084 +0000,
,,,,,,,,,,,,,,,,,,,,,,,11,0,11,0,853.0322839000728,,,,,,,,,,,,869.9248939999379,870.4236020001117,,,,16.881090300157666,,,,,,,,,,,,None,None,,,,,,,,,,Fahrrad,,,cuedRecallAdj,2,,,,,,,,,,,,,,,,,,,,,,,,0,,,,,,,,,,,,,,,,,,,,,,,,,,,,853.0225762999617,853.0322839000728,853.0322839000728,869.9218446000014,lustig,return,16.881090300157666,None,869.9221167000942,869.9315542001277,869.9315542001277,869.924792899983,,None,,,,,2,2023-12-06_13h58.49.290,watkins1,2023.2.3,99.74942952239807,50,2023-12-06 13h58.58.461084 +0000,
,,,,,,,,,,,,,,,,,,,,,,,12,0,12,0,870.4335137000307,,,,,,,,,,,,873.8100447999313,874.2993088001385,,,,3.3676655997987837,,,,,,,,,,,,None,None,,,,,,,,,,Stift,,,cuedRecallAdj,2,,,,,,,,,,,,,,,,,,,,,,,,0,,,,,,,,,,,,,,,,,,,,,,,,,,,,870.4238523000386,870.4335137000307,870.4335137000307,873.8077611001208,,return,3.3676655997987837,None,873.8080275000539,873.8171916001011,873.8171916001011,873.8099440000951,,None,,,,,2,2023-12-06_13h58.49.290,watkins1,2023.2.3,99.74942952239807,50,2023-12-06 13h58.58.461084 +0000,
,,,,,,,,,,,,,,,,,,,,,,,13,0,13,0,874.309248900041,,,,,,,,,,,,879.9551451001316,880.4450435000472,,,,5.635963500011712,,,,,,,,,,,,None,None,,,,,,,,,,Buch,,,cuedRecallAdj,2,,,,,,,,,,,,,,,,,,,,,,,,0,,,,,,,,,,,,,,,,,,,,,,,,,,,,874.2995563999284,874.309248900041,874.309248900041,879.9532943000086,,return,5.635963500011712,None,879.9535650999751,879.963018800132,879.963018800132,879.9550383000169,,None,,,,,2,2023-12-06_13h58.49.290,watkins1,2023.2.3,99.74942952239807,50,2023-12-06 13h58.58.461084 +0000,
,,,,,,,,,,,,,,,,,,,,,,,14,0,14,0,880.4549476001412,,,,,,,,,,,,883.02786380006,883.5172932001296,,,,2.570265900110826,,,,,,,,,,,,None,None,,,,,,,,,,Uhr,,,cuedRecallAdj,2,,,,,,,,,,,,,,,,,,,,,,,,0,,,,,,,,,,,,,,,,,,,,,,,,,,,,880.4452875999268,880.4549476001412,880.4549476001412,883.0259629001375,,return,2.570265900110826,None,883.0262311999686,883.0355062000453,883.0355062000453,883.0277613000944,,None,,,,,2,2023-12-06_13h58.49.290,watkins1,2023.2.3,99.74942952239807,50,2023-12-06 13h58.58.461084 +0000,
,,,,,,,,,,,,,,,,,,,,,,,15,0,15,0,883.5271886999253,,,,,,,,,,,,890.4783860000316,890.9679563001264,,,,6.946077199885622,,,,,,,,,,,,None,None,,,,,,,,,,Hut,,,cuedRecallAdj,2,,,,,,,,,,,,,,,,,,,,,,,,0,,,,,,,,,,,,,,,,,,,,,,,,,,,,883.5175413999241,883.5271886999253,883.5271886999253,890.4765296999831,,return,6.946077199885622,None,890.4767988999374,890.4860495999455,890.4860495999455,890.4782829000615,,None,,,,,2,2023-12-06_13h58.49.290,watkins1,2023.2.3,99.74942952239807,50,2023-12-06 13h58.58.461084 +0000,
,,,,,,,,,,,,,,,,,,,,,,,16,0,16,0,890.9780198000371,,,,,,,,,,,,897.8303473999258,898.3288487000391,,,,6.8471316997893155,,,,,,,,,,,,None,None,,,,,,,,,,Würfel,,,cuedRecallAdj,2,,,,,,,,,,,,,,,,,,,,,,,,0,,,,,,,,,,,,,,,,,,,,,,,,,,,,890.9682012000121,890.9780198000371,890.9780198000371,897.8271496000234,winzig,return,6.8471316997893155,None,897.8274205999915,897.8368214000948,897.8368214000948,897.8302440000698,,None,,,,,2,2023-12-06_13h58.49.290,watkins1,2023.2.3,99.74942952239807,50,2023-12-06 13h58.58.461084 +0000,
,,,,,,,,,,,,,,,,,,,,,,,17,0,17,0,898.3387990000192,,,,,,,,,,,,917.761751000071,918.260213600006,,,,19.414470500079915,,,,,,,,,,,,None,None,,,,,,,,,,Tasse,,,cuedRecallAdj,2,,,,,,,,,,,,,,,,,,,,,,,,0,,,,,,,,,,,,,,,,,,,,,,,,,,,,898.3291082999203,898.3387990000192,898.3387990000192,917.7585193000268,glänzend,return,19.414470500079915,None,917.7588099001441,917.7680099001154,917.7680099001154,917.7616433000658,,None,,,,,2,2023-12-06_13h58.49.290,watkins1,2023.2.3,99.74942952239807,50,2023-12-06 13h58.58.461084 +0000,
,,,,,,,,,,,,,,,,,,,,,,,18,0,18,0,918.2701590999495,,,,,,,,,,,,922.933013800066,923.431511099916,,,,4.659048600122333,,,,,,,,,,,,None,None,,,,,,,,,,Löffel,,,cuedRecallAdj,2,,,,,,,,,,,,,,,,,,,,,,,,0,,,,,,,,,,,,,,,,,,,,,,,,,,,,918.2604664000683,918.2701590999495,918.2701590999495,922.9299105000682,schmutzig,return,4.659048600122333,None,922.9301811000332,922.9393877999391,922.9393877999391,922.9329087000806,,None,,,,,2,2023-12-06_13h58.49.290,watkins1,2023.2.3,99.74942952239807,50,2023-12-06 13h58.58.461084 +0000,
,,,,,,,,,,,,,,,,,,,,,,,19,0,19,0,923.441454899963,,,,,,,,,,,,931.638472000137,932.1372084999457,,,,8.191714500077069,,,,,,,,,,,,None,None,,,,,,,,,,Vase,,,cuedRecallAdj,2,,,,,,,,,,,,,,,,,,,,,,,,0,,,,,,,,,,,,,,,,,,,,,,,,,,,,923.431760400068,923.441454899963,923.441454899963,931.6354563999921,durchsichtig,return,8.191714500077069,None,931.6357269000728,931.6450342000462,931.6450342000462,931.638369299937,,None,,,,,2,2023-12-06_13h58.49.290,watkins1,2023.2.3,99.74942952239807,50,2023-12-06 13h58.58.461084 +0000,
,,,,,,,,,,,,,,,,,,,,,,,20,0,20,0,932.1471335999668,,,,,,,,,,,,935.1319617999252,935.621340099955,,,,2.9819662999361753,,,,,,,,,,,,None,None,,,,,,,,,,Kiste,,,cuedRecallAdj,2,,,,,,,,,,,,,,,,,,,,,,,,0,,,,,,,,,,,,,,,,,,,,,,,,,,,,932.1374638001435,932.1471335999668,932.1471335999668,935.129707199987,,return,2.9819662999361753,None,935.1299769000616,935.1391843000893,935.1391843000893,935.1318588000722,,None,,,,,2,2023-12-06_13h58.49.290,watkins1,2023.2.3,99.74942952239807,50,2023-12-06 13h58.58.461084 +0000,
,,,,,,,,,,,,,,,,,,,,,,,21,0,21,0,935.6312651000917,,,,,,,,,,,,951.1782788001001,951.6769526000135,,,,15.537913099862635,,,,,,,,,,,,None,None,,,,,,,,,,Lampe,,,cuedRecallAdj,2,,,,,,,,,,,,,,,,,,,,,,,,0,,,,,,,,,,,,,,,,,,,,,,,,,,,,935.6215907000005,935.6312651000917,935.6312651000917,951.1752263000235,flauschig,return,15.537913099862635,None,951.1754948000889,951.1848796999548,951.1848796999548,951.1781758000143,,None,,,,,2,2023-12-06_13h58.49.290,watkins1,2023.2.3,99.74942952239807,50,2023-12-06 13h58.58.461084 +0000,
,,,,,,,,,,,,,,,,,,,,,,,22,0,22,0,951.6870031999424,,,,,,,,,,,,956.179177199956,956.6776032999624,,,,4.4821192000526935,,,,,,,,,,,,None,None,,,,,,,,,,Flasche,,,cuedRecallAdj,2,,,,,,,,,,,,,,,,,,,,,,,,0,,,,,,,,,,,,,,,,,,,,,,,,,,,,951.6771992000286,951.6870031999424,951.6870031999424,956.1761105000041,dunkel,return,4.4821192000526935,None,956.1763808000833,956.1856104000472,956.1856104000472,956.1790742001031,,None,,,,,2,2023-12-06_13h58.49.290,watkins1,2023.2.3,99.74942952239807,50,2023-12-06 13h58.58.461084 +0000,
,,,,,,,,,,,,,,,,,,,,,,,23,0,23,0,956.6875438001007,,,,,,,,,,,,959.3210642000195,959.8105721001048,,,,2.6256394998636097,,,,,,,,,,,,None,None,,,,,,,,,,Eimer,,,cuedRecallAdj,2,,,,,,,,,,,,,,,,,,,,,,,,0,,,,,,,,,,,,,,,,,,,,,,,,,,,,956.677850499982,956.6875438001007,956.6875438001007,959.318771700142,,return,2.6256394998636097,None,959.3190425001085,959.3282662001438,959.3282662001438,959.3209603999276,,None,,,,,2,2023-12-06_13h58.49.290,watkins1,2023.2.3,99.74942952239807,50,2023-12-06 13h58.58.461084 +0000,
,,,,,,,,,,,,,,,,,,,,,,,24,0,24,0,959.8206241999287,,,,,,,,,,,,963.1576493000612,963.6563745001331,,,,3.3325302999000996,,,,,,,,,,,,None,None,,,,,,,,,,Tasche,,,cuedRecallAdj,2,,,,,,,,,,,,,,,,,,,,,,,,0,,,,,,,,,,,,,,,,,,,,,,,,,,,,959.8108153999783,959.8206241999287,959.8206241999287,963.1545899999328,kratzig,return,3.3325302999000996,None,963.1548584001139,963.1640608001035,963.1640608001035,963.1575474999845,,None,,,,,2,2023-12-06_13h58.49.290,watkins1,2023.2.3,99.74942952239807,50,2023-12-06 13h58.58.461084 +0000,
,,,,,,,,,,,,,,,,,,,,,,,25,0,25,0,963.6663188999519,,,,,,,,,,,,973.1382548999973,973.6369360000826,,,,9.462779300054535,,,,,,,,,,,,None,None,,,,,,,,,,Hammer,,,cuedRecallAdj,2,,,,,,,,,,,,,,,,,,,,,,,,0,,,,,,,,,,,,,,,,,,,,,,,,,,,,963.6566176000051,963.6663188999519,963.6663188999519,973.1353317000903,fest,return,9.462779300054535,None,973.1355997999199,973.1448884999845,973.1448884999845,973.1381509001367,,None,,,,,2,2023-12-06_13h58.49.290,watkins1,2023.2.3,99.74942952239807,50,2023-12-06 13h58.58.461084 +0000,
,,,,,,,,,,,,,,,,,,,,,,,26,0,26,0,973.6468418000732,,,,,,,,,,,,977.4649271999951,977.9545005999971,,,,3.8102334002032876,,,,,,,,,,,,None,None,,,,,,,,,,Kerze,,,cuedRecallAdj,2,,,,,,,,,,,,,,,,,,,,,,,,0,,,,,,,,,,,,,,,,,,,,,,,,,,,,973.6371802999638,973.6468418000732,973.6468418000732,977.4626313000917,,return,3.8102334002032876,None,977.4629178000614,977.4722840001341,977.4722840001341,977.4648259000387,,None,,,,,2,2023-12-06_13h58.49.290,watkins1,2023.2.3,99.74942952239807,50,2023-12-06 13h58.58.461084 +0000,
,,,,,,,,,,,,,,,,,,,,,,,27,0,27,0,977.9644178999588,,,,,,,,,,,,982.4362745000981,982.9346878000069,,,,4.460707100108266,,,,,,,,,,,,None,None,,,,,,,,,,Brille,,,cuedRecallAdj,2,,,,,,,,,,,,,,,,,,,,,,,,0,,,,,,,,,,,,,,,,,,,,,,,,,,,,977.9547470000107,977.9644178999588,977.9644178999588,982.4331350999419,gepunktet,return,4.460707100108266,None,982.4334042000119,982.4428517001215,982.4428517001215,982.4361723000184,,None,,,,,2,2023-12-06_13h58.49.290,watkins1,2023.2.3,99.74942952239807,50,2023-12-06 13h58.58.461084 +0000,
,,,,,,,,,,,,,,,,,,,,,,,28,0,28,0,982.9446580000222,,,,,,,,,,,,987.135788799962,987.6339116001036,,,,4.1844844000879675,,,,,,,,,,,,None,None,,,,,,,,,,Kamera,,,cuedRecallAdj,2,,,,,,,,,,,,,,,,,,,,,,,,0,,,,,,,,,,,,,,,,,,,,,,,,,,,,982.9349436999764,982.9446580000222,982.9446580000222,987.1324358999263,durchsichtit,return,4.1844844000879675,None,987.1327023999766,987.1419941999484,987.1419941999484,987.1356866001152,,None,,,,,2,2023-12-06_13h58.49.290,watkins1,2023.2.3,99.74942952239807,50,2023-12-06 13h58.58.461084 +0000,
,,,,,,,,,,,,,,,,,,,,,,,29,0,29,0,987.6439108999912,,,,,,,,,,,,994.7565043000504,995.2550691999495,,,,7.10124329989776,,,,,,,,,,,,None,None,,,,,,,,,,Geige,,,cuedRecallAdj,2,,,,,,,,,,,,,,,,,,,,,,,,0,,,,,,,,,,,,,,,,,,,,,,,,,,,,987.634153699968,987.6439108999912,987.6439108999912,994.7532166000456,nachhaltig,return,7.10124329989776,None,994.7534841001034,994.7629108000547,994.7629108000547,994.7564008000772,,None,,,,,2,2023-12-06_13h58.49.290,watkins1,2023.2.3,99.74942952239807,50,2023-12-06 13h58.58.461084 +0000,
,,,,,,,,,,,,,,,,,,,,,,,,,,,,,,,,,,,,,,,,,,,,,,,,,,,,,,,,,,,,,,,,,,,,,,,2,,,,,,,,,,,,,,,,,,,,,,,,,,,,,,,,,,,,,,,,,,,,,,,,,,,,,,,,,,,,,,,,,,995.2719727000222,q,1264.5438147999812,None,2,2023-12-06_13h58.49.290,watkins1,2023.2.3,99.74942952239807,50,2023-12-06 13h58.58.461084 +0000,
