Equation,CorrectResponse,Correctbutton,trials_7.thisRepN,trials_7.thisTrialN,trials_7.thisN,trials_7.thisIndex,trials.thisRepN,trials.thisTrialN,trials.thisN,trials.thisIndex,trials_3.thisRepN,trials_3.thisTrialN,trials_3.thisN,trials_3.thisIndex,trials_2.thisRepN,trials_2.thisTrialN,trials_2.thisN,trials_2.thisIndex,trials_4.thisRepN,trials_4.thisTrialN,trials_4.thisN,trials_4.thisIndex,trials_5.thisRepN,trials_5.thisTrialN,trials_5.thisN,trials_5.thisIndex,thisRow.t,notes,code_marius.started,code_marius.stopped,welcome.started,welcome.stopped,instruction_study.started,instruction_study.stopped,fixationcross.started,fixationcross.stopped,blanc.started,blanc.stopped,study_control_probe.started,study_control_probe.stopped,responseKey,responseTime,scale_answer_2.keys,study_control_probe_2.started,study_control_probe_2.stopped,scale_answer_3.keys,scale_answer_3.rt,scale_answer_3.duration,blanc_2.started,blanc_2.stopped,test_attr_probe.started,test_attr_probe.stopped,recalled_attr,firstKeyTime,secondWordTime,blanc_3.started,blanc_3.stopped,test_sub_probe.started,test_sub_probe.stopped,recalled_sub,instruction_probe_end.started,instruction_probe_end.stopped,study.started,study.stopped,substantive,adjective,wordpair,task,condition,liste_sub_phase1,liste_adj_phase1,scale_answer.keys,scale_answer.rt,scale_answer.duration,code_defineWordsInit.started,code_defineWordsInit.stopped,liste_sub_phase2,study_control.started,study_control.stopped,scale_answer_4.keys,scale_answer_4.rt,scale_answer_4.duration,restudy_same.started,restudy_same.stopped,scale_answer_5.keys,restudy_different.started,restudy_different.stopped,scale_answer_6.keys,test_attr.started,test_attr.stopped,test_sub.started,test_sub.stopped,scale_answer_6.rt,scale_answer_6.duration,distractortask.started,equation_text.started,distractortask.stopped,mouse_answer.x,mouse_answer.y,mouse_answer.leftButton,mouse_answer.midButton,mouse_answer.rightButton,mouse_answer.time,mouse_answer.clicked_name,feedback_distractortask.started,feedback_distractortask.stopped,free_recall.started,text_enter.started,key_resp.started,free_recall.stopped,key_resp.keys,key_resp.rt,key_resp.duration,free_recalled_sub,mouse_continue.x,mouse_continue.y,mouse_continue.leftButton,mouse_continue.midButton,mouse_continue.rightButton,mouse_continue.time,mouse_continue.clicked_name,cued_recall.started,text_enter_2.started,correct,key_continue.started,cued_recall.stopped,recalled_attr1,key_continue.keys,key_continue.rt,key_continue.duration,cued_recall_2.started,text_enter_3.started,key_continue_2.started,cued_recall_2.stopped,recalled_attr2,key_continue_2.keys,key_continue_2.rt,key_continue_2.duration,key_resp_8.started,key_resp_8.keys,key_resp_8.rt,key_resp_8.duration,condition,date,expName,psychopyVersion,frameRate,participant,expStart,
,,,,,,,,,,,,,,,,,,,,,,,,,,,,,0.13009270001202822,0.1301603999454528,0.13016860000789165,43.697640999918804,,,,,,,,,,,,,,,,,,,,,,,,,,,,,,,,,,,,,1,,,,,,,,,,,,,,,,,,,,,,,,,,,,,,,,,,,,,,,,,,,,,,,,,,,,,,,,,,,,,,,,,,,,,,,,,,1,2023-12-11_13h35.03.438,watkins1,2023.2.3,99.64119214209795,57,2023-12-11 13h35.28.826086 +0000,
,,,,,,,,,,,,,,,,,,,,,,,,,,,,,,,,,43.697690799832344,68.50978929991834,,,,,,,,,,,,,,,,,,,,,,,,,,,,,,,,,,,1,,,,,,,,,,,,,,,,,,,,,,,,,,,,,,,,,,,,,,,,,,,,,,,,,,,,,,,,,,,,,,,,,,,,,,,,,,1,2023-12-11_13h35.03.438,watkins1,2023.2.3,99.64119214209795,57,2023-12-11 13h35.28.826086 +0000,
,,,0,0,0,0,,,,,,,,,,,,,,,,,,,,,69.52345600002445,,,,,,,,68.50980709982105,69.51352089992724,76.0115441000089,76.50284319999628,70.00560439983383,76.01138179982081,2,3.230176999932155,None,76.50285369995981,82.50967970001511,2,3.230176999932155,None,82.50996719999239,82.50999099994078,82.50999799999408,82.5100775999017,,None,None,82.51024119998328,82.51026190002449,82.51026869984344,82.51034099981189,,,,,,,,,,1,,,,,,,,,,,,,,,,,,,,,,,,,,,,,,,,,,,,,,,,,,,,,,,,,,,,,,,,,,,,,,,,,,,,,,,,,,1,2023-12-11_13h35.03.438,watkins1,2023.2.3,99.64119214209795,57,2023-12-11 13h35.28.826086 +0000,
,,,,,,,,,,,,,,,,,,,,,,,,,,,,,,,,,,,,,,,,,,,,,,,,,,,,,,,,,,,,,82.51046429993585,87.73764729988761,,,,,,,1,,,,,,,,,,,,,,,,,,,,,,,,,,,,,,,,,,,,,,,,,,,,,,,,,,,,,,,,,,,,,,,,,,,,,,,,,,1,2023-12-11_13h35.03.438,watkins1,2023.2.3,99.64119214209795,57,2023-12-11 13h35.28.826086 +0000,
,,,,,,,0,0,0,0,,,,,,,,,,,,,,,,,88.7512374999933,,,,,,,,87.73766359989531,88.74126729997806,88.74170999997295,89.23339099995792,,,2,2.0688209999352694,,,,,,,,,,,,,,,,,,,,,89.23340139980428,95.24362209998071,Hammer,glatt,"['Hammer', 'glatt']",restudy_diff,1,"['Hammer', 'Stift', 'Jacke', 'Kerze', 'Kiste', 'Vase', 'Kette', 'Kamera', 'Buch', 'Würfel', 'Telefon', 'Schere', 'Eimer', 'Socke', 'Uhr', 'Tasche', 'Tasse', 'Geige', 'Schlüssel', 'Brille', 'Lampe', 'Bürste']",['glatt'],2,2.0688209999352694,None,,,,,,,,,,,,,,,,,,,,,,,,,,,,,,,,,,,,,,,,,,,,,,,,,,,,,,,,,,,,,,,,,,,,,1,2023-12-11_13h35.03.438,watkins1,2023.2.3,99.64119214209795,57,2023-12-11 13h35.28.826086 +0000,
,,,,,,,1,0,1,0,,,,,,,,,,,,,,,,,95.25304789980873,,,,,,,,,,95.2442189999856,95.73513449984603,,,1,2.5624383999966085,,,,,,,,,,,,,,,,,,,,,95.73514579981565,101.73941969987936,Stift,teuer,"['Stift', 'teuer']",restudy_diff,1,"['Hammer', 'Stift', 'Jacke', 'Kerze', 'Kiste', 'Vase', 'Kette', 'Kamera', 'Buch', 'Würfel', 'Telefon', 'Schere', 'Eimer', 'Socke', 'Uhr', 'Tasche', 'Tasse', 'Geige', 'Schlüssel', 'Brille', 'Lampe', 'Bürste']","['glatt', 'teuer']",1,2.5624383999966085,None,,,,,,,,,,,,,,,,,,,,,,,,,,,,,,,,,,,,,,,,,,,,,,,,,,,,,,,,,,,,,,,,,,,,,1,2023-12-11_13h35.03.438,watkins1,2023.2.3,99.64119214209795,57,2023-12-11 13h35.28.826086 +0000,
,,,,,,,2,0,2,0,,,,,,,,,,,,,,,,,101.74878539983183,,,,,,,,,,101.73989779991098,102.230902899988,,,2,1.562163099879399,,,,,,,,,,,,,,,,,,,,,102.23091279994696,108.23646389995702,Jacke,schwer,"['Jacke', 'schwer']",restudy_diff,1,"['Hammer', 'Stift', 'Jacke', 'Kerze', 'Kiste', 'Vase', 'Kette', 'Kamera', 'Buch', 'Würfel', 'Telefon', 'Schere', 'Eimer', 'Socke', 'Uhr', 'Tasche', 'Tasse', 'Geige', 'Schlüssel', 'Brille', 'Lampe', 'Bürste']","['glatt', 'teuer', 'schwer']",2,1.562163099879399,None,,,,,,,,,,,,,,,,,,,,,,,,,,,,,,,,,,,,,,,,,,,,,,,,,,,,,,,,,,,,,,,,,,,,,1,2023-12-11_13h35.03.438,watkins1,2023.2.3,99.64119214209795,57,2023-12-11 13h35.28.826086 +0000,
,,,,,,,3,0,3,0,,,,,,,,,,,,,,,,,108.24591859988868,,,,,,,,,,108.23694019997492,108.72817120002583,,,1,2.634335899958387,,,,,,,,,,,,,,,,,,,,,108.72818169998936,114.73242529993877,Kerze,zart,"['Kerze', 'zart']",control,1,"['Hammer', 'Stift', 'Jacke', 'Kerze', 'Kiste', 'Vase', 'Kette', 'Kamera', 'Buch', 'Würfel', 'Telefon', 'Schere', 'Eimer', 'Socke', 'Uhr', 'Tasche', 'Tasse', 'Geige', 'Schlüssel', 'Brille', 'Lampe', 'Bürste']","['glatt', 'teuer', 'schwer', 'zart']",1,2.634335899958387,None,,,,,,,,,,,,,,,,,,,,,,,,,,,,,,,,,,,,,,,,,,,,,,,,,,,,,,,,,,,,,,,,,,,,,1,2023-12-11_13h35.03.438,watkins1,2023.2.3,99.64119214209795,57,2023-12-11 13h35.28.826086 +0000,
,,,,,,,4,0,4,0,,,,,,,,,,,,,,,,,114.74198379996233,,,,,,,,,,114.73289310000837,115.22421249980107,,,2,1.986718300031498,,,,,,,,,,,,,,,,,,,,,115.22422239999287,121.23004139983095,Kiste,neu,"['Kiste', 'neu']",control,1,"['Hammer', 'Stift', 'Jacke', 'Kerze', 'Kiste', 'Vase', 'Kette', 'Kamera', 'Buch', 'Würfel', 'Telefon', 'Schere', 'Eimer', 'Socke', 'Uhr', 'Tasche', 'Tasse', 'Geige', 'Schlüssel', 'Brille', 'Lampe', 'Bürste']","['glatt', 'teuer', 'schwer', 'zart', 'neu']",2,1.986718300031498,None,,,,,,,,,,,,,,,,,,,,,,,,,,,,,,,,,,,,,,,,,,,,,,,,,,,,,,,,,,,,,,,,,,,,,1,2023-12-11_13h35.03.438,watkins1,2023.2.3,99.64119214209795,57,2023-12-11 13h35.28.826086 +0000,
,,,,,,,5,0,5,0,,,,,,,,,,,,,,,,,121.23946579988115,,,,,,,,,,121.23051579995081,121.72158389980905,,,1,1.5691599000710994,,,,,,,,,,,,,,,,,,,,,121.72159469989128,127.72638609982096,Vase,flach,"['Vase', 'flach']",control,1,"['Hammer', 'Stift', 'Jacke', 'Kerze', 'Kiste', 'Vase', 'Kette', 'Kamera', 'Buch', 'Würfel', 'Telefon', 'Schere', 'Eimer', 'Socke', 'Uhr', 'Tasche', 'Tasse', 'Geige', 'Schlüssel', 'Brille', 'Lampe', 'Bürste']","['glatt', 'teuer', 'schwer', 'zart', 'neu', 'flach']",1,1.5691599000710994,None,,,,,,,,,,,,,,,,,,,,,,,,,,,,,,,,,,,,,,,,,,,,,,,,,,,,,,,,,,,,,,,,,,,,,1,2023-12-11_13h35.03.438,watkins1,2023.2.3,99.64119214209795,57,2023-12-11 13h35.28.826086 +0000,
,,,,,,,6,0,6,0,,,,,,,,,,,,,,,,,127.73581240000203,,,,,,,,,,127.7268568999134,128.21790269995108,,,3,2.680556599982083,,,,,,,,,,,,,,,,,,,,,128.217912199907,134.22773699997924,Kette,robust,"['Kette', 'robust']",restudy_diff,1,"['Hammer', 'Stift', 'Jacke', 'Kerze', 'Kiste', 'Vase', 'Kette', 'Kamera', 'Buch', 'Würfel', 'Telefon', 'Schere', 'Eimer', 'Socke', 'Uhr', 'Tasche', 'Tasse', 'Geige', 'Schlüssel', 'Brille', 'Lampe', 'Bürste']","['glatt', 'teuer', 'schwer', 'zart', 'neu', 'flach', 'robust']",3,2.680556599982083,None,,,,,,,,,,,,,,,,,,,,,,,,,,,,,,,,,,,,,,,,,,,,,,,,,,,,,,,,,,,,,,,,,,,,,1,2023-12-11_13h35.03.438,watkins1,2023.2.3,99.64119214209795,57,2023-12-11 13h35.28.826086 +0000,
,,,,,,,7,0,7,0,,,,,,,,,,,,,,,,,134.23727419995703,,,,,,,,,,134.22820369992405,134.71932109980844,,,2,2.010242599993944,,,,,,,,,,,,,,,,,,,,,134.71933079999872,140.72288140002638,Kamera,glänzend,"['Kamera', 'glänzend']",restudy_diff,1,"['Hammer', 'Stift', 'Jacke', 'Kerze', 'Kiste', 'Vase', 'Kette', 'Kamera', 'Buch', 'Würfel', 'Telefon', 'Schere', 'Eimer', 'Socke', 'Uhr', 'Tasche', 'Tasse', 'Geige', 'Schlüssel', 'Brille', 'Lampe', 'Bürste']","['glatt', 'teuer', 'schwer', 'zart', 'neu', 'flach', 'robust', 'glänzend']",2,2.010242599993944,None,,,,,,,,,,,,,,,,,,,,,,,,,,,,,,,,,,,,,,,,,,,,,,,,,,,,,,,,,,,,,,,,,,,,,1,2023-12-11_13h35.03.438,watkins1,2023.2.3,99.64119214209795,57,2023-12-11 13h35.28.826086 +0000,
,,,,,,,8,0,8,0,,,,,,,,,,,,,,,,,140.73238729988225,,,,,,,,,,140.72335339989513,141.21427899994887,,,3,2.2525012001860887,,,,,,,,,,,,,,,,,,,,,141.21428889990784,147.22293779999018,Buch,schlicht,"['Buch', 'schlicht']",restudy_diff,1,"['Hammer', 'Stift', 'Jacke', 'Kerze', 'Kiste', 'Vase', 'Kette', 'Kamera', 'Buch', 'Würfel', 'Telefon', 'Schere', 'Eimer', 'Socke', 'Uhr', 'Tasche', 'Tasse', 'Geige', 'Schlüssel', 'Brille', 'Lampe', 'Bürste']","['glatt', 'teuer', 'schwer', 'zart', 'neu', 'flach', 'robust', 'glänzend', 'schlicht']",3,2.2525012001860887,None,,,,,,,,,,,,,,,,,,,,,,,,,,,,,,,,,,,,,,,,,,,,,,,,,,,,,,,,,,,,,,,,,,,,,1,2023-12-11_13h35.03.438,watkins1,2023.2.3,99.64119214209795,57,2023-12-11 13h35.28.826086 +0000,
,,,,,,,9,0,9,0,,,,,,,,,,,,,,,,,147.2324590999633,,,,,,,,,,147.2234143000096,147.71462400001474,,,1,1.5839849000331014,,,,,,,,,,,,,,,,,,,,,147.71463409997523,153.71599809988402,Würfel,dick,"['Würfel', 'dick']",control,1,"['Hammer', 'Stift', 'Jacke', 'Kerze', 'Kiste', 'Vase', 'Kette', 'Kamera', 'Buch', 'Würfel', 'Telefon', 'Schere', 'Eimer', 'Socke', 'Uhr', 'Tasche', 'Tasse', 'Geige', 'Schlüssel', 'Brille', 'Lampe', 'Bürste']","['glatt', 'teuer', 'schwer', 'zart', 'neu', 'flach', 'robust', 'glänzend', 'schlicht', 'dick']",1,1.5839849000331014,None,,,,,,,,,,,,,,,,,,,,,,,,,,,,,,,,,,,,,,,,,,,,,,,,,,,,,,,,,,,,,,,,,,,,,1,2023-12-11_13h35.03.438,watkins1,2023.2.3,99.64119214209795,57,2023-12-11 13h35.28.826086 +0000,
,,,,,,,10,0,10,0,,,,,,,,,,,,,,,,,153.72542169992812,,,,,,,,,,153.7164761000313,154.20741769997403,,,3,2.1556576997973025,,,,,,,,,,,,,,,,,,,,,154.20742799993604,160.22092559980229,Telefon,hässlich,"['Telefon', 'hässlich']",restudy_diff,1,"['Hammer', 'Stift', 'Jacke', 'Kerze', 'Kiste', 'Vase', 'Kette', 'Kamera', 'Buch', 'Würfel', 'Telefon', 'Schere', 'Eimer', 'Socke', 'Uhr', 'Tasche', 'Tasse', 'Geige', 'Schlüssel', 'Brille', 'Lampe', 'Bürste']","['glatt', 'teuer', 'schwer', 'zart', 'neu', 'flach', 'robust', 'glänzend', 'schlicht', 'dick', 'hässlich']",3,2.1556576997973025,None,,,,,,,,,,,,,,,,,,,,,,,,,,,,,,,,,,,,,,,,,,,,,,,,,,,,,,,,,,,,,,,,,,,,,1,2023-12-11_13h35.03.438,watkins1,2023.2.3,99.64119214209795,57,2023-12-11 13h35.28.826086 +0000,
,,,,,,,11,0,11,0,,,,,,,,,,,,,,,,,160.23031369992532,,,,,,,,,,160.22138649993576,160.71154919988476,,,1,1.6679441998712718,,,,,,,,,,,,,,,,,,,,,160.71156009985134,166.7126221000217,Schere,gestreift,"['Schere', 'gestreift']",restudy_diff,1,"['Hammer', 'Stift', 'Jacke', 'Kerze', 'Kiste', 'Vase', 'Kette', 'Kamera', 'Buch', 'Würfel', 'Telefon', 'Schere', 'Eimer', 'Socke', 'Uhr', 'Tasche', 'Tasse', 'Geige', 'Schlüssel', 'Brille', 'Lampe', 'Bürste']","['glatt', 'teuer', 'schwer', 'zart', 'neu', 'flach', 'robust', 'glänzend', 'schlicht', 'dick', 'hässlich', 'gestreift']",1,1.6679441998712718,None,,,,,,,,,,,,,,,,,,,,,,,,,,,,,,,,,,,,,,,,,,,,,,,,,,,,,,,,,,,,,,,,,,,,,1,2023-12-11_13h35.03.438,watkins1,2023.2.3,99.64119214209795,57,2023-12-11 13h35.28.826086 +0000,
,,,,,,,12,0,12,0,,,,,,,,,,,,,,,,,166.7220015998464,,,,,,,,,,166.71308939997107,167.20405870000832,,,1,2.1026832000352442,,,,,,,,,,,,,,,,,,,,,167.2040685999673,173.20574270002544,Eimer,nachhaltig,"['Eimer', 'nachhaltig']",restudy_diff,1,"['Hammer', 'Stift', 'Jacke', 'Kerze', 'Kiste', 'Vase', 'Kette', 'Kamera', 'Buch', 'Würfel', 'Telefon', 'Schere', 'Eimer', 'Socke', 'Uhr', 'Tasche', 'Tasse', 'Geige', 'Schlüssel', 'Brille', 'Lampe', 'Bürste']","['glatt', 'teuer', 'schwer', 'zart', 'neu', 'flach', 'robust', 'glänzend', 'schlicht', 'dick', 'hässlich', 'gestreift', 'nachhaltig']",1,2.1026832000352442,None,,,,,,,,,,,,,,,,,,,,,,,,,,,,,,,,,,,,,,,,,,,,,,,,,,,,,,,,,,,,,,,,,,,,,1,2023-12-11_13h35.03.438,watkins1,2023.2.3,99.64119214209795,57,2023-12-11 13h35.28.826086 +0000,
,,,,,,,13,0,13,0,,,,,,,,,,,,,,,,,173.2151714998763,,,,,,,,,,173.20621139998548,173.69732139981352,,,3,1.7702014001552016,,,,,,,,,,,,,,,,,,,,,173.69733199989423,179.69836759986356,Socke,biegsam,"['Socke', 'biegsam']",restudy_diff,1,"['Hammer', 'Stift', 'Jacke', 'Kerze', 'Kiste', 'Vase', 'Kette', 'Kamera', 'Buch', 'Würfel', 'Telefon', 'Schere', 'Eimer', 'Socke', 'Uhr', 'Tasche', 'Tasse', 'Geige', 'Schlüssel', 'Brille', 'Lampe', 'Bürste']","['glatt', 'teuer', 'schwer', 'zart', 'neu', 'flach', 'robust', 'glänzend', 'schlicht', 'dick', 'hässlich', 'gestreift', 'nachhaltig', 'biegsam']",3,1.7702014001552016,None,,,,,,,,,,,,,,,,,,,,,,,,,,,,,,,,,,,,,,,,,,,,,,,,,,,,,,,,,,,,,,,,,,,,,1,2023-12-11_13h35.03.438,watkins1,2023.2.3,99.64119214209795,57,2023-12-11 13h35.28.826086 +0000,
,,,,,,,14,0,14,0,,,,,,,,,,,,,,,,,179.7079117000103,,,,,,,,,,179.69884139997885,180.1900331999641,,,1,2.8049288999754936,,,,,,,,,,,,,,,,,,,,,180.1900431998074,186.192679699976,Uhr,lang,"['Uhr', 'lang']",restudy_diff,1,"['Hammer', 'Stift', 'Jacke', 'Kerze', 'Kiste', 'Vase', 'Kette', 'Kamera', 'Buch', 'Würfel', 'Telefon', 'Schere', 'Eimer', 'Socke', 'Uhr', 'Tasche', 'Tasse', 'Geige', 'Schlüssel', 'Brille', 'Lampe', 'Bürste']","['glatt', 'teuer', 'schwer', 'zart', 'neu', 'flach', 'robust', 'glänzend', 'schlicht', 'dick', 'hässlich', 'gestreift', 'nachhaltig', 'biegsam', 'lang']",1,2.8049288999754936,None,,,,,,,,,,,,,,,,,,,,,,,,,,,,,,,,,,,,,,,,,,,,,,,,,,,,,,,,,,,,,,,,,,,,,1,2023-12-11_13h35.03.438,watkins1,2023.2.3,99.64119214209795,57,2023-12-11 13h35.28.826086 +0000,
,,,,,,,15,0,15,0,,,,,,,,,,,,,,,,,186.2021063999273,,,,,,,,,,186.19315189984627,186.68413329985924,,,3,1.334959500003606,,,,,,,,,,,,,,,,,,,,,186.68414369993843,192.690425099805,Tasche,bunt,"['Tasche', 'bunt']",control,1,"['Hammer', 'Stift', 'Jacke', 'Kerze', 'Kiste', 'Vase', 'Kette', 'Kamera', 'Buch', 'Würfel', 'Telefon', 'Schere', 'Eimer', 'Socke', 'Uhr', 'Tasche', 'Tasse', 'Geige', 'Schlüssel', 'Brille', 'Lampe', 'Bürste']","['glatt', 'teuer', 'schwer', 'zart', 'neu', 'flach', 'robust', 'glänzend', 'schlicht', 'dick', 'hässlich', 'gestreift', 'nachhaltig', 'biegsam', 'lang', 'bunt']",3,1.334959500003606,None,,,,,,,,,,,,,,,,,,,,,,,,,,,,,,,,,,,,,,,,,,,,,,,,,,,,,,,,,,,,,,,,,,,,,1,2023-12-11_13h35.03.438,watkins1,2023.2.3,99.64119214209795,57,2023-12-11 13h35.28.826086 +0000,
,,,,,,,16,0,16,0,,,,,,,,,,,,,,,,,192.6997744999826,,,,,,,,,,192.6908966000192,193.18188049993478,,,2,1.9654784000013024,,,,,,,,,,,,,,,,,,,,,193.18189019989222,199.1920260998886,Tasse,kalt,"['Tasse', 'kalt']",restudy_diff,1,"['Hammer', 'Stift', 'Jacke', 'Kerze', 'Kiste', 'Vase', 'Kette', 'Kamera', 'Buch', 'Würfel', 'Telefon', 'Schere', 'Eimer', 'Socke', 'Uhr', 'Tasche', 'Tasse', 'Geige', 'Schlüssel', 'Brille', 'Lampe', 'Bürste']","['glatt', 'teuer', 'schwer', 'zart', 'neu', 'flach', 'robust', 'glänzend', 'schlicht', 'dick', 'hässlich', 'gestreift', 'nachhaltig', 'biegsam', 'lang', 'bunt', 'kalt']",2,1.9654784000013024,None,,,,,,,,,,,,,,,,,,,,,,,,,,,,,,,,,,,,,,,,,,,,,,,,,,,,,,,,,,,,,,,,,,,,,1,2023-12-11_13h35.03.438,watkins1,2023.2.3,99.64119214209795,57,2023-12-11 13h35.28.826086 +0000,
,,,,,,,17,0,17,0,,,,,,,,,,,,,,,,,199.20156269986182,,,,,,,,,,199.19250199990347,199.68357889982872,,,1,1.655039699980989,,,,,,,,,,,,,,,,,,,,,199.6835892999079,205.68861719989218,Geige,winzig,"['Geige', 'winzig']",control,1,"['Hammer', 'Stift', 'Jacke', 'Kerze', 'Kiste', 'Vase', 'Kette', 'Kamera', 'Buch', 'Würfel', 'Telefon', 'Schere', 'Eimer', 'Socke', 'Uhr', 'Tasche', 'Tasse', 'Geige', 'Schlüssel', 'Brille', 'Lampe', 'Bürste']","['glatt', 'teuer', 'schwer', 'zart', 'neu', 'flach', 'robust', 'glänzend', 'schlicht', 'dick', 'hässlich', 'gestreift', 'nachhaltig', 'biegsam', 'lang', 'bunt', 'kalt', 'winzig']",1,1.655039699980989,None,,,,,,,,,,,,,,,,,,,,,,,,,,,,,,,,,,,,,,,,,,,,,,,,,,,,,,,,,,,,,,,,,,,,,1,2023-12-11_13h35.03.438,watkins1,2023.2.3,99.64119214209795,57,2023-12-11 13h35.28.826086 +0000,
,,,,,,,18,0,18,0,,,,,,,,,,,,,,,,,205.69816369982436,,,,,,,,,,205.6890993998386,206.18012489983812,,,2,1.96724640019238,,,,,,,,,,,,,,,,,,,,,206.1801350999158,212.18888229993172,Schlüssel,gut,"['Schlüssel', 'gut']",control,1,"['Hammer', 'Stift', 'Jacke', 'Kerze', 'Kiste', 'Vase', 'Kette', 'Kamera', 'Buch', 'Würfel', 'Telefon', 'Schere', 'Eimer', 'Socke', 'Uhr', 'Tasche', 'Tasse', 'Geige', 'Schlüssel', 'Brille', 'Lampe', 'Bürste']","['glatt', 'teuer', 'schwer', 'zart', 'neu', 'flach', 'robust', 'glänzend', 'schlicht', 'dick', 'hässlich', 'gestreift', 'nachhaltig', 'biegsam', 'lang', 'bunt', 'kalt', 'winzig', 'gut']",2,1.96724640019238,None,,,,,,,,,,,,,,,,,,,,,,,,,,,,,,,,,,,,,,,,,,,,,,,,,,,,,,,,,,,,,,,,,,,,,1,2023-12-11_13h35.03.438,watkins1,2023.2.3,99.64119214209795,57,2023-12-11 13h35.28.826086 +0000,
,,,,,,,19,0,19,0,,,,,,,,,,,,,,,,,212.1983198998496,,,,,,,,,,212.1893535000272,212.68026539986022,,,1,2.1379531999118626,,,,,,,,,,,,,,,,,,,,,212.68027619994245,218.6820037998259,Brille,sportlich,"['Brille', 'sportlich']",restudy_diff,1,"['Hammer', 'Stift', 'Jacke', 'Kerze', 'Kiste', 'Vase', 'Kette', 'Kamera', 'Buch', 'Würfel', 'Telefon', 'Schere', 'Eimer', 'Socke', 'Uhr', 'Tasche', 'Tasse', 'Geige', 'Schlüssel', 'Brille', 'Lampe', 'Bürste']","['glatt', 'teuer', 'schwer', 'zart', 'neu', 'flach', 'robust', 'glänzend', 'schlicht', 'dick', 'hässlich', 'gestreift', 'nachhaltig', 'biegsam', 'lang', 'bunt', 'kalt', 'winzig', 'gut', 'sportlich']",1,2.1379531999118626,None,,,,,,,,,,,,,,,,,,,,,,,,,,,,,,,,,,,,,,,,,,,,,,,,,,,,,,,,,,,,,,,,,,,,,1,2023-12-11_13h35.03.438,watkins1,2023.2.3,99.64119214209795,57,2023-12-11 13h35.28.826086 +0000,
,,,,,,,20,0,20,0,,,,,,,,,,,,,,,,,218.6914359999355,,,,,,,,,,218.6824737000279,219.173505499959,,,2,3.04505080007948,,,,,,,,,,,,,,,,,,,,,219.17351559991948,225.17462820000947,Lampe,kaputt,"['Lampe', 'kaputt']",restudy_diff,1,"['Hammer', 'Stift', 'Jacke', 'Kerze', 'Kiste', 'Vase', 'Kette', 'Kamera', 'Buch', 'Würfel', 'Telefon', 'Schere', 'Eimer', 'Socke', 'Uhr', 'Tasche', 'Tasse', 'Geige', 'Schlüssel', 'Brille', 'Lampe', 'Bürste']","['glatt', 'teuer', 'schwer', 'zart', 'neu', 'flach', 'robust', 'glänzend', 'schlicht', 'dick', 'hässlich', 'gestreift', 'nachhaltig', 'biegsam', 'lang', 'bunt', 'kalt', 'winzig', 'gut', 'sportlich', 'kaputt']",2,3.04505080007948,None,,,,,,,,,,,,,,,,,,,,,,,,,,,,,,,,,,,,,,,,,,,,,,,,,,,,,,,,,,,,,,,,,,,,,1,2023-12-11_13h35.03.438,watkins1,2023.2.3,99.64119214209795,57,2023-12-11 13h35.28.826086 +0000,
,,,,,,,21,0,21,0,,,,,,,,,,,,,,,,,225.18405479984358,,,,,,,,,,225.17510370002128,225.66606649989262,,,1,2.321542600169778,,,,,,,,,,,,,,,,,,,,,225.6660766999703,231.66807929985225,Bürste,nass,"['Bürste', 'nass']",restudy_diff,1,"['Hammer', 'Stift', 'Jacke', 'Kerze', 'Kiste', 'Vase', 'Kette', 'Kamera', 'Buch', 'Würfel', 'Telefon', 'Schere', 'Eimer', 'Socke', 'Uhr', 'Tasche', 'Tasse', 'Geige', 'Schlüssel', 'Brille', 'Lampe', 'Bürste']","['glatt', 'teuer', 'schwer', 'zart', 'neu', 'flach', 'robust', 'glänzend', 'schlicht', 'dick', 'hässlich', 'gestreift', 'nachhaltig', 'biegsam', 'lang', 'bunt', 'kalt', 'winzig', 'gut', 'sportlich', 'kaputt', 'nass']",1,2.321542600169778,None,,,,,,,,,,,,,,,,,,,,,,,,,,,,,,,,,,,,,,,,,,,,,,,,,,,,,,,,,,,,,,,,,,,,,1,2023-12-11_13h35.03.438,watkins1,2023.2.3,99.64119214209795,57,2023-12-11 13h35.28.826086 +0000,
,,,,,,,,,,,0,0,0,0,,,,,,,,,,,,,231.67761429981329,,,,,,,,,,231.66889499989338,232.15964749990962,,,[],[],,,,,,,,,,,,None,None,,,,,,,,,,Löffel,kratzig,"['Löffel', 'kratzig']",control,1,,,,,,231.66882029990666,231.66886969981715,"['Löffel', 'Eimer', 'Rucksack', 'Jacke', 'Kamera', 'Socke', 'Trommel', 'Hut', 'Buch', 'Uhr', 'Ring', 'Blume', 'Bürste', 'Brille', 'Schere', 'Flasche', 'Lampe', 'Fahrrad', 'Stift', 'Hammer', 'Tasse', 'Kette', 'Telefon']",232.15965809999034,238.1638319999911,1,1.713874900015071,None,238.16421959991567,238.16690859990194,None,238.16705689998344,238.16968339984305,None,238.1698361998424,238.17102439980954,238.1710363999009,238.17222199984826,,,,,,,,,,,,,,,,,,,,,,,,,,,,,,,,,,,,,,,,,,,,,,,,,,,1,2023-12-11_13h35.03.438,watkins1,2023.2.3,99.64119214209795,57,2023-12-11 13h35.28.826086 +0000,
,,,,,,,,,,,1,0,1,0,,,,,,,,,,,,,238.17585180001333,,,,,,,,,,238.17249009991065,238.66937449993566,,,1,2.362135199829936,,,,,,,,,,,,None,None,,,,,,,,,,Eimer,elegant,"['Eimer', 'elegant']",restudy_diff,1,,,,,,238.1724266000092,238.17246499983594,"['Löffel', 'Eimer', 'Rucksack', 'Jacke', 'Kamera', 'Socke', 'Trommel', 'Hut', 'Buch', 'Uhr', 'Ring', 'Blume', 'Bürste', 'Brille', 'Schere', 'Flasche', 'Lampe', 'Fahrrad', 'Stift', 'Hammer', 'Tasse', 'Kette', 'Telefon']",238.66938570002094,238.671045999974,None,,,238.67116199992597,238.67259069997817,None,238.67269189981744,244.67452599992976,1,244.6748852999881,244.6761806998402,244.67619259981439,244.6774204999674,2.362135199829936,None,,,,,,,,,,,,,,,,,,,,,,,,,,,,,,,,,,,,,,,,,,,,,,,,,1,2023-12-11_13h35.03.438,watkins1,2023.2.3,99.64119214209795,57,2023-12-11 13h35.28.826086 +0000,
,,,,,,,,,,,2,0,2,0,,,,,,,,,,,,,244.68393169995397,,,,,,,,,,244.67769489996135,245.1761296999175,,,[],[],,,,,,,,,,,,None,None,,,,,,,,,,Rucksack,praktisch,"['Rucksack', 'praktisch']",control,1,,,,,,244.67762939981185,244.67766719986685,"['Löffel', 'Eimer', 'Rucksack', 'Jacke', 'Kamera', 'Socke', 'Trommel', 'Hut', 'Buch', 'Uhr', 'Ring', 'Blume', 'Bürste', 'Brille', 'Schere', 'Flasche', 'Lampe', 'Fahrrad', 'Stift', 'Hammer', 'Tasse', 'Kette', 'Telefon']",245.17613969999366,251.1814325999003,3,1.4582044000271708,None,251.181703499984,251.18451629998162,None,251.1846210998483,251.18730330001563,None,251.18740519997664,251.1886330000125,251.18864439986646,251.18988660001196,,,,,,,,,,,,,,,,,,,,,,,,,,,,,,,,,,,,,,,,,,,,,,,,,,,1,2023-12-11_13h35.03.438,watkins1,2023.2.3,99.64119214209795,57,2023-12-11 13h35.28.826086 +0000,
,,,,,,,,,,,3,0,3,0,,,,,,,,,,,,,251.19356259983033,,,,,,,,,,251.19015609985217,251.6873687999323,,,2,1.4325741999782622,,,,,,,,,,,,None,None,,,,,,,,,,Jacke,klobig,"['Jacke', 'klobig']",restudy_diff,1,,,,,,251.19009159994312,251.19013080000877,"['Löffel', 'Eimer', 'Rucksack', 'Jacke', 'Kamera', 'Socke', 'Trommel', 'Hut', 'Buch', 'Uhr', 'Ring', 'Blume', 'Bürste', 'Brille', 'Schere', 'Flasche', 'Lampe', 'Fahrrad', 'Stift', 'Hammer', 'Tasse', 'Kette', 'Telefon']",251.68737929989584,251.6889543000143,None,,,251.6890696999617,251.69067079992965,None,251.69077289989218,257.6934090999421,2,257.69368099980056,257.69496899982914,257.69498089980334,257.696186899906,1.4325741999782622,None,,,,,,,,,,,,,,,,,,,,,,,,,,,,,,,,,,,,,,,,,,,,,,,,,1,2023-12-11_13h35.03.438,watkins1,2023.2.3,99.64119214209795,57,2023-12-11 13h35.28.826086 +0000,
,,,,,,,,,,,4,0,4,0,,,,,,,,,,,,,257.7028375000227,,,,,,,,,,257.6964544998482,258.19490200001746,,,1,1.4269592000637203,,,,,,,,,,,,None,None,,,,,,,,,,Kamera,hübsch,"['Kamera', 'hübsch']",restudy_diff,1,,,,,,257.6963900998235,257.6964281999972,"['Löffel', 'Eimer', 'Rucksack', 'Jacke', 'Kamera', 'Socke', 'Trommel', 'Hut', 'Buch', 'Uhr', 'Ring', 'Blume', 'Bürste', 'Brille', 'Schere', 'Flasche', 'Lampe', 'Fahrrad', 'Stift', 'Hammer', 'Tasse', 'Kette', 'Telefon']",258.19491259986535,258.19760719989426,None,,,258.1977216999512,258.2003790999297,None,258.20048399991356,264.20617939997464,1,264.2064694999717,264.2079941998236,264.2080062997993,264.20920159993693,1.4269592000637203,None,,,,,,,,,,,,,,,,,,,,,,,,,,,,,,,,,,,,,,,,,,,,,,,,,1,2023-12-11_13h35.03.438,watkins1,2023.2.3,99.64119214209795,57,2023-12-11 13h35.28.826086 +0000,
,,,,,,,,,,,5,0,5,0,,,,,,,,,,,,,264.21557029988617,,,,,,,,,,264.2094795999583,264.70779799995944,,,3,2.5377931999973953,,,,,,,,,,,,None,None,,,,,,,,,,Socke,breit,"['Socke', 'breit']",restudy_diff,1,,,,,,264.2094119999092,264.20945269986987,"['Löffel', 'Eimer', 'Rucksack', 'Jacke', 'Kamera', 'Socke', 'Trommel', 'Hut', 'Buch', 'Uhr', 'Ring', 'Blume', 'Bürste', 'Brille', 'Schere', 'Flasche', 'Lampe', 'Fahrrad', 'Stift', 'Hammer', 'Tasse', 'Kette', 'Telefon']",264.70780929992907,264.710518399952,None,,,264.71063619991764,264.71331789996475,None,264.7134193999227,270.7208179999143,3,270.7210983999539,270.7224336999934,270.7224458998535,270.7236150999088,2.5377931999973953,None,,,,,,,,,,,,,,,,,,,,,,,,,,,,,,,,,,,,,,,,,,,,,,,,,1,2023-12-11_13h35.03.438,watkins1,2023.2.3,99.64119214209795,57,2023-12-11 13h35.28.826086 +0000,
,,,,,,,,,,,6,0,6,0,,,,,,,,,,,,,270.7302402998321,,,,,,,,,,270.72388459998183,271.22246959991753,,,[],[],,,,,,,,,,,,None,None,,,,,,,,,,Trommel,dunkel,"['Trommel', 'dunkel']",control,1,,,,,,270.7238206998445,270.7238590999041,"['Löffel', 'Eimer', 'Rucksack', 'Jacke', 'Kamera', 'Socke', 'Trommel', 'Hut', 'Buch', 'Uhr', 'Ring', 'Blume', 'Bürste', 'Brille', 'Schere', 'Flasche', 'Lampe', 'Fahrrad', 'Stift', 'Hammer', 'Tasse', 'Kette', 'Telefon']",271.2224799999967,277.2263233999256,2,1.924737400142476,None,277.22659699991345,277.2295593000017,None,277.2296633999795,277.2322166999802,None,277.2323188998271,277.23358649993315,277.2335981999058,277.2348170999903,,,,,,,,,,,,,,,,,,,,,,,,,,,,,,,,,,,,,,,,,,,,,,,,,,,1,2023-12-11_13h35.03.438,watkins1,2023.2.3,99.64119214209795,57,2023-12-11 13h35.28.826086 +0000,
,,,,,,,,,,,7,0,7,0,,,,,,,,,,,,,277.23845959990285,,,,,,,,,,277.235089099966,277.7321907998994,,,[],[],,,,,,,,,,,,None,None,,,,,,,,,,Hut,hohl,"['Hut', 'hohl']",control,1,,,,,,277.23502529994585,277.2350649998989,"['Löffel', 'Eimer', 'Rucksack', 'Jacke', 'Kamera', 'Socke', 'Trommel', 'Hut', 'Buch', 'Uhr', 'Ring', 'Blume', 'Bürste', 'Brille', 'Schere', 'Flasche', 'Lampe', 'Fahrrad', 'Stift', 'Hammer', 'Tasse', 'Kette', 'Telefon']",277.73220129986294,283.7335506998934,3,1.9429216999560595,None,283.7338231999893,283.7363101998344,None,283.7364138998091,283.73865109984763,None,283.73875219980255,283.7397634999361,283.7397749000229,283.74080469994806,,,,,,,,,,,,,,,,,,,,,,,,,,,,,,,,,,,,,,,,,,,,,,,,,,,1,2023-12-11_13h35.03.438,watkins1,2023.2.3,99.64119214209795,57,2023-12-11 13h35.28.826086 +0000,
,,,,,,,,,,,8,0,8,0,,,,,,,,,,,,,283.744511900004,,,,,,,,,,283.74106909986585,284.2369663999416,,,3,1.3557808001060039,,,,,,,,,,,,None,None,,,,,,,,,,Buch,kurz,"['Buch', 'kurz']",restudy_diff,1,,,,,,283.74100669985637,283.74104480003007,"['Löffel', 'Eimer', 'Rucksack', 'Jacke', 'Kamera', 'Socke', 'Trommel', 'Hut', 'Buch', 'Uhr', 'Ring', 'Blume', 'Bürste', 'Brille', 'Schere', 'Flasche', 'Lampe', 'Fahrrad', 'Stift', 'Hammer', 'Tasse', 'Kette', 'Telefon']",284.2369766999036,284.2384377999697,None,,,284.23855399992317,284.2398731999565,None,284.2399736000225,290.24769019987434,3,290.2479653998744,290.249211799819,290.2492235999089,290.25027259998024,1.3557808001060039,None,,,,,,,,,,,,,,,,,,,,,,,,,,,,,,,,,,,,,,,,,,,,,,,,,1,2023-12-11_13h35.03.438,watkins1,2023.2.3,99.64119214209795,57,2023-12-11 13h35.28.826086 +0000,
,,,,,,,,,,,9,0,9,0,,,,,,,,,,,,,290.25715780002065,,,,,,,,,,290.2505414998159,290.7492521998938,,,2,2.711598000023514,,,,,,,,,,,,None,None,,,,,,,,,,Uhr,lustig,"['Uhr', 'lustig']",restudy_diff,1,,,,,,290.25047719990835,290.25051579996943,"['Löffel', 'Eimer', 'Rucksack', 'Jacke', 'Kamera', 'Socke', 'Trommel', 'Hut', 'Buch', 'Uhr', 'Ring', 'Blume', 'Bürste', 'Brille', 'Schere', 'Flasche', 'Lampe', 'Fahrrad', 'Stift', 'Hammer', 'Tasse', 'Kette', 'Telefon']",290.7492630998604,290.75166549999267,None,,,290.7517848999705,290.7540492999833,None,290.754152999958,296.76134129986167,2,296.76162639982067,296.7627932999749,296.7628052998334,296.76401419984177,2.711598000023514,None,,,,,,,,,,,,,,,,,,,,,,,,,,,,,,,,,,,,,,,,,,,,,,,,,1,2023-12-11_13h35.03.438,watkins1,2023.2.3,99.64119214209795,57,2023-12-11 13h35.28.826086 +0000,
,,,,,,,,,,,10,0,10,0,,,,,,,,,,,,,296.7707614998799,,,,,,,,,,296.7642875998281,297.26293429988436,,,[],[],,,,,,,,,,,,None,None,,,,,,,,,,Ring,groß,"['Ring', 'groß']",control,1,,,,,,296.76422149990685,296.76426109997556,"['Löffel', 'Eimer', 'Rucksack', 'Jacke', 'Kamera', 'Socke', 'Trommel', 'Hut', 'Buch', 'Uhr', 'Ring', 'Blume', 'Bürste', 'Brille', 'Schere', 'Flasche', 'Lampe', 'Fahrrad', 'Stift', 'Hammer', 'Tasse', 'Kette', 'Telefon']",297.2629448999651,303.2667193999514,3,1.9389136000536382,None,303.26699889986776,303.26939759985544,None,303.2695001999382,303.2717536999844,None,303.27186039998196,303.2729093998205,303.2729209000245,303.2739937999286,,,,,,,,,,,,,,,,,,,,,,,,,,,,,,,,,,,,,,,,,,,,,,,,,,,1,2023-12-11_13h35.03.438,watkins1,2023.2.3,99.64119214209795,57,2023-12-11 13h35.28.826086 +0000,
,,,,,,,,,,,11,0,11,0,,,,,,,,,,,,,303.2778294000309,,,,,,,,,,303.27430639998056,303.7704260998871,,,[],[],,,,,,,,,,,,None,None,,,,,,,,,,Blume,schmutzig,"['Blume', 'schmutzig']",control,1,,,,,,303.27424119994976,303.2742820000276,"['Löffel', 'Eimer', 'Rucksack', 'Jacke', 'Kamera', 'Socke', 'Trommel', 'Hut', 'Buch', 'Uhr', 'Ring', 'Blume', 'Bürste', 'Brille', 'Schere', 'Flasche', 'Lampe', 'Fahrrad', 'Stift', 'Hammer', 'Tasse', 'Kette', 'Telefon']",303.7704371998552,309.7723989998922,1,2.672333699883893,None,309.7726783999242,309.7754161998164,None,309.77551879989915,309.77811479987577,None,309.7782166998368,309.77937150001526,309.77938289986923,309.7806134999264,,,,,,,,,,,,,,,,,,,,,,,,,,,,,,,,,,,,,,,,,,,,,,,,,,,1,2023-12-11_13h35.03.438,watkins1,2023.2.3,99.64119214209795,57,2023-12-11 13h35.28.826086 +0000,
,,,,,,,,,,,12,0,12,0,,,,,,,,,,,,,309.78424019995145,,,,,,,,,,309.7808776998427,310.27761480002664,,,2,4.266283700009808,,,,,,,,,,,,None,None,,,,,,,,,,Bürste,sauber,"['Bürste', 'sauber']",restudy_diff,1,,,,,,309.78081489983015,309.7808538998943,"['Löffel', 'Eimer', 'Rucksack', 'Jacke', 'Kamera', 'Socke', 'Trommel', 'Hut', 'Buch', 'Uhr', 'Ring', 'Blume', 'Bürste', 'Brille', 'Schere', 'Flasche', 'Lampe', 'Fahrrad', 'Stift', 'Hammer', 'Tasse', 'Kette', 'Telefon']",310.27762509998865,310.27936059981585,None,,,310.2794729999732,310.2809062998276,None,310.2810431998223,316.2872339999303,2,316.28750610002317,316.28881499986164,316.2888267999515,316.29001239989884,4.266283700009808,None,,,,,,,,,,,,,,,,,,,,,,,,,,,,,,,,,,,,,,,,,,,,,,,,,1,2023-12-11_13h35.03.438,watkins1,2023.2.3,99.64119214209795,57,2023-12-11 13h35.28.826086 +0000,
,,,,,,,,,,,13,0,13,0,,,,,,,,,,,,,316.29666029987857,,,,,,,,,,316.29028139985166,316.7887713999953,,,3,4.6089331000112,,,,,,,,,,,,None,None,,,,,,,,,,Brille,rustikal,"['Brille', 'rustikal']",restudy_diff,1,,,,,,316.2902171998285,316.29025579988956,"['Löffel', 'Eimer', 'Rucksack', 'Jacke', 'Kamera', 'Socke', 'Trommel', 'Hut', 'Buch', 'Uhr', 'Ring', 'Blume', 'Bürste', 'Brille', 'Schere', 'Flasche', 'Lampe', 'Fahrrad', 'Stift', 'Hammer', 'Tasse', 'Kette', 'Telefon']",316.7887822999619,316.79144779988565,None,,,316.79156499984674,316.79425629996695,None,316.79435819992796,322.8032541999128,3,322.80352819990367,322.804832899943,322.80484489980154,322.80605989997275,4.6089331000112,None,,,,,,,,,,,,,,,,,,,,,,,,,,,,,,,,,,,,,,,,,,,,,,,,,1,2023-12-11_13h35.03.438,watkins1,2023.2.3,99.64119214209795,57,2023-12-11 13h35.28.826086 +0000,
,,,,,,,,,,,14,0,14,0,,,,,,,,,,,,,322.8128020998556,,,,,,,,,,322.80632429989055,323.30485499999486,,,1,1.4287896000314504,,,,,,,,,,,,None,None,,,,,,,,,,Schere,flauschig,"['Schere', 'flauschig']",restudy_diff,1,,,,,,322.80626089987345,322.80629889992997,"['Löffel', 'Eimer', 'Rucksack', 'Jacke', 'Kamera', 'Socke', 'Trommel', 'Hut', 'Buch', 'Uhr', 'Ring', 'Blume', 'Bürste', 'Brille', 'Schere', 'Flasche', 'Lampe', 'Fahrrad', 'Stift', 'Hammer', 'Tasse', 'Kette', 'Telefon']",323.3048654999584,323.30760109983385,None,,,323.3077145998832,323.3103975998238,None,323.31049779988825,329.3207133000251,1,329.3209877999034,329.32230059988797,329.32231259997934,329.3235495998524,1.4287896000314504,None,,,,,,,,,,,,,,,,,,,,,,,,,,,,,,,,,,,,,,,,,,,,,,,,,1,2023-12-11_13h35.03.438,watkins1,2023.2.3,99.64119214209795,57,2023-12-11 13h35.28.826086 +0000,
,,,,,,,,,,,15,0,15,0,,,,,,,,,,,,,329.3301462000236,,,,,,,,,,329.3238189998083,329.82226179982536,,,[],[],,,,,,,,,,,,None,None,,,,,,,,,,Flasche,durchsichtig,"['Flasche', 'durchsichtig']",control,1,,,,,,329.32375420001335,329.3237928999588,"['Löffel', 'Eimer', 'Rucksack', 'Jacke', 'Kamera', 'Socke', 'Trommel', 'Hut', 'Buch', 'Uhr', 'Ring', 'Blume', 'Bürste', 'Brille', 'Schere', 'Flasche', 'Lampe', 'Fahrrad', 'Stift', 'Hammer', 'Tasse', 'Kette', 'Telefon']",329.8222719000187,335.82454299996607,3,1.4361366999801248,None,335.82481739996,335.82769459998235,None,335.82779779983684,335.83047539996915,None,335.83057729993016,335.8317819000222,335.83179339999333,335.83309470000677,,,,,,,,,,,,,,,,,,,,,,,,,,,,,,,,,,,,,,,,,,,,,,,,,,,1,2023-12-11_13h35.03.438,watkins1,2023.2.3,99.64119214209795,57,2023-12-11 13h35.28.826086 +0000,
,,,,,,,,,,,16,0,16,0,,,,,,,,,,,,,335.83674359996803,,,,,,,,,,335.83336409996264,336.33045699982904,,,2,2.7414813998620957,,,,,,,,,,,,None,None,,,,,,,,,,Lampe,gepunktet,"['Lampe', 'gepunktet']",restudy_diff,1,,,,,,335.83329979982227,335.833339799894,"['Löffel', 'Eimer', 'Rucksack', 'Jacke', 'Kamera', 'Socke', 'Trommel', 'Hut', 'Buch', 'Uhr', 'Ring', 'Blume', 'Bürste', 'Brille', 'Schere', 'Flasche', 'Lampe', 'Fahrrad', 'Stift', 'Hammer', 'Tasse', 'Kette', 'Telefon']",336.3304677999113,336.33202309999615,None,,,336.3321369998157,336.3335488999728,None,336.3336507999338,342.3411381000187,2,342.34141230001114,342.3427028998267,342.3427144000307,342.3439560998231,2.7414813998620957,None,,,,,,,,,,,,,,,,,,,,,,,,,,,,,,,,,,,,,,,,,,,,,,,,,1,2023-12-11_13h35.03.438,watkins1,2023.2.3,99.64119214209795,57,2023-12-11 13h35.28.826086 +0000,
,,,,,,,,,,,17,0,17,0,,,,,,,,,,,,,342.350588100031,,,,,,,,,,342.34422539989464,342.8426847998053,,,[],[],,,,,,,,,,,,None,None,,,,,,,,,,Fahrrad,matt,"['Fahrrad', 'matt']",control,1,,,,,,342.34416049998254,342.34419889980927,"['Löffel', 'Eimer', 'Rucksack', 'Jacke', 'Kamera', 'Socke', 'Trommel', 'Hut', 'Buch', 'Uhr', 'Ring', 'Blume', 'Bürste', 'Brille', 'Schere', 'Flasche', 'Lampe', 'Fahrrad', 'Stift', 'Hammer', 'Tasse', 'Kette', 'Telefon']",342.8426951998845,348.8517785000149,1,1.664636499946937,None,348.852050999878,348.85469709988683,None,348.85480009997264,348.8571889998857,None,348.85729029984213,348.85848299995996,348.8584944999311,348.8595247999765,,,,,,,,,,,,,,,,,,,,,,,,,,,,,,,,,,,,,,,,,,,,,,,,,,,1,2023-12-11_13h35.03.438,watkins1,2023.2.3,99.64119214209795,57,2023-12-11 13h35.28.826086 +0000,
,,,,,,,,,,,18,0,18,0,,,,,,,,,,,,,348.86324899992906,,,,,,,,,,348.8597881998867,349.35619720001705,,,1,1.3551334999501705,,,,,,,,,,,,None,None,,,,,,,,,,Stift,verspielt,"['Stift', 'verspielt']",restudy_diff,1,,,,,,348.85972379986197,348.85976369981654,"['Löffel', 'Eimer', 'Rucksack', 'Jacke', 'Kamera', 'Socke', 'Trommel', 'Hut', 'Buch', 'Uhr', 'Ring', 'Blume', 'Bürste', 'Brille', 'Schere', 'Flasche', 'Lampe', 'Fahrrad', 'Stift', 'Hammer', 'Tasse', 'Kette', 'Telefon']",349.3562086999882,349.35776139982045,None,,,349.3578761999961,349.3592918999493,None,349.3593917998951,355.3683860998135,1,355.36865819990635,355.3699373998679,355.3699490998406,355.3711979999207,1.3551334999501705,None,,,,,,,,,,,,,,,,,,,,,,,,,,,,,,,,,,,,,,,,,,,,,,,,,1,2023-12-11_13h35.03.438,watkins1,2023.2.3,99.64119214209795,57,2023-12-11 13h35.28.826086 +0000,
,,,,,,,,,,,19,0,19,0,,,,,,,,,,,,,355.37782039982267,,,,,,,,,,355.3714643998537,355.8698773998767,,,1,1.2239026001188904,,,,,,,,,,,,None,None,,,,,,,,,,Hammer,krumm,"['Hammer', 'krumm']",restudy_diff,1,,,,,,355.3714002999477,355.37143850000575,"['Löffel', 'Eimer', 'Rucksack', 'Jacke', 'Kamera', 'Socke', 'Trommel', 'Hut', 'Buch', 'Uhr', 'Ring', 'Blume', 'Bürste', 'Brille', 'Schere', 'Flasche', 'Lampe', 'Fahrrad', 'Stift', 'Hammer', 'Tasse', 'Kette', 'Telefon']",355.8698883999605,355.8726383999456,None,,,355.87275639991276,355.87533599999733,None,355.875435099937,361.8826881998684,1,361.8829657000024,361.88433159980923,361.88434399990365,361.8854961998295,1.2239026001188904,None,,,,,,,,,,,,,,,,,,,,,,,,,,,,,,,,,,,,,,,,,,,,,,,,,1,2023-12-11_13h35.03.438,watkins1,2023.2.3,99.64119214209795,57,2023-12-11 13h35.28.826086 +0000,
,,,,,,,,,,,20,0,20,0,,,,,,,,,,,,,361.89212749991566,,,,,,,,,,361.88577399984933,362.3841901998967,,,1,1.4378452999517322,,,,,,,,,,,,None,None,,,,,,,,,,Tasse,blass,"['Tasse', 'blass']",restudy_diff,1,,,,,,361.8857094999403,361.88574839988723,"['Löffel', 'Eimer', 'Rucksack', 'Jacke', 'Kamera', 'Socke', 'Trommel', 'Hut', 'Buch', 'Uhr', 'Ring', 'Blume', 'Bürste', 'Brille', 'Schere', 'Flasche', 'Lampe', 'Fahrrad', 'Stift', 'Hammer', 'Tasse', 'Kette', 'Telefon']",362.3842014998663,362.386865099892,None,,,362.38698019995354,362.3894694999326,None,362.38956999988295,368.39702259982005,1,368.39729609992355,368.39867589995265,368.39868779992685,368.3998302000109,1.4378452999517322,None,,,,,,,,,,,,,,,,,,,,,,,,,,,,,,,,,,,,,,,,,,,,,,,,,1,2023-12-11_13h35.03.438,watkins1,2023.2.3,99.64119214209795,57,2023-12-11 13h35.28.826086 +0000,
,,,,,,,,,,,21,0,21,0,,,,,,,,,,,,,368.406411399832,,,,,,,,,,368.4000981999561,368.898617999861,,,3,1.7072782998438925,,,,,,,,,,,,None,None,,,,,,,,,,Kette,niedlich,"['Kette', 'niedlich']",restudy_diff,1,,,,,,368.4000342998188,368.4000723999925,"['Löffel', 'Eimer', 'Rucksack', 'Jacke', 'Kamera', 'Socke', 'Trommel', 'Hut', 'Buch', 'Uhr', 'Ring', 'Blume', 'Bürste', 'Brille', 'Schere', 'Flasche', 'Lampe', 'Fahrrad', 'Stift', 'Hammer', 'Tasse', 'Kette', 'Telefon']",368.8986281999387,368.90125279990025,None,,,368.90136759984307,368.90385819994844,None,368.90396109991707,374.9102650999557,3,374.91053669992834,374.91189579991624,374.91190769989043,374.91313380002975,1.7072782998438925,None,,,,,,,,,,,,,,,,,,,,,,,,,,,,,,,,,,,,,,,,,,,,,,,,,1,2023-12-11_13h35.03.438,watkins1,2023.2.3,99.64119214209795,57,2023-12-11 13h35.28.826086 +0000,
,,,,,,,,,,,22,0,22,0,,,,,,,,,,,,,374.9196509998292,,,,,,,,,,374.91340239997953,375.411841499852,,,1,1.9055116998497397,,,,,,,,,,,,None,None,,,,,,,,,,Telefon,strahlend,"['Telefon', 'strahlend']",restudy_diff,1,,,,,,374.9133382998407,374.9133766000159,"['Löffel', 'Eimer', 'Rucksack', 'Jacke', 'Kamera', 'Socke', 'Trommel', 'Hut', 'Buch', 'Uhr', 'Ring', 'Blume', 'Bürste', 'Brille', 'Schere', 'Flasche', 'Lampe', 'Fahrrad', 'Stift', 'Hammer', 'Tasse', 'Kette', 'Telefon']",375.4118525998201,375.4146988999564,None,,,375.4148138000164,375.41755199991167,None,375.4176543999929,381.42293130001053,1,381.4232057000045,381.42465789988637,381.42466979986057,381.4259203998372,1.9055116998497397,None,,,,,,,,,,,,,,,,,,,,,,,,,,,,,,,,,,,,,,,,,,,,,,,,,1,2023-12-11_13h35.03.438,watkins1,2023.2.3,99.64119214209795,57,2023-12-11 13h35.28.826086 +0000,
,,,,,,,,,,,,,,,,,,,,,,,,,,,,,,,,,,,,,,,,,,,,,,,,,,,,,,,,,,,,,,,,,,,,,1,,,,,,,,,,,,,,,,,,,,,,,,,,,,,,,,,,,,,,,,,,,,,,,,,,,,,,,,,,,,,,,,,,,,,,,,,,1,2023-12-11_13h35.03.438,watkins1,2023.2.3,99.64119214209795,57,2023-12-11 13h35.28.826086 +0000,
(54 : 6) - 10 = 0 ,Incorrect,button_incorrect,,,,,,,,,,,,,0,0,0,5,,,,,,,,,393.31164219998755,,,,,,,,392.2646004999988,393.268538699951,,,,,['button_incorrect'],[5.078047499991953],,,,,,,,,,,,,,,,,,,,,,,,,,distractorTask,1,,,,,,,,,,,,,,,,,,,,,,,,,,393.29235100001097,393.31164219998755,398.3750852998346,[-0.3416666666666667],[-0.3925925925925926],[1],[0],[0],[5.078047499991953],['button_incorrect'],398.3757850998081,399.37895549996756,,,,,,,,,,,,,,,,,,,,,,,,,,,,,,,,,,,,,1,2023-12-11_13h35.03.438,watkins1,2023.2.3,99.64119214209795,57,2023-12-11 13h35.28.826086 +0000,
(2 x 5) + 3 = 13 ,Correct,button_correct,,,,,,,,,,,,,0,1,1,2,,,,,,,,,399.3889925000258,,,,,,,,,,,,,,['button_correct'],[2.7785316000226885],,,,,,,,,,,,,,,,,,,,,,,,,,distractorTask,1,,,,,,,,,,,,,,,,,,,,,,,,,,399.37915369984694,399.3889925000258,402.16087000002153,[0.3074074074074074],[-0.3861111111111111],[1],[0],[0],[2.7785316000226885],['button_correct'],402.1612495998852,403.1647144998424,,,,,,,,,,,,,,,,,,,,,,,,,,,,,,,,,,,,,1,2023-12-11_13h35.03.438,watkins1,2023.2.3,99.64119214209795,57,2023-12-11 13h35.28.826086 +0000,
(7 x 6) + 9 = 48 ,Incorrect,button_incorrect,,,,,,,,,,,,,0,2,2,9,,,,,,,,,403.17469979985617,,,,,,,,,,,,,,['button_incorrect'],[4.114452899899334],,,,,,,,,,,,,,,,,,,,,,,,,,distractorTask,1,,,,,,,,,,,,,,,,,,,,,,,,,,403.1649082999211,403.17469979985617,407.28261130000465,[-0.32222222222222224],[-0.38425925925925924],[1],[0],[0],[4.114452899899334],['button_incorrect'],407.28300679987296,408.2860339998733,,,,,,,,,,,,,,,,,,,,,,,,,,,,,,,,,,,,,1,2023-12-11_13h35.03.438,watkins1,2023.2.3,99.64119214209795,57,2023-12-11 13h35.28.826086 +0000,
(28 : 7) - 3 = 1 ,Correct,button_correct,,,,,,,,,,,,,0,3,3,0,,,,,,,,,408.29597399989143,,,,,,,,,,,,,,['button_correct'],[3.834914800012484],,,,,,,,,,,,,,,,,,,,,,,,,,distractorTask,1,,,,,,,,,,,,,,,,,,,,,,,,,,408.28622869984247,408.29597399989143,412.1228932000231,[0.4074074074074074],[-0.39814814814814814],[1],[0],[0],[3.834914800012484],['button_correct'],412.12327259988524,413.12659409991466,,,,,,,,,,,,,,,,,,,,,,,,,,,,,,,,,,,,,1,2023-12-11_13h35.03.438,watkins1,2023.2.3,99.64119214209795,57,2023-12-11 13h35.28.826086 +0000,
(6 x 3) + 10 = 27 ,Incorrect,button_incorrect,,,,,,,,,,,,,0,4,4,8,,,,,,,,,413.1365802998189,,,,,,,,,,,,,,['button_incorrect'],[3.784213999984786],,,,,,,,,,,,,,,,,,,,,,,,,,distractorTask,1,,,,,,,,,,,,,,,,,,,,,,,,,,413.1267810999416,413.1365802998189,416.9128500998486,[-0.33055555555555555],[-0.3824074074074074],[1],[0],[0],[3.784213999984786],['button_incorrect'],416.91323369997554,417.9165643998422,,,,,,,,,,,,,,,,,,,,,,,,,,,,,,,,,,,,,1,2023-12-11_13h35.03.438,watkins1,2023.2.3,99.64119214209795,57,2023-12-11 13h35.28.826086 +0000,
(25 : 5) + 5 = 9 ,Incorrect,button_incorrect,,,,,,,,,,,,,0,5,5,6,,,,,,,,,417.926544399932,,,,,,,,,,,,,,['button_incorrect'],[2.740007899934426],,,,,,,,,,,,,,,,,,,,,,,,,,distractorTask,1,,,,,,,,,,,,,,,,,,,,,,,,,,417.9167619999498,417.926544399932,420.65847359993495,[-0.2796296296296296],[-0.3851851851851852],[1],[0],[0],[2.740007899934426],['button_incorrect'],420.6588549998123,421.6620738999918,,,,,,,,,,,,,,,,,,,,,,,,,,,,,,,,,,,,,1,2023-12-11_13h35.03.438,watkins1,2023.2.3,99.64119214209795,57,2023-12-11 13h35.28.826086 +0000,
(9 x 5) - 9 = 36 ,Correct,button_correct,,,,,,,,,,,,,0,6,6,4,,,,,,,,,421.6720153999049,,,,,,,,,,,,,,['button_correct'],[8.212756599998102],,,,,,,,,,,,,,,,,,,,,,,,,,distractorTask,1,,,,,,,,,,,,,,,,,,,,,,,,,,421.6622634998057,421.6720153999049,429.8767295998987,[0.34444444444444444],[-0.41203703703703703],[1],[0],[0],[8.212756599998102],['button_correct'],429.87711289990693,430.8804577998817,,,,,,,,,,,,,,,,,,,,,,,,,,,,,,,,,,,,,1,2023-12-11_13h35.03.438,watkins1,2023.2.3,99.64119214209795,57,2023-12-11 13h35.28.826086 +0000,
(40 : 5) + 8 = 15 ,Incorrect,button_incorrect,,,,,,,,,,,,,0,7,7,7,,,,,,,,,430.8905444999691,,,,,,,,,,,,,,['button_incorrect'],[2.6392606999725103],,,,,,,,,,,,,,,,,,,,,,,,,,distractorTask,1,,,,,,,,,,,,,,,,,,,,,,,,,,430.8806470998097,430.8905444999691,433.5216565998271,[-0.3527777777777778],[-0.4027777777777778],[1],[0],[0],[2.6392606999725103],['button_incorrect'],433.5220374998171,434.5254836999811,,,,,,,,,,,,,,,,,,,,,,,,,,,,,,,,,,,,,1,2023-12-11_13h35.03.438,watkins1,2023.2.3,99.64119214209795,57,2023-12-11 13h35.28.826086 +0000,
(80 : 10) + 9 = 17 ,Correct,button_correct,,,,,,,,,,,,,0,8,8,3,,,,,,,,,434.53542339988053,,,,,,,,,,,,,,['button_correct'],[2.0170469998847693],,,,,,,,,,,,,,,,,,,,,,,,,,distractorTask,1,,,,,,,,,,,,,,,,,,,,,,,,,,434.5256697998848,434.53542339988053,436.54454999999143,[0.2898148148148148],[-0.40370370370370373],[1],[0],[0],[2.0170469998847693],['button_correct'],436.54493259987794,437.54814359988086,,,,,,,,,,,,,,,,,,,,,,,,,,,,,,,,,,,,,1,2023-12-11_13h35.03.438,watkins1,2023.2.3,99.64119214209795,57,2023-12-11 13h35.28.826086 +0000,
(4 : 2) + 4 = 6 ,Correct,button_correct,,,,,,,,,,,,,0,9,9,1,,,,,,,,,437.558233599877,,,,,,,,,,,,,,['button_correct'],[2.087898900033906],,,,,,,,,,,,,,,,,,,,,,,,,,distractorTask,1,,,,,,,,,,,,,,,,,,,,,,,,,,437.5483320998028,437.558233599877,439.63791099982336,[0.2898148148148148],[-0.40370370370370373],[1],[0],[0],[2.087898900033906],['button_correct'],439.63830069988035,440.6415804999415,,,,,,,,,,,,,,,,,,,,,,,,,,,,,,,,,,,,,1,2023-12-11_13h35.03.438,watkins1,2023.2.3,99.64119214209795,57,2023-12-11 13h35.28.826086 +0000,
,,,,,,,,,,,,,,,,,,,,,,,,,,,,,,,,,,,,,,,,,,,,,,,,,,,,,,,,,,,,,,,,,,,,,1,,,,,,,,,,,,,,,,,,,,,,,,,,,,,,,,,,,,,,,,,,,,,,,,,,,,,,,,,,,,,,,,,,,,,,,,,,1,2023-12-11_13h35.03.438,watkins1,2023.2.3,99.64119214209795,57,2023-12-11 13h35.28.826086 +0000,
,,,,,,,,,,,,,,,,,,,0,0,0,0,,,,,450.0900481999852,,,,,,,,,,,,,,Lampe,15.261651699896902,,,,,,,,,,,,3.273154500173405,5.331724600167945,,,,,,,,,,,,,freeRecallSub,1,,,,,,,,,,,,,,,,,,,,,,,,,,,,,,,,,,,,,,450.081564999884,450.0900481999852,450.0900481999852,465.3540862998925,return,15.261651699896902,None,Lampe,[-0.07685185185185185],[0.04259259259259259],[1],[0],[0],[1.344329500105232],[],,,,,,,,,,,,,,,,,,,,,,1,2023-12-11_13h35.03.438,watkins1,2023.2.3,99.64119214209795,57,2023-12-11 13h35.28.826086 +0000,
,,,,,,,,,,,,,,,,,,,1,0,1,0,,,,,465.36635399982333,,,,,,,,,,,,,,Uhr,2.50531979999505,,,,,,,,,,,,1.418155699968338,None,,,,,,,,,,,,,freeRecallSub,1,,,,,,,,,,,,,,,,,,,,,,,,,,,,,,,,,,,,,,465.35599429998547,465.36635399982333,465.36635399982333,467.87866489985026,return,2.50531979999505,None,Uhr,[],[],[],[],[],[],[],,,,,,,,,,,,,,,,,,,,,,1,2023-12-11_13h35.03.438,watkins1,2023.2.3,99.64119214209795,57,2023-12-11 13h35.28.826086 +0000,
,,,,,,,,,,,,,,,,,,,2,0,2,0,,,,,467.88866319996305,,,,,,,,,,,,,,Socke,2.382957800058648,,,,,,,,,,,,0.8025509999133646,None,,,,,,,,,,,,,freeRecallSub,1,,,,,,,,,,,,,,,,,,,,,,,,,,,,,,,,,,,,,,467.8799154998269,467.88866319996305,467.88866319996305,470.2791637999471,return,2.382957800058648,None,Socke,[],[],[],[],[],[],[],,,,,,,,,,,,,,,,,,,,,,1,2023-12-11_13h35.03.438,watkins1,2023.2.3,99.64119214209795,57,2023-12-11 13h35.28.826086 +0000,
,,,,,,,,,,,,,,,,,,,3,0,3,0,,,,,470.29005219996907,,,,,,,,,,,,,,Vase,6.285614900058135,,,,,,,,,,,,4.930329899769276,None,,,,,,,,,,,,,freeRecallSub,1,,,,,,,,,,,,,,,,,,,,,,,,,,,,,,,,,,,,,,470.280413699802,470.29005219996907,470.29005219996907,476.57668269984424,return,6.285614900058135,None,Vase,[],[],[],[],[],[],[],,,,,,,,,,,,,,,,,,,,,,1,2023-12-11_13h35.03.438,watkins1,2023.2.3,99.64119214209795,57,2023-12-11 13h35.28.826086 +0000,
,,,,,,,,,,,,,,,,,,,4,0,4,0,,,,,476.5875704998616,,,,,,,,,,,,,,Bürste,6.588267200160772,,,,,,,,,,,,4.528910499997437,None,,,,,,,,,,,,,freeRecallSub,1,,,,,,,,,,,,,,,,,,,,,,,,,,,,,,,,,,,,,,476.57794059999287,476.5875704998616,476.5875704998616,483.18573919986375,return,6.588267200160772,None,Bürste,[],[],[],[],[],[],[],,,,,,,,,,,,,,,,,,,,,,1,2023-12-11_13h35.03.438,watkins1,2023.2.3,99.64119214209795,57,2023-12-11 13h35.28.826086 +0000,
,,,,,,,,,,,,,,,,,,,5,0,5,0,,,,,483.1969687999226,,,,,,,,,,,,,,Würfel,9.082602099981159,,,,,,,,,,,,6.9096613000147045,None,,,,,,,,,,,,,freeRecallSub,1,,,,,,,,,,,,,,,,,,,,,,,,,,,,,,,,,,,,,,483.18698989995755,483.1969687999226,483.1969687999226,492.28582639992237,return,9.082602099981159,None,Würfel,[],[],[],[],[],[],[],,,,,,,,,,,,,,,,,,,,,,1,2023-12-11_13h35.03.438,watkins1,2023.2.3,99.64119214209795,57,2023-12-11 13h35.28.826086 +0000,
,,,,,,,,,,,,,,,,,,,6,0,6,0,,,,,492.2977088999469,,,,,,,,,,,,,,Hund,4.3258837999310344,,,,,,,,,,,,1.6795488998759538,None,,,,,,,,,,,,,freeRecallSub,1,,,,,,,,,,,,,,,,,,,,,,,,,,,,,,,,,,,,,,492.2870889999904,492.2977088999469,492.2977088999469,496.6277991000097,return,4.3258837999310344,None,Hund,[],[],[],[],[],[],[],,,,,,,,,,,,,,,,,,,,,,1,2023-12-11_13h35.03.438,watkins1,2023.2.3,99.64119214209795,57,2023-12-11 13h35.28.826086 +0000,
,,,,,,,,,,,,,,,,,,,7,0,7,0,,,,,496.63958629989065,,,,,,,,,,,,,,Katze,1.5039252999704331,,,,,,,,,,,,0.2832369999960065,None,,,,,,,,,,,,,freeRecallSub,1,,,,,,,,,,,,,,,,,,,,,,,,,,,,,,,,,,,,,,496.6290588998236,496.63958629989065,496.63958629989065,498.1474530999549,return,1.5039252999704331,None,Katze,[],[],[],[],[],[],[],,,,,,,,,,,,,,,,,,,,,,1,2023-12-11_13h35.03.438,watkins1,2023.2.3,99.64119214209795,57,2023-12-11 13h35.28.826086 +0000,
,,,,,,,,,,,,,,,,,,,8,0,8,0,,,,,498.1592959999107,,,,,,,,,,,,,,Schere,12.344209499889985,,,,,,,,,,,,10.515616199932992,None,,,,,,,,,,,,,freeRecallSub,1,,,,,,,,,,,,,,,,,,,,,,,,,,,,,,,,,,,,,,498.1487078999635,498.1592959999107,498.1592959999107,510.5121082998812,return,12.344209499889985,None,Schere,[],[],[],[],[],[],[],,,,,,,,,,,,,,,,,,,,,,1,2023-12-11_13h35.03.438,watkins1,2023.2.3,99.64119214209795,57,2023-12-11 13h35.28.826086 +0000,
,,,,,,,,,,,,,,,,,,,9,0,9,0,,,,,510.5243165998254,,,,,,,,,,,,,,Fahrrad,13.07525709993206,,,,,,,,,,,,11.058894000016153,None,,,,,,,,,,,,,freeRecallSub,1,,,,,,,,,,,,,,,,,,,,,,,,,,,,,,,,,,,,,,510.5134666999802,510.5243165998254,510.5243165998254,523.6014980999753,return,13.07525709993206,None,Fahrrad,[],[],[],[],[],[],[],,,,,,,,,,,,,,,,,,,,,,1,2023-12-11_13h35.03.438,watkins1,2023.2.3,99.64119214209795,57,2023-12-11 13h35.28.826086 +0000,
,,,,,,,,,,,,,,,,,,,10,0,10,0,,,,,523.6142297999468,,,,,,,,,,,,,,Telefon,40.40923730004579,,,,,,,,,,,,37.90324730006978,None,,,,,,,,,,,,,freeRecallSub,1,,,,,,,,,,,,,,,,,,,,,,,,,,,,,,,,,,,,,,523.6027770999353,523.6142297999468,523.6142297999468,564.026549299946,return,40.40923730004579,None,Telefon,[],[],[],[],[],[],[],,,,,,,,,,,,,,,,,,,,,,1,2023-12-11_13h35.03.438,watkins1,2023.2.3,99.64119214209795,57,2023-12-11 13h35.28.826086 +0000,
,,,,,,,,,,,,,,,,,,,11,0,11,0,,,,,564.0390790998936,,,,,,,,,,,,,,,[],,,,,,,,,,,,None,None,,,,,,,,,,,,,freeRecallSub,1,,,,,,,,,,,,,,,,,,,,,,,,,,,,,,,,,,,,,,564.0278280000202,564.0390790998936,564.0390790998936,634.5711273998022,None,,,,[0.21851851851851853],[-0.3907407407407407],[1],[0],[0],[70.53844920010306],"['button_continue', 'continue_text']",,,,,,,,,,,,,,,,,,,,,,1,2023-12-11_13h35.03.438,watkins1,2023.2.3,99.64119214209795,57,2023-12-11 13h35.28.826086 +0000,
,,,,,,,,,,,,,,,,,,,,,,,,,,,,,,,,,,,,,,,,,,,,,,,,,,,,,,,,,,,,,,,,,,,,,1,,,,,,,,,,,,,,,,,,,,,,,,,,,,,,,,,,,,,,,,,,,,,,,,,,,,,,,,,,,,,,,,,,,,,,,,,,1,2023-12-11_13h35.03.438,watkins1,2023.2.3,99.64119214209795,57,2023-12-11 13h35.28.826086 +0000,
,,,,,,,,,,,,,,,,,,,,,,,0,0,0,0,645.0500896999147,,,,,,,,,,674.6256838999689,675.1169556998648,,,elegant,8.645206899847835,,,,,,,,,,,,19.2299112000037,None,,,,,,,,,,Stift,,,cuedRecallAdj,1,,,,,,,,,,,,,,,,,,,,,,,,,,,,,,,,,,,,,,,,,,,,,,,,,,,,,645.0411096999887,645.0500896999147,0,645.0500896999147,653.6972629998345,teuer,return,8.645206899847835,None,653.6976494998671,653.7068789999466,653.7068789999466,674.6252931000199,elegant,return,20.916283700149506,None,,,,,1,2023-12-11_13h35.03.438,watkins1,2023.2.3,99.64119214209795,57,2023-12-11 13h35.28.826086 +0000,
,,,,,,,,,,,,,,,,,,,,,,,1,0,1,0,675.1269012999255,,,,,,,,,,679.8178309998475,680.309322200017,,,dreckig,2.7202893998473883,,,,,,,,,,,,0.5921944000292569,None,,,,,,,,,,Bürste,,,cuedRecallAdj,1,,,,,,,,,,,,,,,,,,,,,,,,,,,,,,,,,,,,,,,,,,,,,,,,,,,,,675.1171948998235,675.1269012999255,0,675.1269012999255,677.848926599836,nass,return,2.7202893998473883,None,677.8491912998725,677.8584644999355,677.8584644999355,679.8175680998247,dreckig,return,1.9568183000665158,None,,,,,1,2023-12-11_13h35.03.438,watkins1,2023.2.3,99.64119214209795,57,2023-12-11 13h35.28.826086 +0000,
,,,,,,,,,,,,,,,,,,,,,,,2,0,2,0,680.3192851999775,,,,,,,,,,684.0382725999225,684.5275616999716,,,,3.711872800020501,,,,,,,,,,,,None,None,,,,,,,,,,Tasche,,,cuedRecallAdj,1,,,,,,,,,,,,,,,,,,,,,,,,,,,,,,,,,,,,,,,,,,,,,,,,,,,,,680.3095619999804,680.3192851999775,0,680.3192851999775,684.0350895000156,bunt,return,3.711872800020501,None,684.03537399997,684.0446313000284,684.0446313000284,684.0381709998474,,None,,,,,,,1,2023-12-11_13h35.03.438,watkins1,2023.2.3,99.64119214209795,57,2023-12-11 13h35.28.826086 +0000,
,,,,,,,,,,,,,,,,,,,,,,,3,0,3,0,684.5367366999853,,,,,,,,,,701.8997219000012,702.3913061998319,,,lang,3.614558900007978,,,,,,,,,,,,12.712284999899566,None,,,,,,,,,,Kette,,,cuedRecallAdj,1,,,,,,,,,,,,,,,,,,,,,,,,,,,,,,,,,,,,,,,,,,,,,,,,,,,,,684.5278015998192,684.5367366999853,0,684.5367366999853,688.1522684998345,robust,return,3.614558900007978,None,688.1525323998649,688.1617880000267,688.1617880000267,701.8994542998262,lang,return,13.733438199851662,None,,,,,1,2023-12-11_13h35.03.438,watkins1,2023.2.3,99.64119214209795,57,2023-12-11 13h35.28.826086 +0000,
,,,,,,,,,,,,,,,,,,,,,,,4,0,4,0,702.4012550998013,,,,,,,,,,706.3615675999317,706.8598872998264,,,,3.9499282999895513,,,,,,,,,,,,None,None,,,,,,,,,,Rucksack,,,cuedRecallAdj,1,,,,,,,,,,,,,,,,,,,,,,,,,,,,,,,,,,,,,,,,,,,,,,,,,,,,,702.39155629999,702.4012550998013,0,702.4012550998013,706.3581729999278,praktisch,return,3.9499282999895513,None,706.3584347998258,706.3678333999123,706.3678333999123,706.3614662999753,,None,,,,,,,1,2023-12-11_13h35.03.438,watkins1,2023.2.3,99.64119214209795,57,2023-12-11 13h35.28.826086 +0000,
,,,,,,,,,,,,,,,,,,,,,,,5,0,5,0,706.8697933999356,,,,,,,,,,710.0064025998581,710.5050044998061,,,,3.129400000208989,,,,,,,,,,,,None,None,,,,,,,,,,Flasche,,,cuedRecallAdj,1,,,,,,,,,,,,,,,,,,,,,,,,,,,,,,,,,,,,,,,,,,,,,,,,,,,,,706.8601263999008,706.8697933999356,0,706.8697933999356,710.0032756999135,durchsichtig,return,3.129400000208989,None,710.0035388998222,710.0128452000208,710.0128452000208,710.0063002000097,,None,,,,,,,1,2023-12-11_13h35.03.438,watkins1,2023.2.3,99.64119214209795,57,2023-12-11 13h35.28.826086 +0000,
,,,,,,,,,,,,,,,,,,,,,,,6,0,6,0,710.5149443999398,,,,,,,,,,712.3759824000299,712.8746920998674,,,,1.8522013002075255,,,,,,,,,,,,None,None,,,,,,,,,,Würfel,,,cuedRecallAdj,1,,,,,,,,,,,,,,,,,,,,,,,,,,,,,,,,,,,,,,,,,,,,,,,,,,,,,710.505246500019,710.5149443999398,0,710.5149443999398,712.3731107998174,dick,return,1.8522013002075255,None,712.3733741999604,712.3826635000296,712.3826635000296,712.3758811999578,,None,,,,,,,1,2023-12-11_13h35.03.438,watkins1,2023.2.3,99.64119214209795,57,2023-12-11 13h35.28.826086 +0000,
,,,,,,,,,,,,,,,,,,,,,,,7,0,7,0,712.8847091000061,,,,,,,,,,715.1672817999497,715.6663273000158,,,,2.2745052000973374,,,,,,,,,,,,None,None,,,,,,,,,,Hut,,,cuedRecallAdj,1,,,,,,,,,,,,,,,,,,,,,,,,,,,,,,,,,,,,,,,,,,,,,,,,,,,,,712.8749348998535,712.8847091000061,0,712.8847091000061,715.1645831998903,hohl,return,2.2745052000973374,None,715.1648487998173,715.1741984998807,715.1741984998807,715.1671808999963,,None,,,,,,,1,2023-12-11_13h35.03.438,watkins1,2023.2.3,99.64119214209795,57,2023-12-11 13h35.28.826086 +0000,
,,,,,,,,,,,,,,,,,,,,,,,8,0,8,0,715.6762235998176,,,,,,,,,,727.0241854998749,727.5154772999231,,,gepolstert,7.874846700113267,,,,,,,,,,,,0.3309220001101494,None,,,,,,,,,,Schere,,,cuedRecallAdj,1,,,,,,,,,,,,,,,,,,,,,,,,,,,,,,,,,,,,,,,,,,,,,,,,,,,,,715.6665753999259,715.6762235998176,0,715.6762235998176,723.559154199902,glatt,return,7.874846700113267,None,723.5594158000313,723.5689358999953,723.5689358999953,727.0238995000254,gepolstert,return,3.4542672000825405,None,,,,,1,2023-12-11_13h35.03.438,watkins1,2023.2.3,99.64119214209795,57,2023-12-11 13h35.28.826086 +0000,
,,,,,,,,,,,,,,,,,,,,,,,9,0,9,0,727.5254331999458,,,,,,,,,,765.6560653999913,766.1471026998479,,,bunt,8.209579499904066,,,,,,,,,,,,29.27110439981334,None,,,,,,,,,,Tasse,,,cuedRecallAdj,1,,,,,,,,,,,,,,,,,,,,,,,,,,,,,,,,,,,,,,,,,,,,,,,,,,,,,727.5157225998119,727.5254331999458,0,727.5254331999458,735.7412427000236,matt,return,8.209579499904066,None,735.7415054999292,735.7507634998765,735.7507634998765,765.65578429983,bunt,return,29.904330500168726,None,,,,,1,2023-12-11_13h35.03.438,watkins1,2023.2.3,99.64119214209795,57,2023-12-11 13h35.28.826086 +0000,
,,,,,,,,,,,,,,,,,,,,,,,10,0,10,0,766.1570947000291,,,,,,,,,,768.7617349999491,769.2605711999349,,,,2.5939573000650853,,,,,,,,,,,,None,None,,,,,,,,,,Ring,,,cuedRecallAdj,1,,,,,,,,,,,,,,,,,,,,,,,,,,,,,,,,,,,,,,,,,,,,,,,,,,,,,766.147344699828,766.1570947000291,0,766.1570947000291,768.7587825998198,groß,return,2.5939573000650853,None,768.7590391000267,768.7684836999979,768.7684836999979,768.7616363000125,,None,,,,,,,1,2023-12-11_13h35.03.438,watkins1,2023.2.3,99.64119214209795,57,2023-12-11 13h35.28.826086 +0000,
,,,,,,,,,,,,,,,,,,,,,,,11,0,11,0,769.2706283999141,,,,,,,,,,774.3348713999148,774.8335905999411,,,,5.056329499930143,,,,,,,,,,,,None,None,,,,,,,,,,Geige,,,cuedRecallAdj,1,,,,,,,,,,,,,,,,,,,,,,,,,,,,,,,,,,,,,,,,,,,,,,,,,,,,,769.26081170002,769.2706283999141,0,769.2706283999141,774.331925699953,winzig,return,5.056329499930143,None,774.3321866998449,774.341470999876,774.341470999876,774.3347714999691,,None,,,,,,,1,2023-12-11_13h35.03.438,watkins1,2023.2.3,99.64119214209795,57,2023-12-11 13h35.28.826086 +0000,
,,,,,,,,,,,,,,,,,,,,,,,12,0,12,0,774.8434898999985,,,,,,,,,,785.8808784999419,786.371996599948,,,glatt,3.7154624999966472,,,,,,,,,,,,5.04097339999862,None,,,,,,,,,,Hammer,,,cuedRecallAdj,1,,,,,,,,,,,,,,,,,,,,,,,,,,,,,,,,,,,,,,,,,,,,,,,,,,,,,774.8338331999257,774.8434898999985,0,774.8434898999985,778.5595448999666,krumm,return,3.7154624999966472,None,778.5598061999772,778.5690489998087,778.5690489998087,785.8806135000195,glatt,return,7.309888299787417,None,,,,,1,2023-12-11_13h35.03.438,watkins1,2023.2.3,99.64119214209795,57,2023-12-11 13h35.28.826086 +0000,
,,,,,,,,,,,,,,,,,,,,,,,13,0,13,0,786.3819879998919,,,,,,,,,,789.7699847000185,790.2683492000215,,,,3.376980100059882,,,,,,,,,,,,None,None,,,,,,,,,,Blume,,,cuedRecallAdj,1,,,,,,,,,,,,,,,,,,,,,,,,,,,,,,,,,,,,,,,,,,,,,,,,,,,,,786.3722426998429,786.3819879998919,0,786.3819879998919,789.7666984000243,dreckig,return,3.376980100059882,None,789.7669640998356,789.7765359999612,789.7765359999612,789.7698832999449,,None,,,,,,,1,2023-12-11_13h35.03.438,watkins1,2023.2.3,99.64119214209795,57,2023-12-11 13h35.28.826086 +0000,
,,,,,,,,,,,,,,,,,,,,,,,14,0,14,0,790.2783482000232,,,,,,,,,,798.7042751999106,799.1957218998577,,,klobig,5.920769499847665,,,,,,,,,,,,1.3750390999484807,None,,,,,,,,,,Jacke,,,cuedRecallAdj,1,,,,,,,,,,,,,,,,,,,,,,,,,,,,,,,,,,,,,,,,,,,,,,,,,,,,,790.2685952999163,790.2783482000232,0,790.2783482000232,796.2038391998503,schwer,return,5.920769499847665,None,796.2041050000116,796.2133519998752,796.2133519998752,798.7040128998924,klobig,return,2.481684200000018,None,,,,,1,2023-12-11_13h35.03.438,watkins1,2023.2.3,99.64119214209795,57,2023-12-11 13h35.28.826086 +0000,
,,,,,,,,,,,,,,,,,,,,,,,15,0,15,0,799.2056840998121,,,,,,,,,,825.0650119998027,825.5565020998474,,,gepolstert,8.497214799979702,,,,,,,,,,,,15.40405200002715,None,,,,,,,,,,Telefon,,,cuedRecallAdj,1,,,,,,,,,,,,,,,,,,,,,,,,,,,,,,,,,,,,,,,,,,,,,,,,,,,,,799.1959607999306,799.2056840998121,0,799.2056840998121,807.7119601999875,strahlend,return,8.497214799979702,None,807.7122239000164,807.7216803999618,807.7216803999618,825.0647555999458,gepolstert,return,17.341259199893102,None,,,,,1,2023-12-11_13h35.03.438,watkins1,2023.2.3,99.64119214209795,57,2023-12-11 13h35.28.826086 +0000,
,,,,,,,,,,,,,,,,,,,,,,,16,0,16,0,825.5664556999691,,,,,,,,,,840.0472126998939,840.5386416998226,,,glatt,6.368497799849138,,,,,,,,,,,,7.390238400083035,None,,,,,,,,,,Kamera,,,cuedRecallAdj,1,,,,,,,,,,,,,,,,,,,,,,,,,,,,,,,,,,,,,,,,,,,,,,,,,,,,,825.556743899826,825.5664556999691,0,825.5664556999691,831.9431324999314,glänzend,return,6.368497799849138,None,831.9433955999557,831.95282269991,831.95282269991,840.0469473998528,glatt,return,8.086133900098503,None,,,,,1,2023-12-11_13h35.03.438,watkins1,2023.2.3,99.64119214209795,57,2023-12-11 13h35.28.826086 +0000,
,,,,,,,,,,,,,,,,,,,,,,,17,0,17,0,840.5485802998301,,,,,,,,,,844.5098591998685,845.007889600005,,,,3.9542328999377787,,,,,,,,,,,,None,None,,,,,,,,,,Trommel,,,cuedRecallAdj,1,,,,,,,,,,,,,,,,,,,,,,,,,,,,,,,,,,,,,,,,,,,,,,,,,,,,,840.5388836998027,840.5485802998301,0,840.5485802998301,844.5061466998886,dunkel,return,3.9542328999377787,None,844.506408700021,844.5156838998664,844.5156838998664,844.5097566000186,,None,,,,,,,1,2023-12-11_13h35.03.438,watkins1,2023.2.3,99.64119214209795,57,2023-12-11 13h35.28.826086 +0000,
,,,,,,,,,,,,,,,,,,,,,,,18,0,18,0,845.0178515999578,,,,,,,,,,859.7626236998476,860.261314000003,,,,14.732991199940443,,,,,,,,,,,,None,None,,,,,,,,,,Schlüssel,,,cuedRecallAdj,1,,,,,,,,,,,,,,,,,,,,,,,,,,,,,,,,,,,,,,,,,,,,,,,,,,,,,845.0081281999592,845.0178515999578,0,845.0178515999578,859.7595053999685,schmutzig,return,14.732991199940443,None,859.7597667998634,859.7692118999548,859.7692118999548,859.762523500016,,None,,,,,,,1,2023-12-11_13h35.03.438,watkins1,2023.2.3,99.64119214209795,57,2023-12-11 13h35.28.826086 +0000,
,,,,,,,,,,,,,,,,,,,,,,,19,0,19,0,860.271237900015,,,,,,,,,,897.8891047998331,898.3806378999725,,,bunt,4.527680699946359,,,,,,,,,,,,32.56533640017733,None,,,,,,,,,,Brille,,,cuedRecallAdj,1,,,,,,,,,,,,,,,,,,,,,,,,,,,,,,,,,,,,,,,,,,,,,,,,,,,,,860.2615537999664,860.271237900015,0,860.271237900015,864.8007662999444,sportlich,return,4.527680699946359,None,864.8010310998652,864.8103201999329,864.8103201999329,897.8888383000158,bunt,return,33.06839450006373,None,,,,,1,2023-12-11_13h35.03.438,watkins1,2023.2.3,99.64119214209795,57,2023-12-11 13h35.28.826086 +0000,
,,,,,,,,,,,,,,,,,,,,,,,20,0,20,0,898.3905950000044,,,,,,,,,,905.7617189998273,906.2540599999484,,,schlicht,3.784139199880883,,,,,,,,,,,,2.479683500016108,None,,,,,,,,,,Buch,,,cuedRecallAdj,1,,,,,,,,,,,,,,,,,,,,,,,,,,,,,,,,,,,,,,,,,,,,,,,,,,,,,898.3808867000043,898.3905950000044,0,898.3905950000044,902.1765304999426,kurz,return,3.784139199880883,None,902.1767919999547,902.1861922999378,902.1861922999378,905.7614541000221,schlicht,return,3.5725113002117723,None,,,,,1,2023-12-11_13h35.03.438,watkins1,2023.2.3,99.64119214209795,57,2023-12-11 13h35.28.826086 +0000,
,,,,,,,,,,,,,,,,,,,,,,,21,0,21,0,906.2639729999937,,,,,,,,,,910.4622335999738,910.9539469999727,,,breit,2.686772699933499,,,,,,,,,,,,1.0337233000900596,None,,,,,,,,,,Socke,,,cuedRecallAdj,1,,,,,,,,,,,,,,,,,,,,,,,,,,,,,,,,,,,,,,,,,,,,,,,,,,,,,906.2542977998964,906.2639729999937,0,906.2639729999937,908.9555978998542,biegsam,return,2.686772699933499,None,908.9558619998861,908.9652215000242,908.9652215000242,910.461970299948,breit,return,1.4894958999939263,None,,,,,1,2023-12-11_13h35.03.438,watkins1,2023.2.3,99.64119214209795,57,2023-12-11 13h35.28.826086 +0000,
,,,,,,,,,,,,,,,,,,,,,,,22,0,22,0,910.9635658999905,,,,,,,,,,959.6081560999155,960.099508299958,,,flauschig,3.6912118000909686,,,,,,,,,,,,42.44753180001862,None,,,,,,,,,,Lampe,,,cuedRecallAdj,1,,,,,,,,,,,,,,,,,,,,,,,,,,,,,,,,,,,,,,,,,,,,,,,,,,,,,910.9541856998112,910.9635658999905,0,910.9635658999905,914.659181999974,gepunktet,return,3.6912118000909686,None,914.6594477999024,914.668731499929,914.668731499929,959.6078887998592,flauschig,return,44.9378907000646,None,,,,,1,2023-12-11_13h35.03.438,watkins1,2023.2.3,99.64119214209795,57,2023-12-11 13h35.28.826086 +0000,
,,,,,,,,,,,,,,,,,,,,,,,23,0,23,0,960.1094547999091,,,,,,,,,,966.620362599846,967.118601199938,,,,6.505388099933043,,,,,,,,,,,,None,None,,,,,,,,,,Fahrrad,,,cuedRecallAdj,1,,,,,,,,,,,,,,,,,,,,,,,,,,,,,,,,,,,,,,,,,,,,,,,,,,,,,960.0997458000202,960.1094547999091,0,960.1094547999091,966.6170808000024,glatt,return,6.505388099933043,None,966.6173499999568,966.6266393999103,966.6266393999103,966.6202622000128,,None,,,,,,,1,2023-12-11_13h35.03.438,watkins1,2023.2.3,99.64119214209795,57,2023-12-11 13h35.28.826086 +0000,
,,,,,,,,,,,,,,,,,,,,,,,24,0,24,0,967.1284813999664,,,,,,,,,,1010.8719575998839,1011.3634980998468,,,voll,42.614032400073484,,,,,,,,,,,,0.29041399993002415,None,,,,,,,,,,Eimer,,,cuedRecallAdj,1,,,,,,,,,,,,,,,,,,,,,,,,,,,,,,,,,,,,,,,,,,,,,,,,,,,,,967.1188480998389,967.1284813999664,0,967.1284813999664,1009.7472577998415,leer,return,42.614032400073484,None,1009.747523299884,1009.7568216000218,1009.7568216000218,1010.8716903999448,voll,return,1.1057267000433058,None,,,,,1,2023-12-11_13h35.03.438,watkins1,2023.2.3,99.64119214209795,57,2023-12-11 13h35.28.826086 +0000,
,,,,,,,,,,,,,,,,,,,,,,,25,0,25,0,1011.3734424998984,,,,,,,,,,1022.9425653999206,1023.4341172999702,,,teuer,2.673077099956572,,,,,,,,,,,,8.14362689992413,None,,,,,,,,,,Uhr,,,cuedRecallAdj,1,,,,,,,,,,,,,,,,,,,,,,,,,,,,,,,,,,,,,,,,,,,,,,,,,,,,,1011.363741299836,1011.3734424998984,0,1011.3734424998984,1014.0550833998714,lang,return,2.673077099956572,None,1014.0553464000113,1014.0648079998791,1014.0648079998791,1022.942302600015,teuer,return,8.869675799971446,None,,,,,1,2023-12-11_13h35.03.438,watkins1,2023.2.3,99.64119214209795,57,2023-12-11 13h35.28.826086 +0000,
,,,,,,,,,,,,,,,,,,,,,,,26,0,26,0,1023.4440672998317,,,,,,,,,,1114.1395239999983,1114.6381840999238,,,,90.68233150010929,,,,,,,,,,,,None,None,,,,,,,,,,Kerze,,,cuedRecallAdj,1,,,,,,,,,,,,,,,,,,,,,,,,,,,,,,,,,,,,,,,,,,,,,,,,,,,,,1023.4343599998392,1023.4440672998317,0,1023.4440672998317,1114.1363975999411,matt,return,90.68233150010929,None,1114.1366605998483,1114.1461155998986,1114.1461155998986,1114.1394239999354,,None,,,,,,,1,2023-12-11_13h35.03.438,watkins1,2023.2.3,99.64119214209795,57,2023-12-11 13h35.28.826086 +0000,
,,,,,,,,,,,,,,,,,,,,,,,27,0,27,0,1114.6482410000172,,,,,,,,,,1116.8002688998822,1117.2992671998218,,,,2.142210599966347,,,,,,,,,,,,None,None,,,,,,,,,,Vase,,,cuedRecallAdj,1,,,,,,,,,,,,,,,,,,,,,,,,,,,,,,,,,,,,,,,,,,,,,,,,,,,,,1114.638428799808,1114.6482410000172,0,1114.6482410000172,1116.7974515999667,flach,return,2.142210599966347,None,1116.7977169000078,1116.8072834999766,1116.8072834999766,1116.8001690998208,,None,,,,,,,1,2023-12-11_13h35.03.438,watkins1,2023.2.3,99.64119214209795,57,2023-12-11 13h35.28.826086 +0000,
,,,,,,,,,,,,,,,,,,,,,,,28,0,28,0,1117.3093185999896,,,,,,,,,,1121.2988600998651,1121.7978635998443,,,,3.977092299843207,,,,,,,,,,,,None,None,,,,,,,,,,Kiste,,,cuedRecallAdj,1,,,,,,,,,,,,,,,,,,,,,,,,,,,,,,,,,,,,,,,,,,,,,,,,,,,,,1117.2995109998155,1117.3093185999896,0,1117.3093185999896,1121.2960602999665,neu,return,3.977092299843207,None,1121.2963250998873,1121.3057416998781,1121.3057416998781,1121.2987600998022,,None,,,,,,,1,2023-12-11_13h35.03.438,watkins1,2023.2.3,99.64119214209795,57,2023-12-11 13h35.28.826086 +0000,
,,,,,,,,,,,,,,,,,,,,,,,29,0,29,0,1121.8079154000152,,,,,,,,,,1126.139324599877,1126.6380345998332,,,,4.318382899975404,,,,,,,,,,,,None,None,,,,,,,,,,Löffel,,,cuedRecallAdj,1,,,,,,,,,,,,,,,,,,,,,,,,,,,,,,,,,,,,,,,,,,,,,,,,,,,,,1121.798109699972,1121.8079154000152,0,1121.8079154000152,1126.136127699865,kratzig,return,4.318382899975404,None,1126.13640139997,1126.1457974999212,1126.1457974999212,1126.1392248999327,,None,,,,,,,1,2023-12-11_13h35.03.438,watkins1,2023.2.3,99.64119214209795,57,2023-12-11 13h35.28.826086 +0000,
,,,,,,,,,,,,,,,,,,,,,,,,,,,,,,,,,,,,,,,,,,,,,,,,,,,,,,,,,,,,,,,,,,,,,1,,,,,,,,,,,,,,,,,,,,,,,,,,,,,,,,,,,,,,,,,,,,,,,,,,,,,,,,,,,,,,,,,,,,,,1126.6547314999625,q,411.75078870006837,None,1,2023-12-11_13h35.03.438,watkins1,2023.2.3,99.64119214209795,57,2023-12-11 13h35.28.826086 +0000,
