Equation,CorrectResponse,Correctbutton,trials_7.thisRepN,trials_7.thisTrialN,trials_7.thisN,trials_7.thisIndex,trials.thisRepN,trials.thisTrialN,trials.thisN,trials.thisIndex,trials_3.thisRepN,trials_3.thisTrialN,trials_3.thisN,trials_3.thisIndex,trials_2.thisRepN,trials_2.thisTrialN,trials_2.thisN,trials_2.thisIndex,trials_4.thisRepN,trials_4.thisTrialN,trials_4.thisN,trials_4.thisIndex,trials_5.thisRepN,trials_5.thisTrialN,trials_5.thisN,trials_5.thisIndex,thisRow.t,notes,list_sub_restudy,list_sub_testsub,code_marius.started,code_marius.stopped,welcome.started,welcome.stopped,instruction_study.started,instruction_study.stopped,fixationcross.started,fixationcross.stopped,blanc.started,blanc.stopped,study_control_probe.started,study_control_probe.stopped,responseKey,responseTime,scale_answer_2.keys,study_control_probe_2.started,study_control_probe_2.stopped,scale_answer_3.keys,scale_answer_3.rt,scale_answer_3.duration,blanc_2.started,blanc_2.stopped,test_attr_probe.started,test_attr_probe.stopped,recalled_attr,firstKeyTime,secondWordTime,blanc_3.started,blanc_3.stopped,test_sub_probe.started,test_sub_probe.stopped,recalled_sub,instruction_probe_end.started,instruction_probe_end.stopped,study.started,study.stopped,substantive,adjective,wordpair,task,condition,liste_sub_phase1,liste_adj_phase1,scale_answer.keys,scale_answer.rt,scale_answer.duration,code_defineWordsInit.started,code_defineWordsInit.stopped,liste_sub_phase2,study_control.started,study_control.stopped,scale_answer_4.keys,restudy_same.started,restudy_same.stopped,scale_answer_5.keys,scale_answer_5.rt,scale_answer_5.duration,restudy_different.started,restudy_different.stopped,scale_answer_6.keys,test_attr.started,test_attr.stopped,test_sub.started,test_sub.stopped,correct,distractortask.started,equation_text.started,distractortask.stopped,mouse_answer.x,mouse_answer.y,mouse_answer.leftButton,mouse_answer.midButton,mouse_answer.rightButton,mouse_answer.time,mouse_answer.clicked_name,feedback_distractortask.started,feedback_distractortask.stopped,free_recall.started,text_enter.started,key_resp.started,free_recall.stopped,key_resp.keys,key_resp.rt,key_resp.duration,free_recalled_sub,mouse_continue.x,mouse_continue.y,mouse_continue.leftButton,mouse_continue.midButton,mouse_continue.rightButton,mouse_continue.time,mouse_continue.clicked_name,cued_recall.started,text_enter_2.started,key_continue.started,cued_recall.stopped,recalled_attr1,key_continue.keys,key_continue.rt,key_continue.duration,cued_recall_2.started,text_enter_3.started,key_continue_2.started,cued_recall_2.stopped,recalled_attr2,key_continue_2.keys,key_resp_8.started,key_resp_8.keys,key_resp_8.rt,key_resp_8.duration,condition,date,expName,psychopyVersion,frameRate,participant,expStart,
,,,,,,,,,,,,,,,,,,,,,,,,,,,,,"['Vase', 'Kamera', 'Kiste', 'Kerze', 'Fahrrad', 'Schlüssel', 'Brille', 'Kette', 'Löffel', 'Würfel', 'Blume', 'Lampe', 'Eimer', 'Geige', 'Telefon']","['Bürste', 'Hut', 'Ring', 'Tasse', 'Schere', 'Uhr', 'Socke', 'Tasche', 'Trommel', 'Hammer', 'Jacke', 'Rucksack', 'Flasche', 'Buch', 'Stift']",0.12243360001593828,0.12250149995088577,0.12250959989614785,19.762880000052974,,,,,,,,,,,,,,,,,,,,,,,,,,,,,,,,,,,,,2,,,,,,,,,,,,,,,,,,,,,,,,,,,,,,,,,,,,,,,,,,,,,,,,,,,,,,,,,,,,,,,,,,,,,,2,2023-12-04_13h05.32.763,watkins1,2023.2.3,99.70189130356688,41,2023-12-04 13h05.38.816473 +0000,
,,,,,,,,,,,,,,,,,,,,,,,,,,,,,,,,,,,19.76292959996499,79.16458599991165,,,,,,,,,,,,,,,,,,,,,,,,,,,,,,,,,,,2,,,,,,,,,,,,,,,,,,,,,,,,,,,,,,,,,,,,,,,,,,,,,,,,,,,,,,,,,,,,,,,,,,,,,,2,2023-12-04_13h05.32.763,watkins1,2023.2.3,99.70189130356688,41,2023-12-04 13h05.38.816473 +0000,
,,,0,0,0,0,,,,,,,,,,,,,,,,,,,,,80.17806699988432,,,,,,,,,,79.16460400004871,80.16814249986783,86.66374209988862,87.15511559997685,80.66033850004897,86.66357450000942,2,3.801073000067845,None,87.15512729994953,93.16138289985247,2,3.801073000067845,None,93.16167850000784,93.16170189995319,93.16170910000801,93.16179209994152,,None,None,93.16195149999112,93.65293139987625,93.6529428998474,99.65809819987044,,,,,,,,,,2,,,,,,,,,,,,,,,,,,,,,,,,,,,,,,,,,,,,,,,,,,,,,,,,,,,,,,,,,,,,,,,,,,,,,,2,2023-12-04_13h05.32.763,watkins1,2023.2.3,99.70189130356688,41,2023-12-04 13h05.38.816473 +0000,
,,,,,,,,,,,,,,,,,,,,,,,,,,,,,,,,,,,,,,,,,,,,,,,,,,,,,,,,,,,,,,,99.65826579998247,112.2951841999311,,,,,,,2,,,,,,,,,,,,,,,,,,,,,,,,,,,,,,,,,,,,,,,,,,,,,,,,,,,,,,,,,,,,,,,,,,,,,,2,2023-12-04_13h05.32.763,watkins1,2023.2.3,99.70189130356688,41,2023-12-04 13h05.38.816473 +0000,
,,,,,,,0,0,0,0,,,,,,,,,,,,,,,,,113.3088225000538,,,,,,,,,,112.29520149994642,113.29884579987265,113.29933359986171,113.79078439995646,,,1,2.3165633999742568,,,,,,,,,,,,,,,,,,,,,113.7907956999261,119.79825949994847,Ring,flauschig,"['Ring', 'flauschig']",test_sub,2,"['Ring', 'Geige', 'Schere', 'Jacke', 'Löffel', 'Kamera', 'Tasse', 'Flasche', 'Socke', 'Buch', 'Hammer', 'Telefon', 'Stift', 'Eimer', 'Kerze', 'Lampe', 'Uhr', 'Rucksack', 'Blume', 'Vase', 'Kiste', 'Brille', 'Schlüssel', 'Hut', 'Würfel', 'Fahrrad', 'Bürste', 'Tasche', 'Kette', 'Trommel']",['flauschig'],1,2.3165633999742568,None,,,,,,,,,,,,,,,,,,,,,,,,,,,,,,,,,,,,,,,,,,,,,,,,,,,,,,,,,,,,,,,,,2,2023-12-04_13h05.32.763,watkins1,2023.2.3,99.70189130356688,41,2023-12-04 13h05.38.816473 +0000,
,,,,,,,1,0,1,0,,,,,,,,,,,,,,,,,119.80772010004148,,,,,,,,,,,,119.79891199991107,120.28987780003808,,,1,1.9276610999368131,,,,,,,,,,,,,,,,,,,,,120.28988939989358,126.295413200045,Geige,nass,"['Geige', 'nass']",restudy,2,"['Ring', 'Geige', 'Schere', 'Jacke', 'Löffel', 'Kamera', 'Tasse', 'Flasche', 'Socke', 'Buch', 'Hammer', 'Telefon', 'Stift', 'Eimer', 'Kerze', 'Lampe', 'Uhr', 'Rucksack', 'Blume', 'Vase', 'Kiste', 'Brille', 'Schlüssel', 'Hut', 'Würfel', 'Fahrrad', 'Bürste', 'Tasche', 'Kette', 'Trommel']","['flauschig', 'nass']",1,1.9276610999368131,None,,,,,,,,,,,,,,,,,,,,,,,,,,,,,,,,,,,,,,,,,,,,,,,,,,,,,,,,,,,,,,,,,2,2023-12-04_13h05.32.763,watkins1,2023.2.3,99.70189130356688,41,2023-12-04 13h05.38.816473 +0000,
,,,,,,,2,0,2,0,,,,,,,,,,,,,,,,,126.30483849998564,,,,,,,,,,,,126.29594390001148,126.78723799996078,,,2,2.0700020000804216,,,,,,,,,,,,,,,,,,,,,126.78724989993498,132.7897065000143,Schere,kalt,"['Schere', 'kalt']",test_sub,2,"['Ring', 'Geige', 'Schere', 'Jacke', 'Löffel', 'Kamera', 'Tasse', 'Flasche', 'Socke', 'Buch', 'Hammer', 'Telefon', 'Stift', 'Eimer', 'Kerze', 'Lampe', 'Uhr', 'Rucksack', 'Blume', 'Vase', 'Kiste', 'Brille', 'Schlüssel', 'Hut', 'Würfel', 'Fahrrad', 'Bürste', 'Tasche', 'Kette', 'Trommel']","['flauschig', 'nass', 'kalt']",2,2.0700020000804216,None,,,,,,,,,,,,,,,,,,,,,,,,,,,,,,,,,,,,,,,,,,,,,,,,,,,,,,,,,,,,,,,,,2,2023-12-04_13h05.32.763,watkins1,2023.2.3,99.70189130356688,41,2023-12-04 13h05.38.816473 +0000,
,,,,,,,3,0,3,0,,,,,,,,,,,,,,,,,132.79923340003006,,,,,,,,,,,,132.790226199897,133.28135119983926,,,3,2.688319900073111,,,,,,,,,,,,,,,,,,,,,133.2813623000402,139.28439489984885,Jacke,nachhaltig,"['Jacke', 'nachhaltig']",test_sub,2,"['Ring', 'Geige', 'Schere', 'Jacke', 'Löffel', 'Kamera', 'Tasse', 'Flasche', 'Socke', 'Buch', 'Hammer', 'Telefon', 'Stift', 'Eimer', 'Kerze', 'Lampe', 'Uhr', 'Rucksack', 'Blume', 'Vase', 'Kiste', 'Brille', 'Schlüssel', 'Hut', 'Würfel', 'Fahrrad', 'Bürste', 'Tasche', 'Kette', 'Trommel']","['flauschig', 'nass', 'kalt', 'nachhaltig']",3,2.688319900073111,None,,,,,,,,,,,,,,,,,,,,,,,,,,,,,,,,,,,,,,,,,,,,,,,,,,,,,,,,,,,,,,,,,2,2023-12-04_13h05.32.763,watkins1,2023.2.3,99.70189130356688,41,2023-12-04 13h05.38.816473 +0000,
,,,,,,,4,0,4,0,,,,,,,,,,,,,,,,,139.29391300003044,,,,,,,,,,,,139.28493149997666,139.77592579997145,,,1,2.6416366000194103,,,,,,,,,,,,,,,,,,,,,139.77593740005977,145.77967079984955,Löffel,flach,"['Löffel', 'flach']",restudy,2,"['Ring', 'Geige', 'Schere', 'Jacke', 'Löffel', 'Kamera', 'Tasse', 'Flasche', 'Socke', 'Buch', 'Hammer', 'Telefon', 'Stift', 'Eimer', 'Kerze', 'Lampe', 'Uhr', 'Rucksack', 'Blume', 'Vase', 'Kiste', 'Brille', 'Schlüssel', 'Hut', 'Würfel', 'Fahrrad', 'Bürste', 'Tasche', 'Kette', 'Trommel']","['flauschig', 'nass', 'kalt', 'nachhaltig', 'flach']",1,2.6416366000194103,None,,,,,,,,,,,,,,,,,,,,,,,,,,,,,,,,,,,,,,,,,,,,,,,,,,,,,,,,,,,,,,,,,2,2023-12-04_13h05.32.763,watkins1,2023.2.3,99.70189130356688,41,2023-12-04 13h05.38.816473 +0000,
,,,,,,,5,0,5,0,,,,,,,,,,,,,,,,,145.78912650002167,,,,,,,,,,,,145.78019859991036,146.27120239986107,,,1,2.010237199952826,,,,,,,,,,,,,,,,,,,,,146.27121370006353,152.27968059992418,Kamera,kurz,"['Kamera', 'kurz']",restudy,2,"['Ring', 'Geige', 'Schere', 'Jacke', 'Löffel', 'Kamera', 'Tasse', 'Flasche', 'Socke', 'Buch', 'Hammer', 'Telefon', 'Stift', 'Eimer', 'Kerze', 'Lampe', 'Uhr', 'Rucksack', 'Blume', 'Vase', 'Kiste', 'Brille', 'Schlüssel', 'Hut', 'Würfel', 'Fahrrad', 'Bürste', 'Tasche', 'Kette', 'Trommel']","['flauschig', 'nass', 'kalt', 'nachhaltig', 'flach', 'kurz']",1,2.010237199952826,None,,,,,,,,,,,,,,,,,,,,,,,,,,,,,,,,,,,,,,,,,,,,,,,,,,,,,,,,,,,,,,,,,2,2023-12-04_13h05.32.763,watkins1,2023.2.3,99.70189130356688,41,2023-12-04 13h05.38.816473 +0000,
,,,,,,,6,0,6,0,,,,,,,,,,,,,,,,,152.289100300055,,,,,,,,,,,,152.28021220001392,152.77122600004077,,,2,2.606396999908611,,,,,,,,,,,,,,,,,,,,,152.77123750001192,158.7720894999802,Tasse,sauber,"['Tasse', 'sauber']",test_sub,2,"['Ring', 'Geige', 'Schere', 'Jacke', 'Löffel', 'Kamera', 'Tasse', 'Flasche', 'Socke', 'Buch', 'Hammer', 'Telefon', 'Stift', 'Eimer', 'Kerze', 'Lampe', 'Uhr', 'Rucksack', 'Blume', 'Vase', 'Kiste', 'Brille', 'Schlüssel', 'Hut', 'Würfel', 'Fahrrad', 'Bürste', 'Tasche', 'Kette', 'Trommel']","['flauschig', 'nass', 'kalt', 'nachhaltig', 'flach', 'kurz', 'sauber']",2,2.606396999908611,None,,,,,,,,,,,,,,,,,,,,,,,,,,,,,,,,,,,,,,,,,,,,,,,,,,,,,,,,,,,,,,,,,2,2023-12-04_13h05.32.763,watkins1,2023.2.3,99.70189130356688,41,2023-12-04 13h05.38.816473 +0000,
,,,,,,,7,0,7,0,,,,,,,,,,,,,,,,,158.78156469995156,,,,,,,,,,,,158.77261119987816,159.26363659999333,,,1,2.4022286001127213,,,,,,,,,,,,,,,,,,,,,159.26364789996296,165.26937350002117,Flasche,krumm,"['Flasche', 'krumm']",test_sub,2,"['Ring', 'Geige', 'Schere', 'Jacke', 'Löffel', 'Kamera', 'Tasse', 'Flasche', 'Socke', 'Buch', 'Hammer', 'Telefon', 'Stift', 'Eimer', 'Kerze', 'Lampe', 'Uhr', 'Rucksack', 'Blume', 'Vase', 'Kiste', 'Brille', 'Schlüssel', 'Hut', 'Würfel', 'Fahrrad', 'Bürste', 'Tasche', 'Kette', 'Trommel']","['flauschig', 'nass', 'kalt', 'nachhaltig', 'flach', 'kurz', 'sauber', 'krumm']",1,2.4022286001127213,None,,,,,,,,,,,,,,,,,,,,,,,,,,,,,,,,,,,,,,,,,,,,,,,,,,,,,,,,,,,,,,,,,2,2023-12-04_13h05.32.763,watkins1,2023.2.3,99.70189130356688,41,2023-12-04 13h05.38.816473 +0000,
,,,,,,,8,0,8,0,,,,,,,,,,,,,,,,,165.27884719986469,,,,,,,,,,,,165.26989510003477,165.76065139984712,,,1,2.641340699978173,,,,,,,,,,,,,,,,,,,,,165.76066219992936,171.76325730001554,Socke,klobig,"['Socke', 'klobig']",test_sub,2,"['Ring', 'Geige', 'Schere', 'Jacke', 'Löffel', 'Kamera', 'Tasse', 'Flasche', 'Socke', 'Buch', 'Hammer', 'Telefon', 'Stift', 'Eimer', 'Kerze', 'Lampe', 'Uhr', 'Rucksack', 'Blume', 'Vase', 'Kiste', 'Brille', 'Schlüssel', 'Hut', 'Würfel', 'Fahrrad', 'Bürste', 'Tasche', 'Kette', 'Trommel']","['flauschig', 'nass', 'kalt', 'nachhaltig', 'flach', 'kurz', 'sauber', 'krumm', 'klobig']",1,2.641340699978173,None,,,,,,,,,,,,,,,,,,,,,,,,,,,,,,,,,,,,,,,,,,,,,,,,,,,,,,,,,,,,,,,,,2,2023-12-04_13h05.32.763,watkins1,2023.2.3,99.70189130356688,41,2023-12-04 13h05.38.816473 +0000,
,,,,,,,9,0,9,0,,,,,,,,,,,,,,,,,171.77271779999137,,,,,,,,,,,,171.76378739997745,172.25474799983203,,,3,1.858768600039184,,,,,,,,,,,,,,,,,,,,,172.25475959992036,178.25719269993715,Buch,hübsch,"['Buch', 'hübsch']",test_sub,2,"['Ring', 'Geige', 'Schere', 'Jacke', 'Löffel', 'Kamera', 'Tasse', 'Flasche', 'Socke', 'Buch', 'Hammer', 'Telefon', 'Stift', 'Eimer', 'Kerze', 'Lampe', 'Uhr', 'Rucksack', 'Blume', 'Vase', 'Kiste', 'Brille', 'Schlüssel', 'Hut', 'Würfel', 'Fahrrad', 'Bürste', 'Tasche', 'Kette', 'Trommel']","['flauschig', 'nass', 'kalt', 'nachhaltig', 'flach', 'kurz', 'sauber', 'krumm', 'klobig', 'hübsch']",3,1.858768600039184,None,,,,,,,,,,,,,,,,,,,,,,,,,,,,,,,,,,,,,,,,,,,,,,,,,,,,,,,,,,,,,,,,,2,2023-12-04_13h05.32.763,watkins1,2023.2.3,99.70189130356688,41,2023-12-04 13h05.38.816473 +0000,
,,,,,,,10,0,10,0,,,,,,,,,,,,,,,,,178.26674459991045,,,,,,,,,,,,178.25769779994152,178.74876610003412,,,1,1.189550400013104,,,,,,,,,,,,,,,,,,,,,178.748776699882,184.7570807999,Hammer,hohl,"['Hammer', 'hohl']",test_sub,2,"['Ring', 'Geige', 'Schere', 'Jacke', 'Löffel', 'Kamera', 'Tasse', 'Flasche', 'Socke', 'Buch', 'Hammer', 'Telefon', 'Stift', 'Eimer', 'Kerze', 'Lampe', 'Uhr', 'Rucksack', 'Blume', 'Vase', 'Kiste', 'Brille', 'Schlüssel', 'Hut', 'Würfel', 'Fahrrad', 'Bürste', 'Tasche', 'Kette', 'Trommel']","['flauschig', 'nass', 'kalt', 'nachhaltig', 'flach', 'kurz', 'sauber', 'krumm', 'klobig', 'hübsch', 'hohl']",1,1.189550400013104,None,,,,,,,,,,,,,,,,,,,,,,,,,,,,,,,,,,,,,,,,,,,,,,,,,,,,,,,,,,,,,,,,,2,2023-12-04_13h05.32.763,watkins1,2023.2.3,99.70189130356688,41,2023-12-04 13h05.38.816473 +0000,
,,,,,,,11,0,11,0,,,,,,,,,,,,,,,,,184.76655339985155,,,,,,,,,,,,184.75761229987256,185.24870759993792,,,2,1.7928579999133945,,,,,,,,,,,,,,,,,,,,,185.24872129992582,191.25727929989807,Telefon,schwer,"['Telefon', 'schwer']",restudy,2,"['Ring', 'Geige', 'Schere', 'Jacke', 'Löffel', 'Kamera', 'Tasse', 'Flasche', 'Socke', 'Buch', 'Hammer', 'Telefon', 'Stift', 'Eimer', 'Kerze', 'Lampe', 'Uhr', 'Rucksack', 'Blume', 'Vase', 'Kiste', 'Brille', 'Schlüssel', 'Hut', 'Würfel', 'Fahrrad', 'Bürste', 'Tasche', 'Kette', 'Trommel']","['flauschig', 'nass', 'kalt', 'nachhaltig', 'flach', 'kurz', 'sauber', 'krumm', 'klobig', 'hübsch', 'hohl', 'schwer']",2,1.7928579999133945,None,,,,,,,,,,,,,,,,,,,,,,,,,,,,,,,,,,,,,,,,,,,,,,,,,,,,,,,,,,,,,,,,,2,2023-12-04_13h05.32.763,watkins1,2023.2.3,99.70189130356688,41,2023-12-04 13h05.38.816473 +0000,
,,,,,,,12,0,12,0,,,,,,,,,,,,,,,,,191.2668335000053,,,,,,,,,,,,191.2577998000197,191.74890809995122,,,3,1.5091059000696987,,,,,,,,,,,,,,,,,,,,,191.74891919991933,197.75539479986764,Stift,kaputt,"['Stift', 'kaputt']",test_sub,2,"['Ring', 'Geige', 'Schere', 'Jacke', 'Löffel', 'Kamera', 'Tasse', 'Flasche', 'Socke', 'Buch', 'Hammer', 'Telefon', 'Stift', 'Eimer', 'Kerze', 'Lampe', 'Uhr', 'Rucksack', 'Blume', 'Vase', 'Kiste', 'Brille', 'Schlüssel', 'Hut', 'Würfel', 'Fahrrad', 'Bürste', 'Tasche', 'Kette', 'Trommel']","['flauschig', 'nass', 'kalt', 'nachhaltig', 'flach', 'kurz', 'sauber', 'krumm', 'klobig', 'hübsch', 'hohl', 'schwer', 'kaputt']",3,1.5091059000696987,None,,,,,,,,,,,,,,,,,,,,,,,,,,,,,,,,,,,,,,,,,,,,,,,,,,,,,,,,,,,,,,,,,2,2023-12-04_13h05.32.763,watkins1,2023.2.3,99.70189130356688,41,2023-12-04 13h05.38.816473 +0000,
,,,,,,,13,0,13,0,,,,,,,,,,,,,,,,,197.76481139985844,,,,,,,,,,,,197.75594399985857,198.24704539985396,,,1,1.7460753000341356,,,,,,,,,,,,,,,,,,,,,198.24705670005642,204.24865289987065,Eimer,niedlich,"['Eimer', 'niedlich']",restudy,2,"['Ring', 'Geige', 'Schere', 'Jacke', 'Löffel', 'Kamera', 'Tasse', 'Flasche', 'Socke', 'Buch', 'Hammer', 'Telefon', 'Stift', 'Eimer', 'Kerze', 'Lampe', 'Uhr', 'Rucksack', 'Blume', 'Vase', 'Kiste', 'Brille', 'Schlüssel', 'Hut', 'Würfel', 'Fahrrad', 'Bürste', 'Tasche', 'Kette', 'Trommel']","['flauschig', 'nass', 'kalt', 'nachhaltig', 'flach', 'kurz', 'sauber', 'krumm', 'klobig', 'hübsch', 'hohl', 'schwer', 'kaputt', 'niedlich']",1,1.7460753000341356,None,,,,,,,,,,,,,,,,,,,,,,,,,,,,,,,,,,,,,,,,,,,,,,,,,,,,,,,,,,,,,,,,,2,2023-12-04_13h05.32.763,watkins1,2023.2.3,99.70189130356688,41,2023-12-04 13h05.38.816473 +0000,
,,,,,,,14,0,14,0,,,,,,,,,,,,,,,,,204.25814009993337,,,,,,,,,,,,204.24918049992993,204.74014159990475,,,2,1.502692800015211,,,,,,,,,,,,,,,,,,,,,204.74015289987437,210.74865660001524,Kerze,blass,"['Kerze', 'blass']",restudy,2,"['Ring', 'Geige', 'Schere', 'Jacke', 'Löffel', 'Kamera', 'Tasse', 'Flasche', 'Socke', 'Buch', 'Hammer', 'Telefon', 'Stift', 'Eimer', 'Kerze', 'Lampe', 'Uhr', 'Rucksack', 'Blume', 'Vase', 'Kiste', 'Brille', 'Schlüssel', 'Hut', 'Würfel', 'Fahrrad', 'Bürste', 'Tasche', 'Kette', 'Trommel']","['flauschig', 'nass', 'kalt', 'nachhaltig', 'flach', 'kurz', 'sauber', 'krumm', 'klobig', 'hübsch', 'hohl', 'schwer', 'kaputt', 'niedlich', 'blass']",2,1.502692800015211,None,,,,,,,,,,,,,,,,,,,,,,,,,,,,,,,,,,,,,,,,,,,,,,,,,,,,,,,,,,,,,,,,,2,2023-12-04_13h05.32.763,watkins1,2023.2.3,99.70189130356688,41,2023-12-04 13h05.38.816473 +0000,
,,,,,,,15,0,15,0,,,,,,,,,,,,,,,,,210.75804059999064,,,,,,,,,,,,210.74920069985092,211.2403865000233,,,1,2.1054011997766793,,,,,,,,,,,,,,,,,,,,,211.2403980998788,217.24877289985307,Lampe,hässlich,"['Lampe', 'hässlich']",restudy,2,"['Ring', 'Geige', 'Schere', 'Jacke', 'Löffel', 'Kamera', 'Tasse', 'Flasche', 'Socke', 'Buch', 'Hammer', 'Telefon', 'Stift', 'Eimer', 'Kerze', 'Lampe', 'Uhr', 'Rucksack', 'Blume', 'Vase', 'Kiste', 'Brille', 'Schlüssel', 'Hut', 'Würfel', 'Fahrrad', 'Bürste', 'Tasche', 'Kette', 'Trommel']","['flauschig', 'nass', 'kalt', 'nachhaltig', 'flach', 'kurz', 'sauber', 'krumm', 'klobig', 'hübsch', 'hohl', 'schwer', 'kaputt', 'niedlich', 'blass', 'hässlich']",1,2.1054011997766793,None,,,,,,,,,,,,,,,,,,,,,,,,,,,,,,,,,,,,,,,,,,,,,,,,,,,,,,,,,,,,,,,,,2,2023-12-04_13h05.32.763,watkins1,2023.2.3,99.70189130356688,41,2023-12-04 13h05.38.816473 +0000,
,,,,,,,16,0,16,0,,,,,,,,,,,,,,,,,217.2582320999354,,,,,,,,,,,,217.2492982998956,217.74030539998785,,,3,1.4935975999105722,,,,,,,,,,,,,,,,,,,,,217.74031629995443,223.7433501998894,Uhr,praktisch,"['Uhr', 'praktisch']",test_sub,2,"['Ring', 'Geige', 'Schere', 'Jacke', 'Löffel', 'Kamera', 'Tasse', 'Flasche', 'Socke', 'Buch', 'Hammer', 'Telefon', 'Stift', 'Eimer', 'Kerze', 'Lampe', 'Uhr', 'Rucksack', 'Blume', 'Vase', 'Kiste', 'Brille', 'Schlüssel', 'Hut', 'Würfel', 'Fahrrad', 'Bürste', 'Tasche', 'Kette', 'Trommel']","['flauschig', 'nass', 'kalt', 'nachhaltig', 'flach', 'kurz', 'sauber', 'krumm', 'klobig', 'hübsch', 'hohl', 'schwer', 'kaputt', 'niedlich', 'blass', 'hässlich', 'praktisch']",3,1.4935975999105722,None,,,,,,,,,,,,,,,,,,,,,,,,,,,,,,,,,,,,,,,,,,,,,,,,,,,,,,,,,,,,,,,,,2,2023-12-04_13h05.32.763,watkins1,2023.2.3,99.70189130356688,41,2023-12-04 13h05.38.816473 +0000,
,,,,,,,17,0,17,0,,,,,,,,,,,,,,,,,223.75281089986674,,,,,,,,,,,,223.74387959996238,224.23485010000877,,,2,2.223219499923289,,,,,,,,,,,,,,,,,,,,,224.23486179998145,230.23724929988384,Rucksack,dunkel,"['Rucksack', 'dunkel']",test_sub,2,"['Ring', 'Geige', 'Schere', 'Jacke', 'Löffel', 'Kamera', 'Tasse', 'Flasche', 'Socke', 'Buch', 'Hammer', 'Telefon', 'Stift', 'Eimer', 'Kerze', 'Lampe', 'Uhr', 'Rucksack', 'Blume', 'Vase', 'Kiste', 'Brille', 'Schlüssel', 'Hut', 'Würfel', 'Fahrrad', 'Bürste', 'Tasche', 'Kette', 'Trommel']","['flauschig', 'nass', 'kalt', 'nachhaltig', 'flach', 'kurz', 'sauber', 'krumm', 'klobig', 'hübsch', 'hohl', 'schwer', 'kaputt', 'niedlich', 'blass', 'hässlich', 'praktisch', 'dunkel']",2,2.223219499923289,None,,,,,,,,,,,,,,,,,,,,,,,,,,,,,,,,,,,,,,,,,,,,,,,,,,,,,,,,,,,,,,,,,2,2023-12-04_13h05.32.763,watkins1,2023.2.3,99.70189130356688,41,2023-12-04 13h05.38.816473 +0000,
,,,,,,,18,0,18,0,,,,,,,,,,,,,,,,,230.24666489986703,,,,,,,,,,,,230.23777769994922,230.72871699999087,,,3,1.153827500063926,,,,,,,,,,,,,,,,,,,,,230.72872759983875,236.7382141998969,Blume,gut,"['Blume', 'gut']",restudy,2,"['Ring', 'Geige', 'Schere', 'Jacke', 'Löffel', 'Kamera', 'Tasse', 'Flasche', 'Socke', 'Buch', 'Hammer', 'Telefon', 'Stift', 'Eimer', 'Kerze', 'Lampe', 'Uhr', 'Rucksack', 'Blume', 'Vase', 'Kiste', 'Brille', 'Schlüssel', 'Hut', 'Würfel', 'Fahrrad', 'Bürste', 'Tasche', 'Kette', 'Trommel']","['flauschig', 'nass', 'kalt', 'nachhaltig', 'flach', 'kurz', 'sauber', 'krumm', 'klobig', 'hübsch', 'hohl', 'schwer', 'kaputt', 'niedlich', 'blass', 'hässlich', 'praktisch', 'dunkel', 'gut']",3,1.153827500063926,None,,,,,,,,,,,,,,,,,,,,,,,,,,,,,,,,,,,,,,,,,,,,,,,,,,,,,,,,,,,,,,,,,2,2023-12-04_13h05.32.763,watkins1,2023.2.3,99.70189130356688,41,2023-12-04 13h05.38.816473 +0000,
,,,,,,,19,0,19,0,,,,,,,,,,,,,,,,,236.7476271998603,,,,,,,,,,,,236.73873670003377,237.22977079986595,,,3,1.572179599897936,,,,,,,,,,,,,,,,,,,,,237.22978299995884,243.2307545999065,Vase,breit,"['Vase', 'breit']",restudy,2,"['Ring', 'Geige', 'Schere', 'Jacke', 'Löffel', 'Kamera', 'Tasse', 'Flasche', 'Socke', 'Buch', 'Hammer', 'Telefon', 'Stift', 'Eimer', 'Kerze', 'Lampe', 'Uhr', 'Rucksack', 'Blume', 'Vase', 'Kiste', 'Brille', 'Schlüssel', 'Hut', 'Würfel', 'Fahrrad', 'Bürste', 'Tasche', 'Kette', 'Trommel']","['flauschig', 'nass', 'kalt', 'nachhaltig', 'flach', 'kurz', 'sauber', 'krumm', 'klobig', 'hübsch', 'hohl', 'schwer', 'kaputt', 'niedlich', 'blass', 'hässlich', 'praktisch', 'dunkel', 'gut', 'breit']",3,1.572179599897936,None,,,,,,,,,,,,,,,,,,,,,,,,,,,,,,,,,,,,,,,,,,,,,,,,,,,,,,,,,,,,,,,,,2,2023-12-04_13h05.32.763,watkins1,2023.2.3,99.70189130356688,41,2023-12-04 13h05.38.816473 +0000,
,,,,,,,20,0,20,0,,,,,,,,,,,,,,,,,243.24027189984918,,,,,,,,,,,,243.23129060002975,243.7224119999446,,,2,2.256188299972564,,,,,,,,,,,,,,,,,,,,,243.72242249990813,249.73221209994517,Kiste,glänzend,"['Kiste', 'glänzend']",restudy,2,"['Ring', 'Geige', 'Schere', 'Jacke', 'Löffel', 'Kamera', 'Tasse', 'Flasche', 'Socke', 'Buch', 'Hammer', 'Telefon', 'Stift', 'Eimer', 'Kerze', 'Lampe', 'Uhr', 'Rucksack', 'Blume', 'Vase', 'Kiste', 'Brille', 'Schlüssel', 'Hut', 'Würfel', 'Fahrrad', 'Bürste', 'Tasche', 'Kette', 'Trommel']","['flauschig', 'nass', 'kalt', 'nachhaltig', 'flach', 'kurz', 'sauber', 'krumm', 'klobig', 'hübsch', 'hohl', 'schwer', 'kaputt', 'niedlich', 'blass', 'hässlich', 'praktisch', 'dunkel', 'gut', 'breit', 'glänzend']",2,2.256188299972564,None,,,,,,,,,,,,,,,,,,,,,,,,,,,,,,,,,,,,,,,,,,,,,,,,,,,,,,,,,,,,,,,,,2,2023-12-04_13h05.32.763,watkins1,2023.2.3,99.70189130356688,41,2023-12-04 13h05.38.816473 +0000,
,,,,,,,21,0,21,0,,,,,,,,,,,,,,,,,249.7417667999398,,,,,,,,,,,,249.73273299983703,250.22382740001194,,,1,2.154991899849847,,,,,,,,,,,,,,,,,,,,,250.22383909998462,256.23242180002853,Brille,dick,"['Brille', 'dick']",restudy,2,"['Ring', 'Geige', 'Schere', 'Jacke', 'Löffel', 'Kamera', 'Tasse', 'Flasche', 'Socke', 'Buch', 'Hammer', 'Telefon', 'Stift', 'Eimer', 'Kerze', 'Lampe', 'Uhr', 'Rucksack', 'Blume', 'Vase', 'Kiste', 'Brille', 'Schlüssel', 'Hut', 'Würfel', 'Fahrrad', 'Bürste', 'Tasche', 'Kette', 'Trommel']","['flauschig', 'nass', 'kalt', 'nachhaltig', 'flach', 'kurz', 'sauber', 'krumm', 'klobig', 'hübsch', 'hohl', 'schwer', 'kaputt', 'niedlich', 'blass', 'hässlich', 'praktisch', 'dunkel', 'gut', 'breit', 'glänzend', 'dick']",1,2.154991899849847,None,,,,,,,,,,,,,,,,,,,,,,,,,,,,,,,,,,,,,,,,,,,,,,,,,,,,,,,,,,,,,,,,,2,2023-12-04_13h05.32.763,watkins1,2023.2.3,99.70189130356688,41,2023-12-04 13h05.38.816473 +0000,
,,,,,,,22,0,22,0,,,,,,,,,,,,,,,,,256.2419408999849,,,,,,,,,,,,256.23296479997225,256.7239339998923,,,2,1.6617188998498023,,,,,,,,,,,,,,,,,,,,,256.7239443999715,262.73410580004565,Schlüssel,groß,"['Schlüssel', 'groß']",restudy,2,"['Ring', 'Geige', 'Schere', 'Jacke', 'Löffel', 'Kamera', 'Tasse', 'Flasche', 'Socke', 'Buch', 'Hammer', 'Telefon', 'Stift', 'Eimer', 'Kerze', 'Lampe', 'Uhr', 'Rucksack', 'Blume', 'Vase', 'Kiste', 'Brille', 'Schlüssel', 'Hut', 'Würfel', 'Fahrrad', 'Bürste', 'Tasche', 'Kette', 'Trommel']","['flauschig', 'nass', 'kalt', 'nachhaltig', 'flach', 'kurz', 'sauber', 'krumm', 'klobig', 'hübsch', 'hohl', 'schwer', 'kaputt', 'niedlich', 'blass', 'hässlich', 'praktisch', 'dunkel', 'gut', 'breit', 'glänzend', 'dick', 'groß']",2,1.6617188998498023,None,,,,,,,,,,,,,,,,,,,,,,,,,,,,,,,,,,,,,,,,,,,,,,,,,,,,,,,,,,,,,,,,,2,2023-12-04_13h05.32.763,watkins1,2023.2.3,99.70189130356688,41,2023-12-04 13h05.38.816473 +0000,
,,,,,,,23,0,23,0,,,,,,,,,,,,,,,,,262.7435337000061,,,,,,,,,,,,262.7346494998783,263.22591869998723,,,3,1.192870399914682,,,,,,,,,,,,,,,,,,,,,263.2259300998412,269.22738659987226,Hut,neu,"['Hut', 'neu']",test_sub,2,"['Ring', 'Geige', 'Schere', 'Jacke', 'Löffel', 'Kamera', 'Tasse', 'Flasche', 'Socke', 'Buch', 'Hammer', 'Telefon', 'Stift', 'Eimer', 'Kerze', 'Lampe', 'Uhr', 'Rucksack', 'Blume', 'Vase', 'Kiste', 'Brille', 'Schlüssel', 'Hut', 'Würfel', 'Fahrrad', 'Bürste', 'Tasche', 'Kette', 'Trommel']","['flauschig', 'nass', 'kalt', 'nachhaltig', 'flach', 'kurz', 'sauber', 'krumm', 'klobig', 'hübsch', 'hohl', 'schwer', 'kaputt', 'niedlich', 'blass', 'hässlich', 'praktisch', 'dunkel', 'gut', 'breit', 'glänzend', 'dick', 'groß', 'neu']",3,1.192870399914682,None,,,,,,,,,,,,,,,,,,,,,,,,,,,,,,,,,,,,,,,,,,,,,,,,,,,,,,,,,,,,,,,,,2,2023-12-04_13h05.32.763,watkins1,2023.2.3,99.70189130356688,41,2023-12-04 13h05.38.816473 +0000,
,,,,,,,24,0,24,0,,,,,,,,,,,,,,,,,269.2369450000115,,,,,,,,,,,,269.22792609990574,269.7194602000527,,,1,1.3063431000337005,,,,,,,,,,,,,,,,,,,,,269.71947119990364,275.72250059992075,Würfel,kratzig,"['Würfel', 'kratzig']",restudy,2,"['Ring', 'Geige', 'Schere', 'Jacke', 'Löffel', 'Kamera', 'Tasse', 'Flasche', 'Socke', 'Buch', 'Hammer', 'Telefon', 'Stift', 'Eimer', 'Kerze', 'Lampe', 'Uhr', 'Rucksack', 'Blume', 'Vase', 'Kiste', 'Brille', 'Schlüssel', 'Hut', 'Würfel', 'Fahrrad', 'Bürste', 'Tasche', 'Kette', 'Trommel']","['flauschig', 'nass', 'kalt', 'nachhaltig', 'flach', 'kurz', 'sauber', 'krumm', 'klobig', 'hübsch', 'hohl', 'schwer', 'kaputt', 'niedlich', 'blass', 'hässlich', 'praktisch', 'dunkel', 'gut', 'breit', 'glänzend', 'dick', 'groß', 'neu', 'kratzig']",1,1.3063431000337005,None,,,,,,,,,,,,,,,,,,,,,,,,,,,,,,,,,,,,,,,,,,,,,,,,,,,,,,,,,,,,,,,,,2,2023-12-04_13h05.32.763,watkins1,2023.2.3,99.70189130356688,41,2023-12-04 13h05.38.816473 +0000,
,,,,,,,25,0,25,0,,,,,,,,,,,,,,,,,275.73207299993373,,,,,,,,,,,,275.72302479995415,276.21412709983997,,,2,1.6125357998535037,,,,,,,,,,,,,,,,,,,,,276.2141388999298,282.2237966998946,Fahrrad,robust,"['Fahrrad', 'robust']",restudy,2,"['Ring', 'Geige', 'Schere', 'Jacke', 'Löffel', 'Kamera', 'Tasse', 'Flasche', 'Socke', 'Buch', 'Hammer', 'Telefon', 'Stift', 'Eimer', 'Kerze', 'Lampe', 'Uhr', 'Rucksack', 'Blume', 'Vase', 'Kiste', 'Brille', 'Schlüssel', 'Hut', 'Würfel', 'Fahrrad', 'Bürste', 'Tasche', 'Kette', 'Trommel']","['flauschig', 'nass', 'kalt', 'nachhaltig', 'flach', 'kurz', 'sauber', 'krumm', 'klobig', 'hübsch', 'hohl', 'schwer', 'kaputt', 'niedlich', 'blass', 'hässlich', 'praktisch', 'dunkel', 'gut', 'breit', 'glänzend', 'dick', 'groß', 'neu', 'kratzig', 'robust']",2,1.6125357998535037,None,,,,,,,,,,,,,,,,,,,,,,,,,,,,,,,,,,,,,,,,,,,,,,,,,,,,,,,,,,,,,,,,,2,2023-12-04_13h05.32.763,watkins1,2023.2.3,99.70189130356688,41,2023-12-04 13h05.38.816473 +0000,
,,,,,,,26,0,26,0,,,,,,,,,,,,,,,,,282.2332152999006,,,,,,,,,,,,282.22433290001936,282.71527619985864,,,2,1.9195014999713749,,,,,,,,,,,,,,,,,,,,,282.7152873000596,288.723385799909,Bürste,lang,"['Bürste', 'lang']",test_sub,2,"['Ring', 'Geige', 'Schere', 'Jacke', 'Löffel', 'Kamera', 'Tasse', 'Flasche', 'Socke', 'Buch', 'Hammer', 'Telefon', 'Stift', 'Eimer', 'Kerze', 'Lampe', 'Uhr', 'Rucksack', 'Blume', 'Vase', 'Kiste', 'Brille', 'Schlüssel', 'Hut', 'Würfel', 'Fahrrad', 'Bürste', 'Tasche', 'Kette', 'Trommel']","['flauschig', 'nass', 'kalt', 'nachhaltig', 'flach', 'kurz', 'sauber', 'krumm', 'klobig', 'hübsch', 'hohl', 'schwer', 'kaputt', 'niedlich', 'blass', 'hässlich', 'praktisch', 'dunkel', 'gut', 'breit', 'glänzend', 'dick', 'groß', 'neu', 'kratzig', 'robust', 'lang']",2,1.9195014999713749,None,,,,,,,,,,,,,,,,,,,,,,,,,,,,,,,,,,,,,,,,,,,,,,,,,,,,,,,,,,,,,,,,,2,2023-12-04_13h05.32.763,watkins1,2023.2.3,99.70189130356688,41,2023-12-04 13h05.38.816473 +0000,
,,,,,,,27,0,27,0,,,,,,,,,,,,,,,,,288.7329076998867,,,,,,,,,,,,288.723916699877,289.2151188000571,,,1,1.0024183001369238,,,,,,,,,,,,,,,,,,,,,289.2151301999111,295.21776509983465,Tasche,verspielt,"['Tasche', 'verspielt']",test_sub,2,"['Ring', 'Geige', 'Schere', 'Jacke', 'Löffel', 'Kamera', 'Tasse', 'Flasche', 'Socke', 'Buch', 'Hammer', 'Telefon', 'Stift', 'Eimer', 'Kerze', 'Lampe', 'Uhr', 'Rucksack', 'Blume', 'Vase', 'Kiste', 'Brille', 'Schlüssel', 'Hut', 'Würfel', 'Fahrrad', 'Bürste', 'Tasche', 'Kette', 'Trommel']","['flauschig', 'nass', 'kalt', 'nachhaltig', 'flach', 'kurz', 'sauber', 'krumm', 'klobig', 'hübsch', 'hohl', 'schwer', 'kaputt', 'niedlich', 'blass', 'hässlich', 'praktisch', 'dunkel', 'gut', 'breit', 'glänzend', 'dick', 'groß', 'neu', 'kratzig', 'robust', 'lang', 'verspielt']",1,1.0024183001369238,None,,,,,,,,,,,,,,,,,,,,,,,,,,,,,,,,,,,,,,,,,,,,,,,,,,,,,,,,,,,,,,,,,2,2023-12-04_13h05.32.763,watkins1,2023.2.3,99.70189130356688,41,2023-12-04 13h05.38.816473 +0000,
,,,,,,,28,0,28,0,,,,,,,,,,,,,,,,,295.2272338999901,,,,,,,,,,,,295.2182964000385,295.7091975999065,,,1,2.9254779000766575,,,,,,,,,,,,,,,,,,,,,295.7092086998746,301.71806419990025,Kette,gestreift,"['Kette', 'gestreift']",restudy,2,"['Ring', 'Geige', 'Schere', 'Jacke', 'Löffel', 'Kamera', 'Tasse', 'Flasche', 'Socke', 'Buch', 'Hammer', 'Telefon', 'Stift', 'Eimer', 'Kerze', 'Lampe', 'Uhr', 'Rucksack', 'Blume', 'Vase', 'Kiste', 'Brille', 'Schlüssel', 'Hut', 'Würfel', 'Fahrrad', 'Bürste', 'Tasche', 'Kette', 'Trommel']","['flauschig', 'nass', 'kalt', 'nachhaltig', 'flach', 'kurz', 'sauber', 'krumm', 'klobig', 'hübsch', 'hohl', 'schwer', 'kaputt', 'niedlich', 'blass', 'hässlich', 'praktisch', 'dunkel', 'gut', 'breit', 'glänzend', 'dick', 'groß', 'neu', 'kratzig', 'robust', 'lang', 'verspielt', 'gestreift']",1,2.9254779000766575,None,,,,,,,,,,,,,,,,,,,,,,,,,,,,,,,,,,,,,,,,,,,,,,,,,,,,,,,,,,,,,,,,,2,2023-12-04_13h05.32.763,watkins1,2023.2.3,99.70189130356688,41,2023-12-04 13h05.38.816473 +0000,
,,,,,,,29,0,29,0,,,,,,,,,,,,,,,,,301.72764539998025,,,,,,,,,,,,301.7186110999901,302.2097098999657,,,1,1.8166579001117498,,,,,,,,,,,,,,,,,,,,,302.209721500054,308.21967769996263,Trommel,strahlend,"['Trommel', 'strahlend']",test_sub,2,"['Ring', 'Geige', 'Schere', 'Jacke', 'Löffel', 'Kamera', 'Tasse', 'Flasche', 'Socke', 'Buch', 'Hammer', 'Telefon', 'Stift', 'Eimer', 'Kerze', 'Lampe', 'Uhr', 'Rucksack', 'Blume', 'Vase', 'Kiste', 'Brille', 'Schlüssel', 'Hut', 'Würfel', 'Fahrrad', 'Bürste', 'Tasche', 'Kette', 'Trommel']","['flauschig', 'nass', 'kalt', 'nachhaltig', 'flach', 'kurz', 'sauber', 'krumm', 'klobig', 'hübsch', 'hohl', 'schwer', 'kaputt', 'niedlich', 'blass', 'hässlich', 'praktisch', 'dunkel', 'gut', 'breit', 'glänzend', 'dick', 'groß', 'neu', 'kratzig', 'robust', 'lang', 'verspielt', 'gestreift', 'strahlend']",1,1.8166579001117498,None,,,,,,,,,,,,,,,,,,,,,,,,,,,,,,,,,,,,,,,,,,,,,,,,,,,,,,,,,,,,,,,,,2,2023-12-04_13h05.32.763,watkins1,2023.2.3,99.70189130356688,41,2023-12-04 13h05.38.816473 +0000,
,,,,,,,,,,,0,0,0,0,,,,,,,,,,,,,308.2291401999537,,,,,,,,,,,,308.2205482998397,308.71119760000147,,,[],[],,,,,,,,,,,,None,None,,,,,,,,,,Eimer,niedlich,"['Eimer', 'niedlich']",restudy,2,,,,,,308.22047159983777,308.2205203999765,"['Eimer', 'Fahrrad', 'Tasse', 'Jacke', 'Kerze', 'Flasche', 'Geige', 'Rucksack', 'Kiste', 'Blume', 'Telefon', 'Hammer', 'Brille', 'Ring', 'Schere', 'Kamera', 'Socke', 'Buch', 'Tasche', 'Bürste', 'Würfel', 'Hut', 'Lampe', 'Uhr', 'Schlüssel', 'Löffel', 'Vase', 'Trommel', 'Stift', 'Kette']",308.7112093998585,308.71399650000967,None,308.7141837000381,314.7184278999921,1,3.3119069999083877,None,314.71884460002184,314.72155419993214,None,314.7217146998737,314.7229768000543,314.7229887000285,314.72420769999735,,,,,,,,,,,,,,,,,,,,,,,,,,,,,,,,,,,,,,,,,,,,,,,2,2023-12-04_13h05.32.763,watkins1,2023.2.3,99.70189130356688,41,2023-12-04 13h05.38.816473 +0000,
,,,,,,,,,,,1,0,1,0,,,,,,,,,,,,,314.72789429989643,,,,,,,,,,,,314.72449609986506,315.2199410998728,,,[],[],,,,,,,,,,,,None,None,,,,,,,,,,Fahrrad,robust,"['Fahrrad', 'robust']",restudy,2,,,,,,314.7244297999423,314.72446880000643,"['Eimer', 'Fahrrad', 'Tasse', 'Jacke', 'Kerze', 'Flasche', 'Geige', 'Rucksack', 'Kiste', 'Blume', 'Telefon', 'Hammer', 'Brille', 'Ring', 'Schere', 'Kamera', 'Socke', 'Buch', 'Tasche', 'Bürste', 'Würfel', 'Hut', 'Lampe', 'Uhr', 'Schlüssel', 'Löffel', 'Vase', 'Trommel', 'Stift', 'Kette']",315.219952999847,315.222764399834,None,315.2228911998682,321.2292334998492,2,1.7636315000709146,None,321.2295388998464,321.2323380999733,None,321.2324683999177,321.2336738000158,321.233685299987,321.2348672999069,,,,,,,,,,,,,,,,,,,,,,,,,,,,,,,,,,,,,,,,,,,,,,,2,2023-12-04_13h05.32.763,watkins1,2023.2.3,99.70189130356688,41,2023-12-04 13h05.38.816473 +0000,
,,,,,,,,,,,2,0,2,0,,,,,,,,,,,,,321.23869709996507,,,,,,,,,,,,321.2351541998796,321.7308223999571,,,[],[],,,,,,,,,,,,None,None,,,,,,,,,,Tasse,sauber,"['Tasse', 'sauber']",test_sub,2,,,,,,321.23508839984424,321.23512719990686,"['Eimer', 'Fahrrad', 'Tasse', 'Jacke', 'Kerze', 'Flasche', 'Geige', 'Rucksack', 'Kiste', 'Blume', 'Telefon', 'Hammer', 'Brille', 'Ring', 'Schere', 'Kamera', 'Socke', 'Buch', 'Tasche', 'Bürste', 'Würfel', 'Hut', 'Lampe', 'Uhr', 'Schlüssel', 'Löffel', 'Vase', 'Trommel', 'Stift', 'Kette']",321.7308340999298,321.7335780998692,None,321.7337062000297,321.73514620005153,None,,,321.73525939998217,321.73668579990044,None,321.73679500003345,321.73795780004,321.7379703000188,327.74245049990714,0,,,,,,,,,,,,,,,,,,,,,,,,,,,,,,,,,,,,,,,,,,,,,,2,2023-12-04_13h05.32.763,watkins1,2023.2.3,99.70189130356688,41,2023-12-04 13h05.38.816473 +0000,
,,,,,,,,,,,3,0,3,0,,,,,,,,,,,,,327.75226029986516,,,,,,,,,,,,327.742734399857,328.23430599994026,,,[],[],,,,,,,,,,,,2.059154500020668,None,,,,,jacke,,,,,Jacke,nachhaltig,"['Jacke', 'nachhaltig']",test_sub,2,,,,,,327.74266860005446,327.74270529998466,"['Eimer', 'Fahrrad', 'Tasse', 'Jacke', 'Kerze', 'Flasche', 'Geige', 'Rucksack', 'Kiste', 'Blume', 'Telefon', 'Hammer', 'Brille', 'Ring', 'Schere', 'Kamera', 'Socke', 'Buch', 'Tasche', 'Bürste', 'Würfel', 'Hut', 'Lampe', 'Uhr', 'Schlüssel', 'Löffel', 'Vase', 'Trommel', 'Stift', 'Kette']",328.2343172999099,328.237057399936,None,328.23718519997783,328.23984589986503,None,,,328.23995790001936,328.2424865998328,None,328.24259719997644,328.2437503999099,328.2437626000028,334.2498017998878,0,,,,,,,,,,,,,,,,,,,,,,,,,,,,,,,,,,,,,,,,,,,,,,2,2023-12-04_13h05.32.763,watkins1,2023.2.3,99.70189130356688,41,2023-12-04 13h05.38.816473 +0000,
,,,,,,,,,,,4,0,4,0,,,,,,,,,,,,,334.25960169988684,,,,,,,,,,,,334.25008110003546,334.7415434999857,,,[],[],,,,,,,,,,,,None,None,,,,,,,,,,Kerze,blass,"['Kerze', 'blass']",restudy,2,,,,,,334.250014499994,334.25005270005204,"['Eimer', 'Fahrrad', 'Tasse', 'Jacke', 'Kerze', 'Flasche', 'Geige', 'Rucksack', 'Kiste', 'Blume', 'Telefon', 'Hammer', 'Brille', 'Ring', 'Schere', 'Kamera', 'Socke', 'Buch', 'Tasche', 'Bürste', 'Würfel', 'Hut', 'Lampe', 'Uhr', 'Schlüssel', 'Löffel', 'Vase', 'Trommel', 'Stift', 'Kette']",334.7415543999523,334.7443521998357,None,334.7444764999673,340.7454466999043,2,3.442417799960822,None,340.7457475999836,340.7484285000246,None,340.7485412999522,340.7497088999953,340.74972069985233,340.75120060006157,,,,,,,,,,,,,,,,,,,,,,,,,,,,,,,,,,,,,,,,,,,,,,,2,2023-12-04_13h05.32.763,watkins1,2023.2.3,99.70189130356688,41,2023-12-04 13h05.38.816473 +0000,
,,,,,,,,,,,5,0,5,0,,,,,,,,,,,,,340.75485739996657,,,,,,,,,,,,340.7514891999308,341.24701209994964,,,[],[],,,,,,,,,,,,1.6051599001511931,None,,,,,flasche,,,,,Flasche,krumm,"['Flasche', 'krumm']",test_sub,2,,,,,,340.7514237998985,340.7514622998424,"['Eimer', 'Fahrrad', 'Tasse', 'Jacke', 'Kerze', 'Flasche', 'Geige', 'Rucksack', 'Kiste', 'Blume', 'Telefon', 'Hammer', 'Brille', 'Ring', 'Schere', 'Kamera', 'Socke', 'Buch', 'Tasche', 'Bürste', 'Würfel', 'Hut', 'Lampe', 'Uhr', 'Schlüssel', 'Löffel', 'Vase', 'Trommel', 'Stift', 'Kette']",341.2470239000395,341.24978279997595,None,341.249908400001,341.25138120003976,None,,,341.2514933999628,341.25294619984925,None,341.2530537999701,341.25423779990524,341.2542500998825,347.2576627000235,0,,,,,,,,,,,,,,,,,,,,,,,,,,,,,,,,,,,,,,,,,,,,,,2,2023-12-04_13h05.32.763,watkins1,2023.2.3,99.70189130356688,41,2023-12-04 13h05.38.816473 +0000,
,,,,,,,,,,,6,0,6,0,,,,,,,,,,,,,347.2674686999526,,,,,,,,,,,,347.25794709986076,347.7494566999376,,,[],[],,,,,,,,,,,,None,None,,,,,,,,,,Geige,nass,"['Geige', 'nass']",restudy,2,,,,,,347.2578801999334,347.25791809987277,"['Eimer', 'Fahrrad', 'Tasse', 'Jacke', 'Kerze', 'Flasche', 'Geige', 'Rucksack', 'Kiste', 'Blume', 'Telefon', 'Hammer', 'Brille', 'Ring', 'Schere', 'Kamera', 'Socke', 'Buch', 'Tasche', 'Bürste', 'Würfel', 'Hut', 'Lampe', 'Uhr', 'Schlüssel', 'Löffel', 'Vase', 'Trommel', 'Stift', 'Kette']",347.74946790002286,347.75226760003716,None,347.7523932000622,353.7567508998327,1,1.8423651000484824,None,353.75704619986936,353.75956239993684,None,353.7596734999679,353.760826200014,353.76083759986795,353.76217709993944,,,,,,,,,,,,,,,,,,,,,,,,,,,,,,,,,,,,,,,,,,,,,,,2,2023-12-04_13h05.32.763,watkins1,2023.2.3,99.70189130356688,41,2023-12-04 13h05.38.816473 +0000,
,,,,,,,,,,,7,0,7,0,,,,,,,,,,,,,353.76631879992783,,,,,,,,,,,,353.7624563998543,354.25841729994863,,,[],[],,,,,,,,,,,,2.9811694000381976,None,,,,,rucksack,,,,,Rucksack,dunkel,"['Rucksack', 'dunkel']",test_sub,2,,,,,,353.7623916999437,353.76242959988303,"['Eimer', 'Fahrrad', 'Tasse', 'Jacke', 'Kerze', 'Flasche', 'Geige', 'Rucksack', 'Kiste', 'Blume', 'Telefon', 'Hammer', 'Brille', 'Ring', 'Schere', 'Kamera', 'Socke', 'Buch', 'Tasche', 'Bürste', 'Würfel', 'Hut', 'Lampe', 'Uhr', 'Schlüssel', 'Löffel', 'Vase', 'Trommel', 'Stift', 'Kette']",354.2584285000339,354.2611781999003,None,354.2613021999132,354.2627866000403,None,,,354.2628933999222,354.26436609984376,None,354.26447379984893,354.2656902000308,354.26570239989087,360.2695758000482,0,,,,,,,,,,,,,,,,,,,,,,,,,,,,,,,,,,,,,,,,,,,,,,2,2023-12-04_13h05.32.763,watkins1,2023.2.3,99.70189130356688,41,2023-12-04 13h05.38.816473 +0000,
,,,,,,,,,,,8,0,8,0,,,,,,,,,,,,,360.2794763999991,,,,,,,,,,,,360.26985659985803,360.76150649995543,,,[],[],,,,,,,,,,,,None,None,,,,,,,,,,Kiste,glänzend,"['Kiste', 'glänzend']",restudy,2,,,,,,360.26979040005244,360.2698279998731,"['Eimer', 'Fahrrad', 'Tasse', 'Jacke', 'Kerze', 'Flasche', 'Geige', 'Rucksack', 'Kiste', 'Blume', 'Telefon', 'Hammer', 'Brille', 'Ring', 'Schere', 'Kamera', 'Socke', 'Buch', 'Tasche', 'Bürste', 'Würfel', 'Hut', 'Lampe', 'Uhr', 'Schlüssel', 'Löffel', 'Vase', 'Trommel', 'Stift', 'Kette']",360.7615183000453,360.7642405999359,None,360.7643656998407,366.7669824999757,1,2.9416967001743615,None,366.7672772000078,366.7700868998654,None,366.7701987999026,366.7713619999122,366.77137369988486,366.7729094000533,,,,,,,,,,,,,,,,,,,,,,,,,,,,,,,,,,,,,,,,,,,,,,,2,2023-12-04_13h05.32.763,watkins1,2023.2.3,99.70189130356688,41,2023-12-04 13h05.38.816473 +0000,
,,,,,,,,,,,9,0,9,0,,,,,,,,,,,,,366.7765393999871,,,,,,,,,,,,366.7731914999895,367.268537200056,,,[],[],,,,,,,,,,,,None,None,,,,,,,,,,Blume,gut,"['Blume', 'gut']",restudy,2,,,,,,366.7731256999541,366.7731643000152,"['Eimer', 'Fahrrad', 'Tasse', 'Jacke', 'Kerze', 'Flasche', 'Geige', 'Rucksack', 'Kiste', 'Blume', 'Telefon', 'Hammer', 'Brille', 'Ring', 'Schere', 'Kamera', 'Socke', 'Buch', 'Tasche', 'Bürste', 'Würfel', 'Hut', 'Lampe', 'Uhr', 'Schlüssel', 'Löffel', 'Vase', 'Trommel', 'Stift', 'Kette']",367.2685491000302,367.2712745000608,None,367.2714028998744,373.2780647999607,3,1.7875466998666525,None,373.27836039988324,373.2809484000318,None,373.28106099995784,373.2822126999963,373.28222419996746,373.2832512999885,,,,,,,,,,,,,,,,,,,,,,,,,,,,,,,,,,,,,,,,,,,,,,,2,2023-12-04_13h05.32.763,watkins1,2023.2.3,99.70189130356688,41,2023-12-04 13h05.38.816473 +0000,
,,,,,,,,,,,10,0,10,0,,,,,,,,,,,,,373.28755500004627,,,,,,,,,,,,373.28353179991245,373.7794559998438,,,[],[],,,,,,,,,,,,None,None,,,,,,,,,,Telefon,schwer,"['Telefon', 'schwer']",restudy,2,,,,,,373.2834663998801,373.2835041000508,"['Eimer', 'Fahrrad', 'Tasse', 'Jacke', 'Kerze', 'Flasche', 'Geige', 'Rucksack', 'Kiste', 'Blume', 'Telefon', 'Hammer', 'Brille', 'Ring', 'Schere', 'Kamera', 'Socke', 'Buch', 'Tasche', 'Bürste', 'Würfel', 'Hut', 'Lampe', 'Uhr', 'Schlüssel', 'Löffel', 'Vase', 'Trommel', 'Stift', 'Kette']",373.7794677000493,373.7820737999864,None,373.7822004999034,379.7894222000614,2,2.1723379001487046,None,379.7897109000478,379.79252979997545,None,379.79264179989696,379.7938620999921,379.7938736998476,379.7950577000156,,,,,,,,,,,,,,,,,,,,,,,,,,,,,,,,,,,,,,,,,,,,,,,2,2023-12-04_13h05.32.763,watkins1,2023.2.3,99.70189130356688,41,2023-12-04 13h05.38.816473 +0000,
,,,,,,,,,,,11,0,11,0,,,,,,,,,,,,,379.7989654999692,,,,,,,,,,,,379.79534109984525,380.2910571000539,,,[],[],,,,,,,,,,,,2.2272018999792635,None,,,,,hammer,,,,,Hammer,hohl,"['Hammer', 'hohl']",test_sub,2,,,,,,379.79527570004575,379.79531399998814,"['Eimer', 'Fahrrad', 'Tasse', 'Jacke', 'Kerze', 'Flasche', 'Geige', 'Rucksack', 'Kiste', 'Blume', 'Telefon', 'Hammer', 'Brille', 'Ring', 'Schere', 'Kamera', 'Socke', 'Buch', 'Tasche', 'Bürste', 'Würfel', 'Hut', 'Lampe', 'Uhr', 'Schlüssel', 'Löffel', 'Vase', 'Trommel', 'Stift', 'Kette']",380.29106880002655,380.2937670999672,None,380.2938931998797,380.2953279998619,None,,,380.2954376998823,380.2968875998631,None,380.29699619999155,380.2981630999129,380.29817539989017,386.30119609995745,0,,,,,,,,,,,,,,,,,,,,,,,,,,,,,,,,,,,,,,,,,,,,,,2,2023-12-04_13h05.32.763,watkins1,2023.2.3,99.70189130356688,41,2023-12-04 13h05.38.816473 +0000,
,,,,,,,,,,,12,0,12,0,,,,,,,,,,,,,386.3110392000526,,,,,,,,,,,,386.30148039991036,386.79341749986634,,,[],[],,,,,,,,,,,,None,None,,,,,,,,,,Brille,dick,"['Brille', 'dick']",restudy,2,,,,,,386.30141109996475,386.3014509999193,"['Eimer', 'Fahrrad', 'Tasse', 'Jacke', 'Kerze', 'Flasche', 'Geige', 'Rucksack', 'Kiste', 'Blume', 'Telefon', 'Hammer', 'Brille', 'Ring', 'Schere', 'Kamera', 'Socke', 'Buch', 'Tasche', 'Bürste', 'Würfel', 'Hut', 'Lampe', 'Uhr', 'Schlüssel', 'Löffel', 'Vase', 'Trommel', 'Stift', 'Kette']",386.79342909995466,386.7960117000621,None,386.79613609984517,392.80399809987284,1,2.118911699857563,None,392.80429590004496,392.80695810006,None,392.8070692999754,392.8083261998836,392.80833849986084,392.80970169999637,,,,,,,,,,,,,,,,,,,,,,,,,,,,,,,,,,,,,,,,,,,,,,,2,2023-12-04_13h05.32.763,watkins1,2023.2.3,99.70189130356688,41,2023-12-04 13h05.38.816473 +0000,
,,,,,,,,,,,13,0,13,0,,,,,,,,,,,,,392.81345609994605,,,,,,,,,,,,392.80998989986256,393.3056472998578,,,[],[],,,,,,,,,,,,None,None,,,,,,,,,,Ring,flauschig,"['Ring', 'flauschig']",test_sub,2,,,,,,392.8099243999459,392.809963000007,"['Eimer', 'Fahrrad', 'Tasse', 'Jacke', 'Kerze', 'Flasche', 'Geige', 'Rucksack', 'Kiste', 'Blume', 'Telefon', 'Hammer', 'Brille', 'Ring', 'Schere', 'Kamera', 'Socke', 'Buch', 'Tasche', 'Bürste', 'Würfel', 'Hut', 'Lampe', 'Uhr', 'Schlüssel', 'Löffel', 'Vase', 'Trommel', 'Stift', 'Kette']",393.3056590000633,393.3081077998504,None,393.3082327998709,393.3095509998966,None,,,393.30965960002504,393.3109730000142,None,393.31108199991286,393.3121305999812,393.31214329996146,399.3151748999953,0,,,,,,,,,,,,,,,,,,,,,,,,,,,,,,,,,,,,,,,,,,,,,,2,2023-12-04_13h05.32.763,watkins1,2023.2.3,99.70189130356688,41,2023-12-04 13h05.38.816473 +0000,
,,,,,,,,,,,14,0,14,0,,,,,,,,,,,,,399.3249301998876,,,,,,,,,,,,399.3154636998661,399.80706599983387,,,[],[],,,,,,,,,,,,1.7781072999350727,None,,,,,schere,,,,,Schere,kalt,"['Schere', 'kalt']",test_sub,2,,,,,,399.3153937999159,399.3154305999633,"['Eimer', 'Fahrrad', 'Tasse', 'Jacke', 'Kerze', 'Flasche', 'Geige', 'Rucksack', 'Kiste', 'Blume', 'Telefon', 'Hammer', 'Brille', 'Ring', 'Schere', 'Kamera', 'Socke', 'Buch', 'Tasche', 'Bürste', 'Würfel', 'Hut', 'Lampe', 'Uhr', 'Schlüssel', 'Löffel', 'Vase', 'Trommel', 'Stift', 'Kette']",399.8070773000363,399.8099968000315,None,399.8101245998405,399.8127508999314,None,,,399.81286149984226,399.81549349986017,None,399.8156002999749,399.8167766998522,399.8167892000638,405.8232066000346,0,,,,,,,,,,,,,,,,,,,,,,,,,,,,,,,,,,,,,,,,,,,,,,2,2023-12-04_13h05.32.763,watkins1,2023.2.3,99.70189130356688,41,2023-12-04 13h05.38.816473 +0000,
,,,,,,,,,,,15,0,15,0,,,,,,,,,,,,,405.8329841999803,,,,,,,,,,,,405.82348579983227,406.3150336998515,,,[],[],,,,,,,,,,,,None,None,,,,,,,,,,Kamera,kurz,"['Kamera', 'kurz']",restudy,2,,,,,,405.82341840001754,405.82345669995993,"['Eimer', 'Fahrrad', 'Tasse', 'Jacke', 'Kerze', 'Flasche', 'Geige', 'Rucksack', 'Kiste', 'Blume', 'Telefon', 'Hammer', 'Brille', 'Ring', 'Schere', 'Kamera', 'Socke', 'Buch', 'Tasche', 'Bürste', 'Würfel', 'Hut', 'Lampe', 'Uhr', 'Schlüssel', 'Löffel', 'Vase', 'Trommel', 'Stift', 'Kette']",406.3150446000509,406.3176335999742,None,406.3177628000267,412.3224450999405,1,1.7250586999580264,None,412.3227472999133,412.32531460002065,None,412.32542789983563,412.32661109999754,412.32662289985456,412.3280006998684,,,,,,,,,,,,,,,,,,,,,,,,,,,,,,,,,,,,,,,,,,,,,,,2,2023-12-04_13h05.32.763,watkins1,2023.2.3,99.70189130356688,41,2023-12-04 13h05.38.816473 +0000,
,,,,,,,,,,,16,0,16,0,,,,,,,,,,,,,412.3318539999891,,,,,,,,,,,,412.32828549994156,412.82399949990213,,,[],[],,,,,,,,,,,,2.036531399935484,None,,,,,socke,,,,,Socke,klobig,"['Socke', 'klobig']",test_sub,2,,,,,,412.3282200000249,412.3282581998501,"['Eimer', 'Fahrrad', 'Tasse', 'Jacke', 'Kerze', 'Flasche', 'Geige', 'Rucksack', 'Kiste', 'Blume', 'Telefon', 'Hammer', 'Brille', 'Ring', 'Schere', 'Kamera', 'Socke', 'Buch', 'Tasche', 'Bürste', 'Würfel', 'Hut', 'Lampe', 'Uhr', 'Schlüssel', 'Löffel', 'Vase', 'Trommel', 'Stift', 'Kette']",412.82401189999655,412.82659829990007,None,412.82672440004535,412.8281604000367,None,,,412.82827539998107,412.8297202999238,None,412.8298289999366,412.8309871999081,412.83099960000254,418.8340737998951,0,,,,,,,,,,,,,,,,,,,,,,,,,,,,,,,,,,,,,,,,,,,,,,2,2023-12-04_13h05.32.763,watkins1,2023.2.3,99.70189130356688,41,2023-12-04 13h05.38.816473 +0000,
,,,,,,,,,,,17,0,17,0,,,,,,,,,,,,,418.8439350000117,,,,,,,,,,,,418.8343543000519,419.32604549988173,,,[],[],,,,,,,,,,,,2.4407375999726355,None,,,,,buch,,,,,Buch,hübsch,"['Buch', 'hübsch']",test_sub,2,,,,,,418.83428819989786,418.8343258998357,"['Eimer', 'Fahrrad', 'Tasse', 'Jacke', 'Kerze', 'Flasche', 'Geige', 'Rucksack', 'Kiste', 'Blume', 'Telefon', 'Hammer', 'Brille', 'Ring', 'Schere', 'Kamera', 'Socke', 'Buch', 'Tasche', 'Bürste', 'Würfel', 'Hut', 'Lampe', 'Uhr', 'Schlüssel', 'Löffel', 'Vase', 'Trommel', 'Stift', 'Kette']",419.3260563998483,419.3287517998833,None,419.32887670001946,419.3313100999221,None,,,419.3314244998619,419.33383849984966,None,419.3339483998716,419.3349830999505,419.3349953000434,425.34054809994996,0,,,,,,,,,,,,,,,,,,,,,,,,,,,,,,,,,,,,,,,,,,,,,,2,2023-12-04_13h05.32.763,watkins1,2023.2.3,99.70189130356688,41,2023-12-04 13h05.38.816473 +0000,
,,,,,,,,,,,18,0,18,0,,,,,,,,,,,,,425.35043479991145,,,,,,,,,,,,425.340832100017,425.8325115998741,,,[],[],,,,,,,,,,,,3.0955855001229793,None,,,,,tasche,,,,,Tasche,verspielt,"['Tasche', 'verspielt']",test_sub,2,,,,,,425.3407640999649,425.340803100029,"['Eimer', 'Fahrrad', 'Tasse', 'Jacke', 'Kerze', 'Flasche', 'Geige', 'Rucksack', 'Kiste', 'Blume', 'Telefon', 'Hammer', 'Brille', 'Ring', 'Schere', 'Kamera', 'Socke', 'Buch', 'Tasche', 'Bürste', 'Würfel', 'Hut', 'Lampe', 'Uhr', 'Schlüssel', 'Löffel', 'Vase', 'Trommel', 'Stift', 'Kette']",425.83252289984375,425.83538970001973,None,425.83552319998853,425.83821359998547,None,,,425.83833209984004,425.8410044000484,None,425.84112100000493,425.84235789999366,425.8423711999785,431.85050619998947,0,,,,,,,,,,,,,,,,,,,,,,,,,,,,,,,,,,,,,,,,,,,,,,2,2023-12-04_13h05.32.763,watkins1,2023.2.3,99.70189130356688,41,2023-12-04 13h05.38.816473 +0000,
,,,,,,,,,,,19,0,19,0,,,,,,,,,,,,,431.86028139991686,,,,,,,,,,,,431.85078849992715,432.3423341999296,,,[],[],,,,,,,,,,,,None,None,,,,,,,,,,Bürste,lang,"['Bürste', 'lang']",test_sub,2,,,,,,431.85072089987807,431.85075980005786,"['Eimer', 'Fahrrad', 'Tasse', 'Jacke', 'Kerze', 'Flasche', 'Geige', 'Rucksack', 'Kiste', 'Blume', 'Telefon', 'Hammer', 'Brille', 'Ring', 'Schere', 'Kamera', 'Socke', 'Buch', 'Tasche', 'Bürste', 'Würfel', 'Hut', 'Lampe', 'Uhr', 'Schlüssel', 'Löffel', 'Vase', 'Trommel', 'Stift', 'Kette']",432.34234649990685,432.34520619991235,None,432.34533819998614,432.34801369998604,None,,,432.3481264000293,432.35078620002605,None,432.35089639993384,432.35211189999245,432.35213500005193,438.3594357999973,0,,,,,,,,,,,,,,,,,,,,,,,,,,,,,,,,,,,,,,,,,,,,,,2,2023-12-04_13h05.32.763,watkins1,2023.2.3,99.70189130356688,41,2023-12-04 13h05.38.816473 +0000,
,,,,,,,,,,,20,0,20,0,,,,,,,,,,,,,438.36931169987656,,,,,,,,,,,,438.35972269997,438.8512798000593,,,[],[],,,,,,,,,,,,None,None,,,,,,,,,,Würfel,kratzig,"['Würfel', 'kratzig']",restudy,2,,,,,,438.35965349990875,438.35969329997897,"['Eimer', 'Fahrrad', 'Tasse', 'Jacke', 'Kerze', 'Flasche', 'Geige', 'Rucksack', 'Kiste', 'Blume', 'Telefon', 'Hammer', 'Brille', 'Ring', 'Schere', 'Kamera', 'Socke', 'Buch', 'Tasche', 'Bürste', 'Würfel', 'Hut', 'Lampe', 'Uhr', 'Schlüssel', 'Löffel', 'Vase', 'Trommel', 'Stift', 'Kette']",438.8512923999224,438.85394649999216,None,438.8540761000477,444.85577420005575,1,2.0122615001164377,None,444.85607039998285,444.8587751998566,None,444.85888769989833,444.8600645000115,444.86007599998266,444.8612617000472,,,,,,,,,,,,,,,,,,,,,,,,,,,,,,,,,,,,,,,,,,,,,,,2,2023-12-04_13h05.32.763,watkins1,2023.2.3,99.70189130356688,41,2023-12-04 13h05.38.816473 +0000,
,,,,,,,,,,,21,0,21,0,,,,,,,,,,,,,444.8652798999101,,,,,,,,,,,,444.8615484999027,445.3575077999849,,,[],[],,,,,,,,,,,,None,None,,,,,,,,,,Hut,neu,"['Hut', 'neu']",test_sub,2,,,,,,444.8614789999556,444.86152000003494,"['Eimer', 'Fahrrad', 'Tasse', 'Jacke', 'Kerze', 'Flasche', 'Geige', 'Rucksack', 'Kiste', 'Blume', 'Telefon', 'Hammer', 'Brille', 'Ring', 'Schere', 'Kamera', 'Socke', 'Buch', 'Tasche', 'Bürste', 'Würfel', 'Hut', 'Lampe', 'Uhr', 'Schlüssel', 'Löffel', 'Vase', 'Trommel', 'Stift', 'Kette']",445.35751929995604,445.3600661000237,None,445.3601940998342,445.3614954999648,None,,,445.3616061999928,445.3628858998418,None,445.3629952999763,445.3640029998496,445.3640155000612,451.3668533999007,0,,,,,,,,,,,,,,,,,,,,,,,,,,,,,,,,,,,,,,,,,,,,,,2,2023-12-04_13h05.32.763,watkins1,2023.2.3,99.70189130356688,41,2023-12-04 13h05.38.816473 +0000,
,,,,,,,,,,,22,0,22,0,,,,,,,,,,,,,451.3766524998937,,,,,,,,,,,,451.36713689984754,451.85845609987155,,,[],[],,,,,,,,,,,,None,None,,,,,,,,,,Lampe,hässlich,"['Lampe', 'hässlich']",restudy,2,,,,,,451.36706879991107,451.3671054998413,"['Eimer', 'Fahrrad', 'Tasse', 'Jacke', 'Kerze', 'Flasche', 'Geige', 'Rucksack', 'Kiste', 'Blume', 'Telefon', 'Hammer', 'Brille', 'Ring', 'Schere', 'Kamera', 'Socke', 'Buch', 'Tasche', 'Bürste', 'Würfel', 'Hut', 'Lampe', 'Uhr', 'Schlüssel', 'Löffel', 'Vase', 'Trommel', 'Stift', 'Kette']",451.8584675998427,451.86102889990434,None,451.86115489993244,457.86330570001155,2,3.5173184000886977,None,457.86360369995236,457.86659180000424,None,457.8667074998375,457.8678796000313,457.867891300004,457.86911219987087,,,,,,,,,,,,,,,,,,,,,,,,,,,,,,,,,,,,,,,,,,,,,,,2,2023-12-04_13h05.32.763,watkins1,2023.2.3,99.70189130356688,41,2023-12-04 13h05.38.816473 +0000,
,,,,,,,,,,,23,0,23,0,,,,,,,,,,,,,457.87270319997333,,,,,,,,,,,,457.8693959999364,458.36482959985733,,,[],[],,,,,,,,,,,,None,None,,,,,,,,,,Uhr,praktisch,"['Uhr', 'praktisch']",test_sub,2,,,,,,457.8693291998934,457.86936839995906,"['Eimer', 'Fahrrad', 'Tasse', 'Jacke', 'Kerze', 'Flasche', 'Geige', 'Rucksack', 'Kiste', 'Blume', 'Telefon', 'Hammer', 'Brille', 'Ring', 'Schere', 'Kamera', 'Socke', 'Buch', 'Tasche', 'Bürste', 'Würfel', 'Hut', 'Lampe', 'Uhr', 'Schlüssel', 'Löffel', 'Vase', 'Trommel', 'Stift', 'Kette']",458.3648415999487,458.36745440005325,None,458.3675827998668,458.36886930000037,None,,,458.36898160004057,458.370285899844,None,458.37039579986595,458.37141159991734,458.3714242000133,464.37492579990067,0,,,,,,,,,,,,,,,,,,,,,,,,,,,,,,,,,,,,,,,,,,,,,,2,2023-12-04_13h05.32.763,watkins1,2023.2.3,99.70189130356688,41,2023-12-04 13h05.38.816473 +0000,
,,,,,,,,,,,24,0,24,0,,,,,,,,,,,,,464.3847229999956,,,,,,,,,,,,464.3752055000514,464.86661629984155,,,[],[],,,,,,,,,,,,None,None,,,,,,,,,,Schlüssel,groß,"['Schlüssel', 'groß']",restudy,2,,,,,,464.37514010001905,464.37517659994774,"['Eimer', 'Fahrrad', 'Tasse', 'Jacke', 'Kerze', 'Flasche', 'Geige', 'Rucksack', 'Kiste', 'Blume', 'Telefon', 'Hammer', 'Brille', 'Ring', 'Schere', 'Kamera', 'Socke', 'Buch', 'Tasche', 'Bürste', 'Würfel', 'Hut', 'Lampe', 'Uhr', 'Schlüssel', 'Löffel', 'Vase', 'Trommel', 'Stift', 'Kette']",464.86662769992836,464.8699654999655,None,464.8701211998705,470.87752939993516,2,3.140576699981466,None,470.8778295998927,470.88045069994405,None,470.8805631999858,470.88193829986267,470.88195019983687,470.88296990003437,,,,,,,,,,,,,,,,,,,,,,,,,,,,,,,,,,,,,,,,,,,,,,,2,2023-12-04_13h05.32.763,watkins1,2023.2.3,99.70189130356688,41,2023-12-04 13h05.38.816473 +0000,
,,,,,,,,,,,25,0,25,0,,,,,,,,,,,,,470.88698720000684,,,,,,,,,,,,470.8832530998625,471.3789887998719,,,[],[],,,,,,,,,,,,None,None,,,,,,,,,,Löffel,flach,"['Löffel', 'flach']",restudy,2,,,,,,470.8831867000554,470.88322560000233,"['Eimer', 'Fahrrad', 'Tasse', 'Jacke', 'Kerze', 'Flasche', 'Geige', 'Rucksack', 'Kiste', 'Blume', 'Telefon', 'Hammer', 'Brille', 'Ring', 'Schere', 'Kamera', 'Socke', 'Buch', 'Tasche', 'Bürste', 'Würfel', 'Hut', 'Lampe', 'Uhr', 'Schlüssel', 'Löffel', 'Vase', 'Trommel', 'Stift', 'Kette']",471.37899999995716,471.38153989985585,None,471.3816680999007,477.3857720999513,1,2.172919200034812,None,477.3860661999788,477.3888246000279,None,477.3889380998444,477.3901175998617,477.39012919995,477.3912789998576,,,,,,,,,,,,,,,,,,,,,,,,,,,,,,,,,,,,,,,,,,,,,,,2,2023-12-04_13h05.32.763,watkins1,2023.2.3,99.70189130356688,41,2023-12-04 13h05.38.816473 +0000,
,,,,,,,,,,,26,0,26,0,,,,,,,,,,,,,477.3952339999378,,,,,,,,,,,,477.3915565998759,477.8873123000376,,,[],[],,,,,,,,,,,,None,None,,,,,,,,,,Vase,breit,"['Vase', 'breit']",restudy,2,,,,,,477.39149279985577,477.3915295000188,"['Eimer', 'Fahrrad', 'Tasse', 'Jacke', 'Kerze', 'Flasche', 'Geige', 'Rucksack', 'Kiste', 'Blume', 'Telefon', 'Hammer', 'Brille', 'Ring', 'Schere', 'Kamera', 'Socke', 'Buch', 'Tasche', 'Bürste', 'Würfel', 'Hut', 'Lampe', 'Uhr', 'Schlüssel', 'Löffel', 'Vase', 'Trommel', 'Stift', 'Kette']",477.8873240998946,477.8899670999963,None,477.890098300064,483.8930241998751,3,2.304968000156805,None,483.89332029991783,483.89581199991517,None,483.89592719986103,483.8970873998478,483.8970993999392,483.8982420999091,,,,,,,,,,,,,,,,,,,,,,,,,,,,,,,,,,,,,,,,,,,,,,,2,2023-12-04_13h05.32.763,watkins1,2023.2.3,99.70189130356688,41,2023-12-04 13h05.38.816473 +0000,
,,,,,,,,,,,27,0,27,0,,,,,,,,,,,,,483.90249879984185,,,,,,,,,,,,483.8985245998483,484.39449279988185,,,[],[],,,,,,,,,,,,1.7252640000078827,None,,,,,trommel,,,,,Trommel,strahlend,"['Trommel', 'strahlend']",test_sub,2,,,,,,483.8984594999347,483.89849739987403,"['Eimer', 'Fahrrad', 'Tasse', 'Jacke', 'Kerze', 'Flasche', 'Geige', 'Rucksack', 'Kiste', 'Blume', 'Telefon', 'Hammer', 'Brille', 'Ring', 'Schere', 'Kamera', 'Socke', 'Buch', 'Tasche', 'Bürste', 'Würfel', 'Hut', 'Lampe', 'Uhr', 'Schlüssel', 'Löffel', 'Vase', 'Trommel', 'Stift', 'Kette']",484.3945043999702,484.3971655999776,None,484.3972886998672,484.39874599990435,None,,,484.3988568999339,484.40030690003186,None,484.400414200034,484.40160129987635,484.40161399985664,490.4050183999352,0,,,,,,,,,,,,,,,,,,,,,,,,,,,,,,,,,,,,,,,,,,,,,,2,2023-12-04_13h05.32.763,watkins1,2023.2.3,99.70189130356688,41,2023-12-04 13h05.38.816473 +0000,
,,,,,,,,,,,28,0,28,0,,,,,,,,,,,,,490.41490009985864,,,,,,,,,,,,490.4053026998881,490.896939399885,,,[],[],,,,,,,,,,,,1.608403499936685,None,,,,,stift,,,,,Stift,kaputt,"['Stift', 'kaputt']",test_sub,2,,,,,,490.40523539995775,490.4052736000158,"['Eimer', 'Fahrrad', 'Tasse', 'Jacke', 'Kerze', 'Flasche', 'Geige', 'Rucksack', 'Kiste', 'Blume', 'Telefon', 'Hammer', 'Brille', 'Ring', 'Schere', 'Kamera', 'Socke', 'Buch', 'Tasche', 'Bürste', 'Würfel', 'Hut', 'Lampe', 'Uhr', 'Schlüssel', 'Löffel', 'Vase', 'Trommel', 'Stift', 'Kette']",490.8969507999718,490.89975270000286,None,490.8998785999138,490.90247219987214,None,,,490.90258420002647,490.9051927998662,None,490.9053030000068,490.90646179998294,490.9064740999602,496.91363779990934,0,,,,,,,,,,,,,,,,,,,,,,,,,,,,,,,,,,,,,,,,,,,,,,2,2023-12-04_13h05.32.763,watkins1,2023.2.3,99.70189130356688,41,2023-12-04 13h05.38.816473 +0000,
,,,,,,,,,,,29,0,29,0,,,,,,,,,,,,,496.9234271000605,,,,,,,,,,,,496.91392500000075,497.4055534999352,,,[],[],,,,,,,,,,,,None,None,,,,,,,,,,Kette,gestreift,"['Kette', 'gestreift']",restudy,2,,,,,,496.913855999941,496.9138944998849,"['Eimer', 'Fahrrad', 'Tasse', 'Jacke', 'Kerze', 'Flasche', 'Geige', 'Rucksack', 'Kiste', 'Blume', 'Telefon', 'Hammer', 'Brille', 'Ring', 'Schere', 'Kamera', 'Socke', 'Buch', 'Tasche', 'Bürste', 'Würfel', 'Hut', 'Lampe', 'Uhr', 'Schlüssel', 'Löffel', 'Vase', 'Trommel', 'Stift', 'Kette']",497.4055645999033,497.40826349984854,None,497.4083866998553,503.41462719999254,2,3.5861100999172777,None,503.4149273999501,503.4176610999275,None,503.41777459997684,503.41893339995295,503.4189448999241,503.42049030005,,,,,,,,,,,,,,,,,,,,,,,,,,,,,,,,,,,,,,,,,,,,,,,2,2023-12-04_13h05.32.763,watkins1,2023.2.3,99.70189130356688,41,2023-12-04 13h05.38.816473 +0000,
,,,,,,,,,,,,,,,,,,,,,,,,,,,,,,,,,,,,,,,,,,,,,,,,,,,,,,,,,,,,,,,,,,,,,,,2,,,,,,,,,,,,,,,,,,,,,,,,,,,,,,,,,,,,,,,,,,,,,,,,,,,,,,,,,,,,,,,,,,,,,,2,2023-12-04_13h05.32.763,watkins1,2023.2.3,99.70189130356688,41,2023-12-04 13h05.38.816473 +0000,
(6 x 3) + 10 = 27 ,Incorrect,button_incorrect,,,,,,,,,,,,,0,0,0,8,,,,,,,,,528.0661627999507,,,,,,,,,,527.0268606999889,528.0305707999505,,,,,['button_incorrect'],[4.3182224000338465],,,,,,,,,,,,,,,,,,,,,,,,,,distractorTask,2,,,,,,,,,,,,,,,,,,,,,,,,,528.054794699885,528.0661627999507,532.378317499999,[-0.37222222222222223],[-0.3768518518518518],[1],[0],[0],[4.3182224000338465],['button_incorrect'],532.3789909000043,533.3823203998618,,,,,,,,,,,,,,,,,,,,,,,,,,,,,,,,,,2,2023-12-04_13h05.32.763,watkins1,2023.2.3,99.70189130356688,41,2023-12-04 13h05.38.816473 +0000,
(25 : 5) + 5 = 9 ,Incorrect,button_incorrect,,,,,,,,,,,,,0,1,1,6,,,,,,,,,533.3922991000582,,,,,,,,,,,,,,,,['button_incorrect'],[2.5579386001918465],,,,,,,,,,,,,,,,,,,,,,,,,,distractorTask,2,,,,,,,,,,,,,,,,,,,,,,,,,533.3825131999329,533.3922991000582,535.9436761999968,[-0.2861111111111111],[-0.3962962962962963],[1],[0],[0],[2.5579386001918465],['button_incorrect'],535.9440659000538,536.9473379000556,,,,,,,,,,,,,,,,,,,,,,,,,,,,,,,,,,2,2023-12-04_13h05.32.763,watkins1,2023.2.3,99.70189130356688,41,2023-12-04 13h05.38.816473 +0000,
(80 : 10) + 9 = 17 ,Correct,button_correct,,,,,,,,,,,,,0,2,2,3,,,,,,,,,536.957374199992,,,,,,,,,,,,,,,,['button_correct'],[4.275571099948138],,,,,,,,,,,,,,,,,,,,,,,,,,distractorTask,2,,,,,,,,,,,,,,,,,,,,,,,,,536.9475284998771,536.957374199992,541.2259722000454,[0.41574074074074074],[-0.38425925925925924],[1],[0],[0],[4.275571099948138],['button_correct'],541.2263668999076,542.2293546998408,,,,,,,,,,,,,,,,,,,,,,,,,,,,,,,,,,2,2023-12-04_13h05.32.763,watkins1,2023.2.3,99.70189130356688,41,2023-12-04 13h05.38.816473 +0000,
(54 : 6) - 10 = 0 ,Incorrect,button_incorrect,,,,,,,,,,,,,0,3,3,5,,,,,,,,,542.2392746999394,,,,,,,,,,,,,,,,['button_incorrect'],[3.733748700004071],,,,,,,,,,,,,,,,,,,,,,,,,,distractorTask,2,,,,,,,,,,,,,,,,,,,,,,,,,542.2295496999286,542.2392746999394,545.9662762999069,[-0.31296296296296294],[-0.4],[1],[0],[0],[3.733748700004071],['button_incorrect'],545.9666593000293,546.9697664999403,,,,,,,,,,,,,,,,,,,,,,,,,,,,,,,,,,2,2023-12-04_13h05.32.763,watkins1,2023.2.3,99.70189130356688,41,2023-12-04 13h05.38.816473 +0000,
(40 : 5) + 8 = 15 ,Incorrect,button_incorrect,,,,,,,,,,,,,0,4,4,7,,,,,,,,,546.9798594999593,,,,,,,,,,,,,,,,['button_incorrect'],[6.576131799956784],,,,,,,,,,,,,,,,,,,,,,,,,,distractorTask,2,,,,,,,,,,,,,,,,,,,,,,,,,546.9699591000099,546.9798594999593,553.5478383000009,[-0.3435185185185185],[-0.38981481481481484],[1],[0],[0],[6.576131799956784],['button_incorrect'],553.5482244999148,554.551275299862,,,,,,,,,,,,,,,,,,,,,,,,,,,,,,,,,,2,2023-12-04_13h05.32.763,watkins1,2023.2.3,99.70189130356688,41,2023-12-04 13h05.38.816473 +0000,
(2 x 5) + 3 = 13 ,Correct,button_correct,,,,,,,,,,,,,0,5,5,2,,,,,,,,,554.5613122999202,,,,,,,,,,,,,,,,['button_correct'],[2.03716959990561],,,,,,,,,,,,,,,,,,,,,,,,,,distractorTask,2,,,,,,,,,,,,,,,,,,,,,,,,,554.5514690000564,554.5613122999202,556.5903892000206,[0.3814814814814815],[-0.3972222222222222],[1],[0],[0],[2.03716959990561],['button_correct'],556.5907759000547,557.59412480006,,,,,,,,,,,,,,,,,,,,,,,,,,,,,,,,,,2,2023-12-04_13h05.32.763,watkins1,2023.2.3,99.70189130356688,41,2023-12-04 13h05.38.816473 +0000,
(7 x 6) + 9 = 48 ,Incorrect,button_incorrect,,,,,,,,,,,,,0,6,6,9,,,,,,,,,557.604075799929,,,,,,,,,,,,,,,,['button_incorrect'],[3.5134407998993993],,,,,,,,,,,,,,,,,,,,,,,,,,distractorTask,2,,,,,,,,,,,,,,,,,,,,,,,,,557.5943173998967,557.604075799929,561.109482599888,[-0.4083333333333333],[-0.3925925925925926],[1],[0],[0],[3.5134407998993993],['button_incorrect'],561.1098702999298,562.113294800045,,,,,,,,,,,,,,,,,,,,,,,,,,,,,,,,,,2,2023-12-04_13h05.32.763,watkins1,2023.2.3,99.70189130356688,41,2023-12-04 13h05.38.816473 +0000,
(28 : 7) - 3 = 1 ,Correct,button_correct,,,,,,,,,,,,,0,7,7,0,,,,,,,,,562.1232334999368,,,,,,,,,,,,,,,,['button_correct'],[8.494631899986416],,,,,,,,,,,,,,,,,,,,,,,,,,distractorTask,2,,,,,,,,,,,,,,,,,,,,,,,,,562.1134864999913,562.1232334999368,570.6098315999843,[0.3611111111111111],[-0.3888888888888889],[1],[0],[0],[8.494631899986416],['button_correct'],570.6102207999211,571.6135751998518,,,,,,,,,,,,,,,,,,,,,,,,,,,,,,,,,,2,2023-12-04_13h05.32.763,watkins1,2023.2.3,99.70189130356688,41,2023-12-04 13h05.38.816473 +0000,
(4 : 2) + 4 = 6 ,Correct,button_correct,,,,,,,,,,,,,0,8,8,1,,,,,,,,,571.6235213999171,,,,,,,,,,,,,,,,['button_correct'],[3.9454246000386775],,,,,,,,,,,,,,,,,,,,,,,,,,distractorTask,2,,,,,,,,,,,,,,,,,,,,,,,,,571.6137657000218,571.6235213999171,575.5608903998509,[0.32685185185185184],[-0.38055555555555554],[1],[0],[0],[3.9454246000386775],['button_correct'],575.5612828999292,576.56449540006,,,,,,,,,,,,,,,,,,,,,,,,,,,,,,,,,,2,2023-12-04_13h05.32.763,watkins1,2023.2.3,99.70189130356688,41,2023-12-04 13h05.38.816473 +0000,
(9 x 5) - 9 = 36 ,Correct,button_correct,,,,,,,,,,,,,0,9,9,4,,,,,,,,,576.5744761000387,,,,,,,,,,,,,,,,['button_correct'],[7.449423300102353],,,,,,,,,,,,,,,,,,,,,,,,,,distractorTask,2,,,,,,,,,,,,,,,,,,,,,,,,,576.5646832999773,576.5744761000387,584.0158047999721,[0.32685185185185184],[-0.3814814814814815],[1],[0],[0],[7.449423300102353],['button_correct'],584.0161937999073,585.0196666999254,,,,,,,,,,,,,,,,,,,,,,,,,,,,,,,,,,2,2023-12-04_13h05.32.763,watkins1,2023.2.3,99.70189130356688,41,2023-12-04 13h05.38.816473 +0000,
,,,,,,,,,,,,,,,,,,,,,,,,,,,,,,,,,,,,,,,,,,,,,,,,,,,,,,,,,,,,,,,,,,,,,,,2,,,,,,,,,,,,,,,,,,,,,,,,,,,,,,,,,,,,,,,,,,,,,,,,,,,,,,,,,,,,,,,,,,,,,,2,2023-12-04_13h05.32.763,watkins1,2023.2.3,99.70189130356688,41,2023-12-04 13h05.38.816473 +0000,
,,,,,,,,,,,,,,,,,,,0,0,0,0,,,,,601.3368903000373,,,,,,,,,,,,,,,,hammer,3.517747800098732,,,,,,,,,,,,2.0378938999492675,None,,,,,,,,,,,,,freeRecallSub,2,,,,,,,,,,,,,,,,,,,,,,,,,,,,,,,,,,,,,601.3283065999858,601.3368903000373,601.3368903000373,604.8617457998917,return,3.517747800098732,None,hammer,[],[],[],[],[],[],[],,,,,,,,,,,,,,,,,,,2,2023-12-04_13h05.32.763,watkins1,2023.2.3,99.70189130356688,41,2023-12-04 13h05.38.816473 +0000,
,,,,,,,,,,,,,,,,,,,1,0,1,0,,,,,604.8742146999575,,,,,,,,,,,,,,,,jacke,2.1164751001633704,,,,,,,,,,,,1.0368190000299364,None,,,,,,,,,,,,,freeRecallSub,2,,,,,,,,,,,,,,,,,,,,,,,,,,,,,,,,,,,,,604.8634819998406,604.8742146999575,604.8742146999575,606.994853500044,return,2.1164751001633704,None,jacke,[],[],[],[],[],[],[],,,,,,,,,,,,,,,,,,,2,2023-12-04_13h05.32.763,watkins1,2023.2.3,99.70189130356688,41,2023-12-04 13h05.38.816473 +0000,
,,,,,,,,,,,,,,,,,,,2,0,2,0,,,,,607.0055017999839,,,,,,,,,,,,,,,,bürste,4.985058599850163,,,,,,,,,,,,2.4695206000469625,None,,,,,,,,,,,,,freeRecallSub,2,,,,,,,,,,,,,,,,,,,,,,,,,,,,,,,,,,,,,606.9961123999674,607.0055017999839,607.0055017999839,611.9962273000274,return,4.985058599850163,None,bürste,[],[],[],[],[],[],[],,,,,,,,,,,,,,,,,,,2,2023-12-04_13h05.32.763,watkins1,2023.2.3,99.70189130356688,41,2023-12-04 13h05.38.816473 +0000,
,,,,,,,,,,,,,,,,,,,3,0,3,0,,,,,612.0075280999299,,,,,,,,,,,,,,,,trommel,2.7592052000109106,,,,,,,,,,,,1.0047043999657035,None,,,,,,,,,,,,,freeRecallSub,2,,,,,,,,,,,,,,,,,,,,,,,,,,,,,,,,,,,,,611.9974873999599,612.0075280999299,612.0075280999299,614.7699418000411,return,2.7592052000109106,None,trommel,[],[],[],[],[],[],[],,,,,,,,,,,,,,,,,,,2,2023-12-04_13h05.32.763,watkins1,2023.2.3,99.70189130356688,41,2023-12-04 13h05.38.816473 +0000,
,,,,,,,,,,,,,,,,,,,4,0,4,0,,,,,614.7810231000185,,,,,,,,,,,,,,,,blume,6.529703299980611,,,,,,,,,,,,5.091640200000256,None,,,,,,,,,,,,,freeRecallSub,2,,,,,,,,,,,,,,,,,,,,,,,,,,,,,,,,,,,,,614.7711858998518,614.7810231000185,614.7810231000185,621.3193379999138,return,6.529703299980611,None,blume,[],[],[],[],[],[],[],,,,,,,,,,,,,,,,,,,2,2023-12-04_13h05.32.763,watkins1,2023.2.3,99.70189130356688,41,2023-12-04 13h05.38.816473 +0000,
,,,,,,,,,,,,,,,,,,,5,0,5,0,,,,,621.3308753999881,,,,,,,,,,,,,,,,buch,1.819708399940282,,,,,,,,,,,,0.7140818000771105,None,,,,,,,,,,,,,freeRecallSub,2,,,,,,,,,,,,,,,,,,,,,,,,,,,,,,,,,,,,,621.3206261000596,621.3308753999881,621.3308753999881,623.1593597000465,return,1.819708399940282,None,buch,[],[],[],[],[],[],[],,,,,,,,,,,,,,,,,,,2,2023-12-04_13h05.32.763,watkins1,2023.2.3,99.70189130356688,41,2023-12-04 13h05.38.816473 +0000,
,,,,,,,,,,,,,,,,,,,6,0,6,0,,,,,623.1705251999665,,,,,,,,,,,,,,,,schere,11.6680328999646,,,,,,,,,,,,9.439942199969664,None,,,,,,,,,,,,,freeRecallSub,2,,,,,,,,,,,,,,,,,,,,,,,,,,,,,,,,,,,,,623.1606143000536,623.1705251999665,623.1705251999665,634.8405090998858,return,11.6680328999646,None,schere,[],[],[],[],[],[],[],,,,,,,,,,,,,,,,,,,2,2023-12-04_13h05.32.763,watkins1,2023.2.3,99.70189130356688,41,2023-12-04 13h05.38.816473 +0000,
,,,,,,,,,,,,,,,,,,,7,0,7,0,,,,,634.8520374998916,,,,,,,,,,,,,,,,lampe,2.3705992000177503,,,,,,,,,,,,0.93504080013372,None,,,,,,,,,,,,,freeRecallSub,2,,,,,,,,,,,,,,,,,,,,,,,,,,,,,,,,,,,,,634.8417608998716,634.8520374998916,634.8520374998916,637.2236943999305,return,2.3705992000177503,None,lampe,[],[],[],[],[],[],[],,,,,,,,,,,,,,,,,,,2,2023-12-04_13h05.32.763,watkins1,2023.2.3,99.70189130356688,41,2023-12-04 13h05.38.816473 +0000,
,,,,,,,,,,,,,,,,,,,8,0,8,0,,,,,637.2355638998561,,,,,,,,,,,,,,,,brille,8.794965999899432,,,,,,,,,,,,6.449034299934283,None,,,,,,,,,,,,,freeRecallSub,2,,,,,,,,,,,,,,,,,,,,,,,,,,,,,,,,,,,,,637.2249596000183,637.2355638998561,637.2355638998561,646.0337707998697,return,8.794965999899432,None,brille,[],[],[],[],[],[],[],,,,,,,,,,,,,,,,,,,2,2023-12-04_13h05.32.763,watkins1,2023.2.3,99.70189130356688,41,2023-12-04 13h05.38.816473 +0000,
,,,,,,,,,,,,,,,,,,,9,0,9,0,,,,,646.0454637999646,,,,,,,,,,,,,,,,stift,6.513146799989045,,,,,,,,,,,,5.324621599866077,None,,,,,,,,,,,,,freeRecallSub,2,,,,,,,,,,,,,,,,,,,,,,,,,,,,,,,,,,,,,646.0350291999057,646.0454637999646,646.0454637999646,652.5648755000439,return,6.513146799989045,None,stift,[],[],[],[],[],[],[],,,,,,,,,,,,,,,,,,,2,2023-12-04_13h05.32.763,watkins1,2023.2.3,99.70189130356688,41,2023-12-04 13h05.38.816473 +0000,
,,,,,,,,,,,,,,,,,,,10,0,10,0,,,,,652.5770302000456,,,,,,,,,,,,,,,,tasche,15.781497800024226,,,,,,,,,,,,11.249011799925938,None,,,,,,,,,,,,,freeRecallSub,2,,,,,,,,,,,,,,,,,,,,,,,,,,,,,,,,,,,,,652.5661328998394,652.5770302000456,652.5770302000456,668.3646207998972,return,15.781497800024226,None,tasche,[],[],[],[],[],[],[],,,,,,,,,,,,,,,,,,,2,2023-12-04_13h05.32.763,watkins1,2023.2.3,99.70189130356688,41,2023-12-04 13h05.38.816473 +0000,
,,,,,,,,,,,,,,,,,,,11,0,11,0,,,,,668.3767214999534,,,,,,,,,,,,,,,,rucksack,4.717805299907923,,,,,,,,,,,,1.9903404000215232,None,,,,,,,,,,,,,freeRecallSub,2,,,,,,,,,,,,,,,,,,,,,,,,,,,,,,,,,,,,,668.3658926000353,668.3767214999534,668.3767214999534,673.0976829999126,return,4.717805299907923,None,rucksack,[],[],[],[],[],[],[],,,,,,,,,,,,,,,,,,,2,2023-12-04_13h05.32.763,watkins1,2023.2.3,99.70189130356688,41,2023-12-04 13h05.38.816473 +0000,
,,,,,,,,,,,,,,,,,,,12,0,12,0,,,,,673.1102996000554,,,,,,,,,,,,,,,,eimer,14.112376800039783,,,,,,,,,,,,12.62793630012311,None,,,,,,,,,,,,,freeRecallSub,2,,,,,,,,,,,,,,,,,,,,,,,,,,,,,,,,,,,,,673.0989429999609,673.1102996000554,673.1102996000554,687.2233925999608,return,14.112376800039783,None,eimer,[],[],[],[],[],[],[],,,,,,,,,,,,,,,,,,,2,2023-12-04_13h05.32.763,watkins1,2023.2.3,99.70189130356688,41,2023-12-04 13h05.38.816473 +0000,
,,,,,,,,,,,,,,,,,,,13,0,13,0,,,,,687.2364509999752,,,,,,,,,,,,,,,,vase,8.35409940010868,,,,,,,,,,,,7.0545167999807745,None,,,,,,,,,,,,,freeRecallSub,2,,,,,,,,,,,,,,,,,,,,,,,,,,,,,,,,,,,,,687.2246554999147,687.2364509999752,687.2364509999752,695.5950241000392,return,8.35409940010868,None,vase,[],[],[],[],[],[],[],,,,,,,,,,,,,,,,,,,2,2023-12-04_13h05.32.763,watkins1,2023.2.3,99.70189130356688,41,2023-12-04 13h05.38.816473 +0000,
,,,,,,,,,,,,,,,,,,,14,0,14,0,,,,,695.6086746999063,,,,,,,,,,,,,,,,hund,16.485842199996114,,,,,,,,,,,,15.11163690011017,None,,,,,,,,,,,,,freeRecallSub,2,,,,,,,,,,,,,,,,,,,,,,,,,,,,,,,,,,,,,695.596283899853,695.6086746999063,695.6086746999063,712.1038015000522,return,16.485842199996114,None,hund,[],[],[],[],[],[],[],,,,,,,,,,,,,,,,,,,2,2023-12-04_13h05.32.763,watkins1,2023.2.3,99.70189130356688,41,2023-12-04 13h05.38.816473 +0000,
,,,,,,,,,,,,,,,,,,,15,0,15,0,,,,,712.1175742999185,,,,,,,,,,,,,,,,katze,2.2168860000092536,,,,,,,,,,,,0.9496059999801219,None,,,,,,,,,,,,,freeRecallSub,2,,,,,,,,,,,,,,,,,,,,,,,,,,,,,,,,,,,,,712.1050843000412,712.1175742999185,712.1175742999185,714.3402495000046,return,2.2168860000092536,None,katze,[],[],[],[],[],[],[],,,,,,,,,,,,,,,,,,,2,2023-12-04_13h05.32.763,watkins1,2023.2.3,99.70189130356688,41,2023-12-04 13h05.38.816473 +0000,
,,,,,,,,,,,,,,,,,,,16,0,16,0,,,,,714.3544608999509,,,,,,,,,,,,,,,,würfel,36.116102600004524,,,,,,,,,,,,34.65072280005552,None,,,,,,,,,,,,,freeRecallSub,2,,,,,,,,,,,,,,,,,,,,,,,,,,,,,,,,,,,,,714.3415131999645,714.3544608999509,714.3544608999509,750.478242999874,return,36.116102600004524,None,würfel,[],[],[],[],[],[],[],,,,,,,,,,,,,,,,,,,2,2023-12-04_13h05.32.763,watkins1,2023.2.3,99.70189130356688,41,2023-12-04 13h05.38.816473 +0000,
,,,,,,,,,,,,,,,,,,,17,0,17,0,,,,,750.4925277999137,,,,,,,,,,,,,,,,flasche,77.92184039996937,,,,,,,,,,,,73.70917239994742,None,,,,,,,,,,,,,freeRecallSub,2,,,,,,,,,,,,,,,,,,,,,,,,,,,,,,,,,,,,,750.4795271998737,750.4925277999137,750.4925277999137,828.4170484999195,return,77.92184039996937,None,flasche,[],[],[],[],[],[],[],,,,,,,,,,,,,,,,,,,2,2023-12-04_13h05.32.763,watkins1,2023.2.3,99.70189130356688,41,2023-12-04 13h05.38.816473 +0000,
,,,,,,,,,,,,,,,,,,,18,0,18,0,,,,,828.4312563999556,,,,,,,,,,,,,,,,löffel,36.88721659989096,,,,,,,,,,,,32.883095799945295,None,,,,,,,,,,,,,freeRecallSub,2,,,,,,,,,,,,,,,,,,,,,,,,,,,,,,,,,,,,,828.4183330000378,828.4312563999556,828.4312563999556,865.3281602000352,return,36.88721659989096,None,löffel,[],[],[],[],[],[],[],,,,,,,,,,,,,,,,,,,2,2023-12-04_13h05.32.763,watkins1,2023.2.3,99.70189130356688,41,2023-12-04 13h05.38.816473 +0000,
,,,,,,,,,,,,,,,,,,,19,0,19,0,,,,,865.3427120000124,,,,,,,,,,,,,,,,kette,35.10366140003316,,,,,,,,,,,,34.15895640011877,None,,,,,,,,,,,,,freeRecallSub,2,,,,,,,,,,,,,,,,,,,,,,,,,,,,,,,,,,,,,865.3294355999678,865.3427120000124,865.3427120000124,900.4525697999634,return,35.10366140003316,None,kette,[],[],[],[],[],[],[],,,,,,,,,,,,,,,,,,,2,2023-12-04_13h05.32.763,watkins1,2023.2.3,99.70189130356688,41,2023-12-04 13h05.38.816473 +0000,
,,,,,,,,,,,,,,,,,,,20,0,20,0,,,,,900.4670941999648,,,,,,,,,,,,,,,,,[],,,,,,,,,,,,None,None,,,,,,,,,,,,,freeRecallSub,2,,,,,,,,,,,,,,,,,,,,,,,,,,,,,,,,,,,,,900.4538455998991,900.4670941999648,900.4670941999648,965.7108026000205,None,,,,[0.28888888888888886],[-0.387037037037037],[1],[0],[0],[65.25025960011408],"['button_continue', 'continue_text']",,,,,,,,,,,,,,,,,,,2,2023-12-04_13h05.32.763,watkins1,2023.2.3,99.70189130356688,41,2023-12-04 13h05.38.816473 +0000,
,,,,,,,,,,,,,,,,,,,,,,,,,,,,,,,,,,,,,,,,,,,,,,,,,,,,,,,,,,,,,,,,,,,,,,,2,,,,,,,,,,,,,,,,,,,,,,,,,,,,,,,,,,,,,,,,,,,,,,,,,,,,,,,,,,,,,,,,,,,,,,2,2023-12-04_13h05.32.763,watkins1,2023.2.3,99.70189130356688,41,2023-12-04 13h05.38.816473 +0000,
,,,,,,,,,,,,,,,,,,,,,,,0,0,0,0,976.7573315999471,,,,,,,,,,,,980.2453071000054,980.7443514000624,,,,3.480860399780795,,,,,,,,,,,,None,None,,,,,,,,,,Bürste,,,cuedRecallAdj,2,,,,,,,,,,,,,,,,,,,,,,,,0,,,,,,,,,,,,,,,,,,,,,,,,,,,,976.7481940998696,976.7573315999471,976.7573315999471,980.2422414999455,lang,return,3.480860399780795,None,980.2426368999295,980.2517208999489,980.2517208999489,980.2451575999148,,None,,,,,2,2023-12-04_13h05.32.763,watkins1,2023.2.3,99.70189130356688,41,2023-12-04 13h05.38.816473 +0000,
,,,,,,,,,,,,,,,,,,,,,,,1,0,1,0,980.7542989000212,,,,,,,,,,,,988.6708922998514,989.1691753000487,,,,7.908078300068155,,,,,,,,,,,,None,None,,,,,,,,,,Trommel,,,cuedRecallAdj,2,,,,,,,,,,,,,,,,,,,,,,,,0,,,,,,,,,,,,,,,,,,,,,,,,,,,,980.7446001998615,980.7542989000212,980.7542989000212,988.667631899938,glänzend,return,7.908078300068155,None,988.6678980998695,988.6771147998516,988.6771147998516,988.670791399898,,None,,,,,2,2023-12-04_13h05.32.763,watkins1,2023.2.3,99.70189130356688,41,2023-12-04 13h05.38.816473 +0000,
,,,,,,,,,,,,,,,,,,,,,,,2,0,2,0,989.179070299957,,,,,,,,,,,,998.3606400999706,998.8594593999442,,,,9.171146700158715,,,,,,,,,,,,None,None,,,,,,,,,,Eimer,,,cuedRecallAdj,2,,,,,,,,,,,,,,,,,,,,,,,,0,,,,,,,,,,,,,,,,,,,,,,,,,,,,989.1694185000379,989.179070299957,989.179070299957,998.3576034000143,niedlich,return,9.171146700158715,None,998.3578689000569,998.3674142998643,998.3674142998643,998.3605388998985,,None,,,,,2,2023-12-04_13h05.32.763,watkins1,2023.2.3,99.70189130356688,41,2023-12-04 13h05.38.816473 +0000,
,,,,,,,,,,,,,,,,,,,,,,,3,0,3,0,998.8695063998457,,,,,,,,,,,,1003.2609973999206,1003.7597204998601,,,,4.38481319998391,,,,,,,,,,,,None,None,,,,,,,,,,Jacke,,,cuedRecallAdj,2,,,,,,,,,,,,,,,,,,,,,,,,0,,,,,,,,,,,,,,,,,,,,,,,,,,,,998.8597080998588,998.8695063998457,998.8695063998457,1003.2578984999564,nachhaltig,return,4.38481319998391,None,1003.2581577999517,1003.2675248000305,1003.2675248000305,1003.2608989998698,,None,,,,,2,2023-12-04_13h05.32.763,watkins1,2023.2.3,99.70189130356688,41,2023-12-04 13h05.38.816473 +0000,
,,,,,,,,,,,,,,,,,,,,,,,4,0,4,0,1003.769625299843,,,,,,,,,,,,1006.9864833999891,1007.4852404999547,,,,3.204551599919796,,,,,,,,,,,,None,None,,,,,,,,,,Vase,,,cuedRecallAdj,2,,,,,,,,,,,,,,,,,,,,,,,,0,,,,,,,,,,,,,,,,,,,,,,,,,,,,1003.7599672998767,1003.769625299843,1003.769625299843,1006.9836353999563,breit,return,3.204551599919796,None,1006.9839015998878,1006.9933489998803,1006.9933489998803,1006.9863785000052,,None,,,,,2,2023-12-04_13h05.32.763,watkins1,2023.2.3,99.70189130356688,41,2023-12-04 13h05.38.816473 +0000,
,,,,,,,,,,,,,,,,,,,,,,,5,0,5,0,1007.4952580998652,,,,,,,,,,,,1010.9227199000306,1011.4217234998941,,,,3.415070599876344,,,,,,,,,,,,None,None,,,,,,,,,,Brille,,,cuedRecallAdj,2,,,,,,,,,,,,,,,,,,,,,,,,0,,,,,,,,,,,,,,,,,,,,,,,,,,,,1007.4854818000458,1007.4952580998652,1007.4952580998652,1010.9198421998881,dick,return,3.415070599876344,None,1010.920115099987,1010.929552400019,1010.929552400019,1010.9226164000574,,None,,,,,2,2023-12-04_13h05.32.763,watkins1,2023.2.3,99.70189130356688,41,2023-12-04 13h05.38.816473 +0000,
,,,,,,,,,,,,,,,,,,,,,,,6,0,6,0,1011.4317729000468,,,,,,,,,,,,1014.9093301000539,1015.4081665999256,,,,3.4705676999874413,,,,,,,,,,,,None,None,,,,,,,,,,Schere,,,cuedRecallAdj,2,,,,,,,,,,,,,,,,,,,,,,,,0,,,,,,,,,,,,,,,,,,,,,,,,,,,,1011.421968499897,1011.4317729000468,1011.4317729000468,1014.906451900024,kalt,return,3.4705676999874413,None,1014.9067172999494,1014.9160025999881,1014.9160025999881,1014.9092250999529,,None,,,,,2,2023-12-04_13h05.32.763,watkins1,2023.2.3,99.70189130356688,41,2023-12-04 13h05.38.816473 +0000,
,,,,,,,,,,,,,,,,,,,,,,,7,0,7,0,1015.4181003998965,,,,,,,,,,,,1018.7955105998553,1019.2949570999481,,,,3.372221500147134,,,,,,,,,,,,None,None,,,,,,,,,,Telefon,,,cuedRecallAdj,2,,,,,,,,,,,,,,,,,,,,,,,,0,,,,,,,,,,,,,,,,,,,,,,,,,,,,1015.4084065000061,1015.4181003998965,1015.4181003998965,1018.7923999000341,schwer,return,3.372221500147134,None,1018.7926962999627,1018.8019896000624,1018.8019896000624,1018.7954100000206,,None,,,,,2,2023-12-04_13h05.32.763,watkins1,2023.2.3,99.70189130356688,41,2023-12-04 13h05.38.816473 +0000,
,,,,,,,,,,,,,,,,,,,,,,,8,0,8,0,1019.3043963999953,,,,,,,,,,,,1025.2427797999699,1025.7413421999663,,,,5.925833499990404,,,,,,,,,,,,None,None,,,,,,,,,,Rucksack,,,cuedRecallAdj,2,,,,,,,,,,,,,,,,,,,,,,,,0,,,,,,,,,,,,,,,,,,,,,,,,,,,,1019.2952042999677,1019.3043963999953,1019.3043963999953,1025.2395162999164,dunkel,return,5.925833499990404,None,1025.2397839999758,1025.2492901999503,1025.2492901999503,1025.242678300012,,None,,,,,2,2023-12-04_13h05.32.763,watkins1,2023.2.3,99.70189130356688,41,2023-12-04 13h05.38.816473 +0000,
,,,,,,,,,,,,,,,,,,,,,,,9,0,9,0,1025.7512652999721,,,,,,,,,,,,1153.1910904999822,1153.689761799993,,,,127.43071349989623,,,,,,,,,,,,None,None,,,,,,,,,,Kerze,,,cuedRecallAdj,2,,,,,,,,,,,,,,,,,,,,,,,,0,,,,,,,,,,,,,,,,,,,,,,,,,,,,1025.7415914000012,1025.7512652999721,1025.7512652999721,1153.188054200029,neblig,return,127.43071349989623,None,1153.1883217999712,1153.1976942999754,1153.1976942999754,1153.1909880000167,,None,,,,,2,2023-12-04_13h05.32.763,watkins1,2023.2.3,99.70189130356688,41,2023-12-04 13h05.38.816473 +0000,
,,,,,,,,,,,,,,,,,,,,,,,10,0,10,0,1153.6996573999058,,,,,,,,,,,,1159.1563557998743,1159.6546952999197,,,,5.4503987999632955,,,,,,,,,,,,None,None,,,,,,,,,,Würfel,,,cuedRecallAdj,2,,,,,,,,,,,,,,,,,,,,,,,,0,,,,,,,,,,,,,,,,,,,,,,,,,,,,1153.6900050998665,1153.6996573999058,1153.6996573999058,1159.1531288998667,kratzig,return,5.4503987999632955,None,1159.1534116999246,1159.1626643000636,1159.1626643000636,1159.15624689986,,None,,,,,2,2023-12-04_13h05.32.763,watkins1,2023.2.3,99.70189130356688,41,2023-12-04 13h05.38.816473 +0000,
,,,,,,,,,,,,,,,,,,,,,,,11,0,11,0,1159.6646392999683,,,,,,,,,,,,1165.7935788999312,1166.2922000000253,,,,6.117392200045288,,,,,,,,,,,,None,None,,,,,,,,,,Socke,,,cuedRecallAdj,2,,,,,,,,,,,,,,,,,,,,,,,,0,,,,,,,,,,,,,,,,,,,,,,,,,,,,1159.6549352000002,1159.6646392999683,1159.6646392999683,1165.790408300003,klobig,return,6.117392200045288,None,1165.7906734000426,1165.8001112998463,1165.8001112998463,1165.7934767999686,,None,,,,,2,2023-12-04_13h05.32.763,watkins1,2023.2.3,99.70189130356688,41,2023-12-04 13h05.38.816473 +0000,
,,,,,,,,,,,,,,,,,,,,,,,12,0,12,0,1166.3021541999187,,,,,,,,,,,,1203.7318057999946,1204.2303808999714,,,,37.42397529981099,,,,,,,,,,,,None,None,,,,,,,,,,Fahrrad,,,cuedRecallAdj,2,,,,,,,,,,,,,,,,,,,,,,,,0,,,,,,,,,,,,,,,,,,,,,,,,,,,,1166.2924496000633,1166.3021541999187,1166.3021541999187,1203.728738399921,kräftig,return,37.42397529981099,None,1203.7290061998647,1203.7383524999022,1203.7383524999022,1203.7317043000367,,None,,,,,2,2023-12-04_13h05.32.763,watkins1,2023.2.3,99.70189130356688,41,2023-12-04 13h05.38.816473 +0000,
,,,,,,,,,,,,,,,,,,,,,,,13,0,13,0,1204.2403969999868,,,,,,,,,,,,1206.5138002999593,1207.0120458998717,,,,2.269873399985954,,,,,,,,,,,,None,None,,,,,,,,,,Geige,,,cuedRecallAdj,2,,,,,,,,,,,,,,,,,,,,,,,,0,,,,,,,,,,,,,,,,,,,,,,,,,,,,1204.2306301998906,1204.2403969999868,1204.2403969999868,1206.510672000004,nass,return,2.269873399985954,None,1206.5109538000543,1206.519970000023,1206.519970000023,1206.5136976998765,,None,,,,,2,2023-12-04_13h05.32.763,watkins1,2023.2.3,99.70189130356688,41,2023-12-04 13h05.38.816473 +0000,
,,,,,,,,,,,,,,,,,,,,,,,14,0,14,0,1207.0219403000083,,,,,,,,,,,,1215.5106474999338,1216.0092453998514,,,,8.480122999986634,,,,,,,,,,,,None,None,,,,,,,,,,Löffel,,,cuedRecallAdj,2,,,,,,,,,,,,,,,,,,,,,,,,0,,,,,,,,,,,,,,,,,,,,,,,,,,,,1207.0122936000116,1207.0219403000083,1207.0219403000083,1215.5076403999701,flach,return,8.480122999986634,None,1215.5079075000249,1215.5171520998701,1215.5171520998701,1215.5105455999728,,None,,,,,2,2023-12-04_13h05.32.763,watkins1,2023.2.3,99.70189130356688,41,2023-12-04 13h05.38.816473 +0000,
,,,,,,,,,,,,,,,,,,,,,,,15,0,15,0,1216.0191917999182,,,,,,,,,,,,1220.1293639999349,1220.6284558998886,,,,4.106764700030908,,,,,,,,,,,,None,None,,,,,,,,,,Hut,,,cuedRecallAdj,2,,,,,,,,,,,,,,,,,,,,,,,,0,,,,,,,,,,,,,,,,,,,,,,,,,,,,1216.0094932999928,1216.0191917999182,1216.0191917999182,1220.126669799909,neu,return,4.106764700030908,None,1220.1269386999775,1220.1361564998515,1220.1361564998515,1220.1292621998582,,None,,,,,2,2023-12-04_13h05.32.763,watkins1,2023.2.3,99.70189130356688,41,2023-12-04 13h05.38.816473 +0000,
,,,,,,,,,,,,,,,,,,,,,,,16,0,16,0,1220.6384004999418,,,,,,,,,,,,1227.2392178999726,1227.7381106000394,,,,6.591641999781132,,,,,,,,,,,,None,None,,,,,,,,,,Flasche,,,cuedRecallAdj,2,,,,,,,,,,,,,,,,,,,,,,,,0,,,,,,,,,,,,,,,,,,,,,,,,,,,,1220.6287034999114,1220.6384004999418,1220.6384004999418,1227.2361433999613,gebogen,return,6.591641999781132,None,1227.236411199905,1227.245623699855,1227.245623699855,1227.2391166000161,,None,,,,,2,2023-12-04_13h05.32.763,watkins1,2023.2.3,99.70189130356688,41,2023-12-04 13h05.38.816473 +0000,
,,,,,,,,,,,,,,,,,,,,,,,17,0,17,0,1227.7480327000376,,,,,,,,,,,,1237.1405249000527,1237.6393854999915,,,,9.386061300057918,,,,,,,,,,,,None,None,,,,,,,,,,Hammer,,,cuedRecallAdj,2,,,,,,,,,,,,,,,,,,,,,,,,0,,,,,,,,,,,,,,,,,,,,,,,,,,,,1227.738352800021,1227.7480327000376,1227.7480327000376,1237.1376334999222,hohl,return,9.386061300057918,None,1237.1378989999648,1237.1472815000452,1237.1472815000452,1237.1404232999776,,None,,,,,2,2023-12-04_13h05.32.763,watkins1,2023.2.3,99.70189130356688,41,2023-12-04 13h05.38.816473 +0000,
,,,,,,,,,,,,,,,,,,,,,,,18,0,18,0,1237.6493311000522,,,,,,,,,,,,1242.4024403998628,1242.9011989999563,,,,4.748618499841541,,,,,,,,,,,,None,None,,,,,,,,,,Kamera,,,cuedRecallAdj,2,,,,,,,,,,,,,,,,,,,,,,,,0,,,,,,,,,,,,,,,,,,,,,,,,,,,,1237.6396284999792,1237.6493311000522,1237.6493311000522,1242.3995701000094,kurz,return,4.748618499841541,None,1242.3998358000536,1242.409113700036,1242.409113700036,1242.4023380000144,,None,,,,,2,2023-12-04_13h05.32.763,watkins1,2023.2.3,99.70189130356688,41,2023-12-04 13h05.38.816473 +0000,
,,,,,,,,,,,,,,,,,,,,,,,19,0,19,0,1242.9111043999437,,,,,,,,,,,,1252.6159762998577,1253.1143596000038,,,,9.694918799912557,,,,,,,,,,,,None,None,,,,,,,,,,Lampe,,,cuedRecallAdj,2,,,,,,,,,,,,,,,,,,,,,,,,0,,,,,,,,,,,,,,,,,,,,,,,,,,,,1242.9014437999576,1242.9111043999437,1242.9111043999437,1252.6127863000147,hässlich,return,9.694918799912557,None,1252.6130540999584,1252.6222971000243,1252.6222971000243,1252.6158751999028,,None,,,,,2,2023-12-04_13h05.32.763,watkins1,2023.2.3,99.70189130356688,41,2023-12-04 13h05.38.816473 +0000,
,,,,,,,,,,,,,,,,,,,,,,,20,0,20,0,1253.1244105000515,,,,,,,,,,,,1256.2110206000507,1256.7096054998692,,,,3.0816108998842537,,,,,,,,,,,,None,None,,,,,,,,,,Stift,,,cuedRecallAdj,2,,,,,,,,,,,,,,,,,,,,,,,,0,,,,,,,,,,,,,,,,,,,,,,,,,,,,1253.1146050000098,1253.1244105000515,1253.1244105000515,1256.2078906998504,kaputt,return,3.0816108998842537,None,1256.2081567998976,1256.2174519998953,1256.2174519998953,1256.210919899866,,None,,,,,2,2023-12-04_13h05.32.763,watkins1,2023.2.3,99.70189130356688,41,2023-12-04 13h05.38.816473 +0000,
,,,,,,,,,,,,,,,,,,,,,,,21,0,21,0,1256.7195472000167,,,,,,,,,,,,1260.679619899951,1261.1781925999094,,,,3.950393400155008,,,,,,,,,,,,None,None,,,,,,,,,,Buch,,,cuedRecallAdj,2,,,,,,,,,,,,,,,,,,,,,,,,0,,,,,,,,,,,,,,,,,,,,,,,,,,,,1256.7098478998523,1256.7195472000167,1256.7195472000167,1260.676528400043,hübsch,return,3.950393400155008,None,1260.6768169999123,1260.6860098000616,1260.6860098000616,1260.6795168998651,,None,,,,,2,2023-12-04_13h05.32.763,watkins1,2023.2.3,99.70189130356688,41,2023-12-04 13h05.38.816473 +0000,
,,,,,,,,,,,,,,,,,,,,,,,22,0,22,0,1261.1880935998634,,,,,,,,,,,,1277.8510076999664,1278.3496067000087,,,,16.657827500021085,,,,,,,,,,,,None,None,,,,,,,,,,Kette,,,cuedRecallAdj,2,,,,,,,,,,,,,,,,,,,,,,,,0,,,,,,,,,,,,,,,,,,,,,,,,,,,,1261.1784426998347,1261.1880935998634,1261.1880935998634,1277.847978899954,geflochten,return,16.657827500021085,None,1277.8482393999584,1277.8574943998829,1277.8574943998829,1277.8509074000176,,None,,,,,2,2023-12-04_13h05.32.763,watkins1,2023.2.3,99.70189130356688,41,2023-12-04 13h05.38.816473 +0000,
,,,,,,,,,,,,,,,,,,,,,,,23,0,23,0,1278.3594957999885,,,,,,,,,,,,1285.9744299999438,1286.4732043999247,,,,7.606435199966654,,,,,,,,,,,,None,None,,,,,,,,,,Ring,,,cuedRecallAdj,2,,,,,,,,,,,,,,,,,,,,,,,,0,,,,,,,,,,,,,,,,,,,,,,,,,,,,1278.3498525000177,1278.3594957999885,1278.3594957999885,1285.9714609000366,flauschig,return,7.606435199966654,None,1285.9717249998357,1285.9810516999569,1285.9810516999569,1285.9743278999813,,None,,,,,2,2023-12-04_13h05.32.763,watkins1,2023.2.3,99.70189130356688,41,2023-12-04 13h05.38.816473 +0000,
,,,,,,,,,,,,,,,,,,,,,,,24,0,24,0,1286.4831929998472,,,,,,,,,,,,1309.9799124000128,1310.4787306999788,,,,23.490777400089428,,,,,,,,,,,,None,None,,,,,,,,,,Tasche,,,cuedRecallAdj,2,,,,,,,,,,,,,,,,,,,,,,,,0,,,,,,,,,,,,,,,,,,,,,,,,,,,,1286.4734501000494,1286.4831929998472,1286.4831929998472,1309.9770512999967,alt,return,23.490777400089428,None,1309.9773194999434,1309.986700499896,1309.986700499896,1309.9798061999027,,None,,,,,2,2023-12-04_13h05.32.763,watkins1,2023.2.3,99.70189130356688,41,2023-12-04 13h05.38.816473 +0000,
,,,,,,,,,,,,,,,,,,,,,,,25,0,25,0,1310.4886882000137,,,,,,,,,,,,1322.4420511999633,1322.9408539999276,,,,11.949273299891502,,,,,,,,,,,,None,None,,,,,,,,,,Tasse,,,cuedRecallAdj,2,,,,,,,,,,,,,,,,,,,,,,,,0,,,,,,,,,,,,,,,,,,,,,,,,,,,,1310.478976199869,1310.4886882000137,1310.4886882000137,1322.4390817999374,klein,return,11.949273299891502,None,1322.4393498999998,1322.4486394999549,1322.4486394999549,1322.4419493998867,,None,,,,,2,2023-12-04_13h05.32.763,watkins1,2023.2.3,99.70189130356688,41,2023-12-04 13h05.38.816473 +0000,
,,,,,,,,,,,,,,,,,,,,,,,26,0,26,0,1322.9508050000295,,,,,,,,,,,,1326.4184997000266,1326.917241799878,,,,3.4632028001360595,,,,,,,,,,,,None,None,,,,,,,,,,Schlüssel,,,cuedRecallAdj,2,,,,,,,,,,,,,,,,,,,,,,,,0,,,,,,,,,,,,,,,,,,,,,,,,,,,,1322.9410997000523,1322.9508050000295,1322.9508050000295,1326.4155605998822,groß,return,3.4632028001360595,None,1326.415827400051,1326.4251240000594,1326.4251240000594,1326.418397200061,,None,,,,,2,2023-12-04_13h05.32.763,watkins1,2023.2.3,99.70189130356688,41,2023-12-04 13h05.38.816473 +0000,
,,,,,,,,,,,,,,,,,,,,,,,27,0,27,0,1326.927142899949,,,,,,,,,,,,1332.3329862998798,1332.8318366999738,,,,5.398787699872628,,,,,,,,,,,,None,None,,,,,,,,,,Kiste,,,cuedRecallAdj,2,,,,,,,,,,,,,,,,,,,,,,,,0,,,,,,,,,,,,,,,,,,,,,,,,,,,,1326.9174945999403,1326.927142899949,1326.927142899949,1332.3299990999512,spitz,return,5.398787699872628,None,1332.330271200044,1332.3395010998938,1332.3395010998938,1332.3328853999265,,None,,,,,2,2023-12-04_13h05.32.763,watkins1,2023.2.3,99.70189130356688,41,2023-12-04 13h05.38.816473 +0000,
,,,,,,,,,,,,,,,,,,,,,,,28,0,28,0,1332.8418884000275,,,,,,,,,,,,1336.0482099000365,1336.5471803999972,,,,3.1960877999663353,,,,,,,,,,,,None,None,,,,,,,,,,Blume,,,cuedRecallAdj,2,,,,,,,,,,,,,,,,,,,,,,,,0,,,,,,,,,,,,,,,,,,,,,,,,,,,,1332.8320915999357,1332.8418884000275,1332.8418884000275,1336.0453824999277,gut,return,3.1960877999663353,None,1336.0456479999702,1336.0551026000176,1336.0551026000176,1336.0481080999598,,None,,,,,2,2023-12-04_13h05.32.763,watkins1,2023.2.3,99.70189130356688,41,2023-12-04 13h05.38.816473 +0000,
,,,,,,,,,,,,,,,,,,,,,,,29,0,29,0,1336.5570743000135,,,,,,,,,,,,1345.9803235,1346.4788068998605,,,,9.416770000010729,,,,,,,,,,,,None,None,,,,,,,,,,Uhr,,,cuedRecallAdj,2,,,,,,,,,,,,,,,,,,,,,,,,0,,,,,,,,,,,,,,,,,,,,,,,,,,,,1336.5474212998524,1336.5570743000135,1336.5570743000135,1345.977229199838,praktisch,return,9.416770000010729,None,1345.9775145000312,1345.9867738999892,1345.9867738999892,1345.9802137999795,,None,,,,,2,2023-12-04_13h05.32.763,watkins1,2023.2.3,99.70189130356688,41,2023-12-04 13h05.38.816473 +0000,
,,,,,,,,,,,,,,,,,,,,,,,,,,,,,,,,,,,,,,,,,,,,,,,,,,,,,,,,,,,,,,,,,,,,,,,2,,,,,,,,,,,,,,,,,,,,,,,,,,,,,,,,,,,,,,,,,,,,,,,,,,,,,,,,,,,,,,,,,,1346.4957842000294,q,4603.457488700049,None,2,2023-12-04_13h05.32.763,watkins1,2023.2.3,99.70189130356688,41,2023-12-04 13h05.38.816473 +0000,
