Equation,CorrectResponse,Correctbutton,trials_7.thisRepN,trials_7.thisTrialN,trials_7.thisN,trials_7.thisIndex,trials.thisRepN,trials.thisTrialN,trials.thisN,trials.thisIndex,trials_3.thisRepN,trials_3.thisTrialN,trials_3.thisN,trials_3.thisIndex,trials_2.thisRepN,trials_2.thisTrialN,trials_2.thisN,trials_2.thisIndex,trials_4.thisRepN,trials_4.thisTrialN,trials_4.thisN,trials_4.thisIndex,trials_5.thisRepN,trials_5.thisTrialN,trials_5.thisN,trials_5.thisIndex,thisRow.t,notes,code_marius.started,code_marius.stopped,welcome.started,welcome.stopped,instruction_study.started,instruction_study.stopped,fixationcross.started,fixationcross.stopped,blanc.started,blanc.stopped,study_control_probe.started,study_control_probe.stopped,responseKey,responseTime,scale_answer_2.keys,study_control_probe_2.started,study_control_probe_2.stopped,scale_answer_3.keys,scale_answer_3.rt,scale_answer_3.duration,blanc_2.started,blanc_2.stopped,test_attr_probe.started,test_attr_probe.stopped,recalled_attr,firstKeyTime,secondWordTime,blanc_3.started,blanc_3.stopped,test_sub_probe.started,test_sub_probe.stopped,recalled_sub,instruction_probe_end.started,instruction_probe_end.stopped,study.started,study.stopped,substantive,adjective,wordpair,task,condition,liste_sub_phase1,liste_adj_phase1,scale_answer.keys,scale_answer.rt,scale_answer.duration,code_defineWordsInit.started,code_defineWordsInit.stopped,liste_sub_phase2,study_control.started,study_control.stopped,scale_answer_4.keys,restudy_same.started,restudy_same.stopped,scale_answer_5.keys,restudy_different.started,restudy_different.stopped,scale_answer_6.keys,test_attr.started,correct,test_attr.stopped,test_sub.started,test_sub.stopped,scale_answer_5.rt,scale_answer_5.duration,distractortask.started,equation_text.started,distractortask.stopped,mouse_answer.x,mouse_answer.y,mouse_answer.leftButton,mouse_answer.midButton,mouse_answer.rightButton,mouse_answer.time,mouse_answer.clicked_name,feedback_distractortask.started,feedback_distractortask.stopped,free_recall.started,text_enter.started,key_resp.started,free_recall.stopped,key_resp.keys,key_resp.rt,key_resp.duration,free_recalled_sub,mouse_continue.x,mouse_continue.y,mouse_continue.leftButton,mouse_continue.midButton,mouse_continue.rightButton,mouse_continue.time,mouse_continue.clicked_name,cued_recall.started,text_enter_2.started,key_continue.started,cued_recall.stopped,recalled_attr1,key_continue.keys,key_continue.rt,key_continue.duration,cued_recall_2.started,text_enter_3.started,key_continue_2.started,cued_recall_2.stopped,recalled_attr2,key_continue_2.keys,key_resp_8.started,key_resp_8.keys,key_resp_8.rt,key_resp_8.duration,condition,date,expName,psychopyVersion,frameRate,participant,expStart,
,,,,,,,,,,,,,,,,,,,,,,,,,,,,,0.10504129994660616,0.10510669997893274,0.10511499992571771,9.900642500026152,,,,,,,,,,,,,,,,,,,,,,,,,,,,,,,,,,,,,3,,,,,,,,,,,,,,,,,,,,,,,,,,,,,,,,,,,,,,,,,,,,,,,,,,,,,,,,,,,,,,,,,,,,,,3,2023-11-28_09h59.02.577,watkins1,2023.2.3,99.73420842380905,24,2023-11-28 09h59.10.717077 +0000,
,,,,,,,,,,,,,,,,,,,,,,,,,,,,,,,,,9.900691000046209,60.97165640001185,,,,,,,,,,,,,,,,,,,,,,,,,,,,,,,,,,,3,,,,,,,,,,,,,,,,,,,,,,,,,,,,,,,,,,,,,,,,,,,,,,,,,,,,,,,,,,,,,,,,,,,,,,3,2023-11-28_09h59.02.577,watkins1,2023.2.3,99.73420842380905,24,2023-11-28 09h59.10.717077 +0000,
,,,0,0,0,0,,,,,,,,,,,,,,,,,,,,,61.985315799945965,,,,,,,,60.97167419991456,61.97532660001889,68.47538509988226,68.96680220006965,62.467395999934524,68.47522290004417,3,2.974964000051841,None,68.96681279991753,74.97660770011134,3,2.974964000051841,None,74.97690039989538,75.46812579990365,75.46813699998893,81.47279629996046,verg,None,None,81.47302110004239,81.47304380009882,81.47305090003647,81.47313280007802,,,,,,,,,,3,,,,,,,,,,,,,,,,,,,,,,,,,,,,,,,,,,,,,,,,,,,,,,,,,,,,,,,,,,,,,,,,,,,,,,3,2023-11-28_09h59.02.577,watkins1,2023.2.3,99.73420842380905,24,2023-11-28 09h59.10.717077 +0000,
,,,,,,,,,,,,,,,,,,,,,,,,,,,,,,,,,,,,,,,,,,,,,,,,,,,,,,,,,,,,,81.4732490000315,88.56192109989934,,,,,,,3,,,,,,,,,,,,,,,,,,,,,,,,,,,,,,,,,,,,,,,,,,,,,,,,,,,,,,,,,,,,,,,,,,,,,,3,2023-11-28_09h59.02.577,watkins1,2023.2.3,99.73420842380905,24,2023-11-28 09h59.10.717077 +0000,
,,,,,,,0,0,0,0,,,,,,,,,,,,,,,,,89.57573499996215,,,,,,,,88.56193759990856,89.56565320002846,89.56611300003715,90.05774719989859,,,3,2.4967749000061303,,,,,,,,,,,,,,,,,,,,,90.05775699997321,96.06051620002836,Hut,breit,"['Hut', 'breit']",restudy,3,"['Hut', 'Kette', 'Stift', 'Tasse', 'Ring', 'Geige', 'Fahrrad', 'Bürste', 'Brille', 'Würfel', 'Tasche', 'Kamera', 'Uhr', 'Schlüssel', 'Jacke', 'Flasche', 'Trommel', 'Schere', 'Kerze', 'Kiste', 'Löffel', 'Lampe', 'Telefon', 'Hammer', 'Buch', 'Vase', 'Socke', 'Rucksack', 'Eimer', 'Blume']",['breit'],3,2.4967749000061303,None,,,,,,,,,,,,,,,,,,,,,,,,,,,,,,,,,,,,,,,,,,,,,,,,,,,,,,,,,,,,,,,,,3,2023-11-28_09h59.02.577,watkins1,2023.2.3,99.73420842380905,24,2023-11-28 09h59.10.717077 +0000,
,,,,,,,1,0,1,0,,,,,,,,,,,,,,,,,96.06993560004048,,,,,,,,,,96.06117290002294,96.55201130011119,,,1,2.4830165000166744,,,,,,,,,,,,,,,,,,,,,96.55202189995907,102.56295499997213,Kette,krumm,"['Kette', 'krumm']",test_adj,3,"['Hut', 'Kette', 'Stift', 'Tasse', 'Ring', 'Geige', 'Fahrrad', 'Bürste', 'Brille', 'Würfel', 'Tasche', 'Kamera', 'Uhr', 'Schlüssel', 'Jacke', 'Flasche', 'Trommel', 'Schere', 'Kerze', 'Kiste', 'Löffel', 'Lampe', 'Telefon', 'Hammer', 'Buch', 'Vase', 'Socke', 'Rucksack', 'Eimer', 'Blume']","['breit', 'krumm']",1,2.4830165000166744,None,,,,,,,,,,,,,,,,,,,,,,,,,,,,,,,,,,,,,,,,,,,,,,,,,,,,,,,,,,,,,,,,,3,2023-11-28_09h59.02.577,watkins1,2023.2.3,99.73420842380905,24,2023-11-28 09h59.10.717077 +0000,
,,,,,,,2,0,2,0,,,,,,,,,,,,,,,,,102.57276239991188,,,,,,,,,,102.56349979992956,103.05542690004222,,,1,2.6276790001429617,,,,,,,,,,,,,,,,,,,,,103.05543720000423,109.06125309993513,Stift,klobig,"['Stift', 'klobig']",restudy,3,"['Hut', 'Kette', 'Stift', 'Tasse', 'Ring', 'Geige', 'Fahrrad', 'Bürste', 'Brille', 'Würfel', 'Tasche', 'Kamera', 'Uhr', 'Schlüssel', 'Jacke', 'Flasche', 'Trommel', 'Schere', 'Kerze', 'Kiste', 'Löffel', 'Lampe', 'Telefon', 'Hammer', 'Buch', 'Vase', 'Socke', 'Rucksack', 'Eimer', 'Blume']","['breit', 'krumm', 'klobig']",1,2.6276790001429617,None,,,,,,,,,,,,,,,,,,,,,,,,,,,,,,,,,,,,,,,,,,,,,,,,,,,,,,,,,,,,,,,,,3,2023-11-28_09h59.02.577,watkins1,2023.2.3,99.73420842380905,24,2023-11-28 09h59.10.717077 +0000,
,,,,,,,3,0,3,0,,,,,,,,,,,,,,,,,109.0708244999405,,,,,,,,,,109.06177760008723,109.55282970005646,,,3,3.754448400111869,,,,,,,,,,,,,,,,,,,,,109.55284029990435,115.55906619993038,Tasse,robust,"['Tasse', 'robust']",test_adj,3,"['Hut', 'Kette', 'Stift', 'Tasse', 'Ring', 'Geige', 'Fahrrad', 'Bürste', 'Brille', 'Würfel', 'Tasche', 'Kamera', 'Uhr', 'Schlüssel', 'Jacke', 'Flasche', 'Trommel', 'Schere', 'Kerze', 'Kiste', 'Löffel', 'Lampe', 'Telefon', 'Hammer', 'Buch', 'Vase', 'Socke', 'Rucksack', 'Eimer', 'Blume']","['breit', 'krumm', 'klobig', 'robust']",3,3.754448400111869,None,,,,,,,,,,,,,,,,,,,,,,,,,,,,,,,,,,,,,,,,,,,,,,,,,,,,,,,,,,,,,,,,,3,2023-11-28_09h59.02.577,watkins1,2023.2.3,99.73420842380905,24,2023-11-28 09h59.10.717077 +0000,
,,,,,,,4,0,4,0,,,,,,,,,,,,,,,,,115.56850429996848,,,,,,,,,,115.55960229993798,116.05065060011111,,,1,2.6325824002269655,,,,,,,,,,,,,,,,,,,,,116.05066019995138,122.05369500000961,Ring,gepunktet,"['Ring', 'gepunktet']",test_adj,3,"['Hut', 'Kette', 'Stift', 'Tasse', 'Ring', 'Geige', 'Fahrrad', 'Bürste', 'Brille', 'Würfel', 'Tasche', 'Kamera', 'Uhr', 'Schlüssel', 'Jacke', 'Flasche', 'Trommel', 'Schere', 'Kerze', 'Kiste', 'Löffel', 'Lampe', 'Telefon', 'Hammer', 'Buch', 'Vase', 'Socke', 'Rucksack', 'Eimer', 'Blume']","['breit', 'krumm', 'klobig', 'robust', 'gepunktet']",1,2.6325824002269655,None,,,,,,,,,,,,,,,,,,,,,,,,,,,,,,,,,,,,,,,,,,,,,,,,,,,,,,,,,,,,,,,,,3,2023-11-28_09h59.02.577,watkins1,2023.2.3,99.73420842380905,24,2023-11-28 09h59.10.717077 +0000,
,,,,,,,5,0,5,0,,,,,,,,,,,,,,,,,122.06326419999823,,,,,,,,,,122.05422300007194,122.54520200006664,,,3,2.4176254998892546,,,,,,,,,,,,,,,,,,,,,122.5452149999328,128.5505747999996,Geige,dunkel,"['Geige', 'dunkel']",restudy,3,"['Hut', 'Kette', 'Stift', 'Tasse', 'Ring', 'Geige', 'Fahrrad', 'Bürste', 'Brille', 'Würfel', 'Tasche', 'Kamera', 'Uhr', 'Schlüssel', 'Jacke', 'Flasche', 'Trommel', 'Schere', 'Kerze', 'Kiste', 'Löffel', 'Lampe', 'Telefon', 'Hammer', 'Buch', 'Vase', 'Socke', 'Rucksack', 'Eimer', 'Blume']","['breit', 'krumm', 'klobig', 'robust', 'gepunktet', 'dunkel']",3,2.4176254998892546,None,,,,,,,,,,,,,,,,,,,,,,,,,,,,,,,,,,,,,,,,,,,,,,,,,,,,,,,,,,,,,,,,,3,2023-11-28_09h59.02.577,watkins1,2023.2.3,99.73420842380905,24,2023-11-28 09h59.10.717077 +0000,
,,,,,,,6,0,6,0,,,,,,,,,,,,,,,,,128.56004119990394,,,,,,,,,,128.55110369995236,129.042085000081,,,3,1.7295450000092387,,,,,,,,,,,,,,,,,,,,,129.04209479992278,135.05448599997908,Fahrrad,strahlend,"['Fahrrad', 'strahlend']",restudy,3,"['Hut', 'Kette', 'Stift', 'Tasse', 'Ring', 'Geige', 'Fahrrad', 'Bürste', 'Brille', 'Würfel', 'Tasche', 'Kamera', 'Uhr', 'Schlüssel', 'Jacke', 'Flasche', 'Trommel', 'Schere', 'Kerze', 'Kiste', 'Löffel', 'Lampe', 'Telefon', 'Hammer', 'Buch', 'Vase', 'Socke', 'Rucksack', 'Eimer', 'Blume']","['breit', 'krumm', 'klobig', 'robust', 'gepunktet', 'dunkel', 'strahlend']",3,1.7295450000092387,None,,,,,,,,,,,,,,,,,,,,,,,,,,,,,,,,,,,,,,,,,,,,,,,,,,,,,,,,,,,,,,,,,3,2023-11-28_09h59.02.577,watkins1,2023.2.3,99.73420842380905,24,2023-11-28 09h59.10.717077 +0000,
,,,,,,,7,0,7,0,,,,,,,,,,,,,,,,,135.0634486998897,,,,,,,,,,135.05502109997906,135.5477299001068,,,1,2.2073667999356985,,,,,,,,,,,,,,,,,,,,,135.54774000006728,141.5495664998889,Bürste,dick,"['Bürste', 'dick']",test_adj,3,"['Hut', 'Kette', 'Stift', 'Tasse', 'Ring', 'Geige', 'Fahrrad', 'Bürste', 'Brille', 'Würfel', 'Tasche', 'Kamera', 'Uhr', 'Schlüssel', 'Jacke', 'Flasche', 'Trommel', 'Schere', 'Kerze', 'Kiste', 'Löffel', 'Lampe', 'Telefon', 'Hammer', 'Buch', 'Vase', 'Socke', 'Rucksack', 'Eimer', 'Blume']","['breit', 'krumm', 'klobig', 'robust', 'gepunktet', 'dunkel', 'strahlend', 'dick']",1,2.2073667999356985,None,,,,,,,,,,,,,,,,,,,,,,,,,,,,,,,,,,,,,,,,,,,,,,,,,,,,,,,,,,,,,,,,,3,2023-11-28_09h59.02.577,watkins1,2023.2.3,99.73420842380905,24,2023-11-28 09h59.10.717077 +0000,
,,,,,,,8,0,8,0,,,,,,,,,,,,,,,,,141.55903630005196,,,,,,,,,,141.55008609988727,142.04105659993365,,,1,1.515004799934104,,,,,,,,,,,,,,,,,,,,,142.0410666000098,148.05102939996868,Brille,kurz,"['Brille', 'kurz']",restudy,3,"['Hut', 'Kette', 'Stift', 'Tasse', 'Ring', 'Geige', 'Fahrrad', 'Bürste', 'Brille', 'Würfel', 'Tasche', 'Kamera', 'Uhr', 'Schlüssel', 'Jacke', 'Flasche', 'Trommel', 'Schere', 'Kerze', 'Kiste', 'Löffel', 'Lampe', 'Telefon', 'Hammer', 'Buch', 'Vase', 'Socke', 'Rucksack', 'Eimer', 'Blume']","['breit', 'krumm', 'klobig', 'robust', 'gepunktet', 'dunkel', 'strahlend', 'dick', 'kurz']",1,1.515004799934104,None,,,,,,,,,,,,,,,,,,,,,,,,,,,,,,,,,,,,,,,,,,,,,,,,,,,,,,,,,,,,,,,,,3,2023-11-28_09h59.02.577,watkins1,2023.2.3,99.73420842380905,24,2023-11-28 09h59.10.717077 +0000,
,,,,,,,9,0,9,0,,,,,,,,,,,,,,,,,148.0604991998989,,,,,,,,,,148.05155090009794,148.54248009994626,,,1,2.045157300075516,,,,,,,,,,,,,,,,,,,,,148.54249030002393,154.54480720008723,Würfel,nass,"['Würfel', 'nass']",test_adj,3,"['Hut', 'Kette', 'Stift', 'Tasse', 'Ring', 'Geige', 'Fahrrad', 'Bürste', 'Brille', 'Würfel', 'Tasche', 'Kamera', 'Uhr', 'Schlüssel', 'Jacke', 'Flasche', 'Trommel', 'Schere', 'Kerze', 'Kiste', 'Löffel', 'Lampe', 'Telefon', 'Hammer', 'Buch', 'Vase', 'Socke', 'Rucksack', 'Eimer', 'Blume']","['breit', 'krumm', 'klobig', 'robust', 'gepunktet', 'dunkel', 'strahlend', 'dick', 'kurz', 'nass']",1,2.045157300075516,None,,,,,,,,,,,,,,,,,,,,,,,,,,,,,,,,,,,,,,,,,,,,,,,,,,,,,,,,,,,,,,,,,3,2023-11-28_09h59.02.577,watkins1,2023.2.3,99.73420842380905,24,2023-11-28 09h59.10.717077 +0000,
,,,,,,,10,0,10,0,,,,,,,,,,,,,,,,,154.5542852000799,,,,,,,,,,154.5453284000978,155.03623250010423,,,1,1.4640536000952125,,,,,,,,,,,,,,,,,,,,,155.03624280006625,161.04630780010484,Tasche,kratzig,"['Tasche', 'kratzig']",test_adj,3,"['Hut', 'Kette', 'Stift', 'Tasse', 'Ring', 'Geige', 'Fahrrad', 'Bürste', 'Brille', 'Würfel', 'Tasche', 'Kamera', 'Uhr', 'Schlüssel', 'Jacke', 'Flasche', 'Trommel', 'Schere', 'Kerze', 'Kiste', 'Löffel', 'Lampe', 'Telefon', 'Hammer', 'Buch', 'Vase', 'Socke', 'Rucksack', 'Eimer', 'Blume']","['breit', 'krumm', 'klobig', 'robust', 'gepunktet', 'dunkel', 'strahlend', 'dick', 'kurz', 'nass', 'kratzig']",1,1.4640536000952125,None,,,,,,,,,,,,,,,,,,,,,,,,,,,,,,,,,,,,,,,,,,,,,,,,,,,,,,,,,,,,,,,,,3,2023-11-28_09h59.02.577,watkins1,2023.2.3,99.73420842380905,24,2023-11-28 09h59.10.717077 +0000,
,,,,,,,11,0,11,0,,,,,,,,,,,,,,,,,161.05579339992255,,,,,,,,,,161.04682629997842,161.537978899898,,,1,1.7385317001026124,,,,,,,,,,,,,,,,,,,,,161.53798900009133,167.54329749988392,Kamera,durchsichtig,"['Kamera', 'durchsichtig']",test_adj,3,"['Hut', 'Kette', 'Stift', 'Tasse', 'Ring', 'Geige', 'Fahrrad', 'Bürste', 'Brille', 'Würfel', 'Tasche', 'Kamera', 'Uhr', 'Schlüssel', 'Jacke', 'Flasche', 'Trommel', 'Schere', 'Kerze', 'Kiste', 'Löffel', 'Lampe', 'Telefon', 'Hammer', 'Buch', 'Vase', 'Socke', 'Rucksack', 'Eimer', 'Blume']","['breit', 'krumm', 'klobig', 'robust', 'gepunktet', 'dunkel', 'strahlend', 'dick', 'kurz', 'nass', 'kratzig', 'durchsichtig']",1,1.7385317001026124,None,,,,,,,,,,,,,,,,,,,,,,,,,,,,,,,,,,,,,,,,,,,,,,,,,,,,,,,,,,,,,,,,,3,2023-11-28_09h59.02.577,watkins1,2023.2.3,99.73420842380905,24,2023-11-28 09h59.10.717077 +0000,
,,,,,,,12,0,12,0,,,,,,,,,,,,,,,,,167.55273330002092,,,,,,,,,,167.54382680007257,168.03488699998707,,,3,2.2398991999216378,,,,,,,,,,,,,,,,,,,,,168.03489689994603,174.03645880008116,Uhr,glänzend,"['Uhr', 'glänzend']",restudy,3,"['Hut', 'Kette', 'Stift', 'Tasse', 'Ring', 'Geige', 'Fahrrad', 'Bürste', 'Brille', 'Würfel', 'Tasche', 'Kamera', 'Uhr', 'Schlüssel', 'Jacke', 'Flasche', 'Trommel', 'Schere', 'Kerze', 'Kiste', 'Löffel', 'Lampe', 'Telefon', 'Hammer', 'Buch', 'Vase', 'Socke', 'Rucksack', 'Eimer', 'Blume']","['breit', 'krumm', 'klobig', 'robust', 'gepunktet', 'dunkel', 'strahlend', 'dick', 'kurz', 'nass', 'kratzig', 'durchsichtig', 'glänzend']",3,2.2398991999216378,None,,,,,,,,,,,,,,,,,,,,,,,,,,,,,,,,,,,,,,,,,,,,,,,,,,,,,,,,,,,,,,,,,3,2023-11-28_09h59.02.577,watkins1,2023.2.3,99.73420842380905,24,2023-11-28 09h59.10.717077 +0000,
,,,,,,,13,0,13,0,,,,,,,,,,,,,,,,,174.04598949989304,,,,,,,,,,174.03697989997454,174.5280889000278,,,1,1.3961985998321325,,,,,,,,,,,,,,,,,,,,,174.52809939999133,180.53352489997633,Schlüssel,hässlich,"['Schlüssel', 'hässlich']",test_adj,3,"['Hut', 'Kette', 'Stift', 'Tasse', 'Ring', 'Geige', 'Fahrrad', 'Bürste', 'Brille', 'Würfel', 'Tasche', 'Kamera', 'Uhr', 'Schlüssel', 'Jacke', 'Flasche', 'Trommel', 'Schere', 'Kerze', 'Kiste', 'Löffel', 'Lampe', 'Telefon', 'Hammer', 'Buch', 'Vase', 'Socke', 'Rucksack', 'Eimer', 'Blume']","['breit', 'krumm', 'klobig', 'robust', 'gepunktet', 'dunkel', 'strahlend', 'dick', 'kurz', 'nass', 'kratzig', 'durchsichtig', 'glänzend', 'hässlich']",1,1.3961985998321325,None,,,,,,,,,,,,,,,,,,,,,,,,,,,,,,,,,,,,,,,,,,,,,,,,,,,,,,,,,,,,,,,,,3,2023-11-28_09h59.02.577,watkins1,2023.2.3,99.73420842380905,24,2023-11-28 09h59.10.717077 +0000,
,,,,,,,14,0,14,0,,,,,,,,,,,,,,,,,180.54294120008126,,,,,,,,,,180.53404729999602,181.02520009991713,,,1,1.5783683999907225,,,,,,,,,,,,,,,,,,,,,181.02520960010588,187.02664789999835,Jacke,hohl,"['Jacke', 'hohl']",restudy,3,"['Hut', 'Kette', 'Stift', 'Tasse', 'Ring', 'Geige', 'Fahrrad', 'Bürste', 'Brille', 'Würfel', 'Tasche', 'Kamera', 'Uhr', 'Schlüssel', 'Jacke', 'Flasche', 'Trommel', 'Schere', 'Kerze', 'Kiste', 'Löffel', 'Lampe', 'Telefon', 'Hammer', 'Buch', 'Vase', 'Socke', 'Rucksack', 'Eimer', 'Blume']","['breit', 'krumm', 'klobig', 'robust', 'gepunktet', 'dunkel', 'strahlend', 'dick', 'kurz', 'nass', 'kratzig', 'durchsichtig', 'glänzend', 'hässlich', 'hohl']",1,1.5783683999907225,None,,,,,,,,,,,,,,,,,,,,,,,,,,,,,,,,,,,,,,,,,,,,,,,,,,,,,,,,,,,,,,,,,3,2023-11-28_09h59.02.577,watkins1,2023.2.3,99.73420842380905,24,2023-11-28 09h59.10.717077 +0000,
,,,,,,,15,0,15,0,,,,,,,,,,,,,,,,,187.03617520001717,,,,,,,,,,187.02717099990696,187.51831199997105,,,3,3.3337725000455976,,,,,,,,,,,,,,,,,,,,,187.5183226999361,193.52726870006882,Flasche,elegant,"['Flasche', 'elegant']",test_adj,3,"['Hut', 'Kette', 'Stift', 'Tasse', 'Ring', 'Geige', 'Fahrrad', 'Bürste', 'Brille', 'Würfel', 'Tasche', 'Kamera', 'Uhr', 'Schlüssel', 'Jacke', 'Flasche', 'Trommel', 'Schere', 'Kerze', 'Kiste', 'Löffel', 'Lampe', 'Telefon', 'Hammer', 'Buch', 'Vase', 'Socke', 'Rucksack', 'Eimer', 'Blume']","['breit', 'krumm', 'klobig', 'robust', 'gepunktet', 'dunkel', 'strahlend', 'dick', 'kurz', 'nass', 'kratzig', 'durchsichtig', 'glänzend', 'hässlich', 'hohl', 'elegant']",3,3.3337725000455976,None,,,,,,,,,,,,,,,,,,,,,,,,,,,,,,,,,,,,,,,,,,,,,,,,,,,,,,,,,,,,,,,,,3,2023-11-28_09h59.02.577,watkins1,2023.2.3,99.73420842380905,24,2023-11-28 09h59.10.717077 +0000,
,,,,,,,16,0,16,0,,,,,,,,,,,,,,,,,193.53671410004608,,,,,,,,,,193.52778990007937,194.01873299991712,,,1,1.6094466000795364,,,,,,,,,,,,,,,,,,,,,194.0187431999948,200.0263936999254,Trommel,hübsch,"['Trommel', 'hübsch']",test_adj,3,"['Hut', 'Kette', 'Stift', 'Tasse', 'Ring', 'Geige', 'Fahrrad', 'Bürste', 'Brille', 'Würfel', 'Tasche', 'Kamera', 'Uhr', 'Schlüssel', 'Jacke', 'Flasche', 'Trommel', 'Schere', 'Kerze', 'Kiste', 'Löffel', 'Lampe', 'Telefon', 'Hammer', 'Buch', 'Vase', 'Socke', 'Rucksack', 'Eimer', 'Blume']","['breit', 'krumm', 'klobig', 'robust', 'gepunktet', 'dunkel', 'strahlend', 'dick', 'kurz', 'nass', 'kratzig', 'durchsichtig', 'glänzend', 'hässlich', 'hohl', 'elegant', 'hübsch']",1,1.6094466000795364,None,,,,,,,,,,,,,,,,,,,,,,,,,,,,,,,,,,,,,,,,,,,,,,,,,,,,,,,,,,,,,,,,,3,2023-11-28_09h59.02.577,watkins1,2023.2.3,99.73420842380905,24,2023-11-28 09h59.10.717077 +0000,
,,,,,,,17,0,17,0,,,,,,,,,,,,,,,,,200.0358539998997,,,,,,,,,,200.02693490008824,200.51792249991558,,,1,2.182273400016129,,,,,,,,,,,,,,,,,,,,,200.51793339988217,206.52343020006083,Schere,biegsam,"['Schere', 'biegsam']",restudy,3,"['Hut', 'Kette', 'Stift', 'Tasse', 'Ring', 'Geige', 'Fahrrad', 'Bürste', 'Brille', 'Würfel', 'Tasche', 'Kamera', 'Uhr', 'Schlüssel', 'Jacke', 'Flasche', 'Trommel', 'Schere', 'Kerze', 'Kiste', 'Löffel', 'Lampe', 'Telefon', 'Hammer', 'Buch', 'Vase', 'Socke', 'Rucksack', 'Eimer', 'Blume']","['breit', 'krumm', 'klobig', 'robust', 'gepunktet', 'dunkel', 'strahlend', 'dick', 'kurz', 'nass', 'kratzig', 'durchsichtig', 'glänzend', 'hässlich', 'hohl', 'elegant', 'hübsch', 'biegsam']",1,2.182273400016129,None,,,,,,,,,,,,,,,,,,,,,,,,,,,,,,,,,,,,,,,,,,,,,,,,,,,,,,,,,,,,,,,,,3,2023-11-28_09h59.02.577,watkins1,2023.2.3,99.73420842380905,24,2023-11-28 09h59.10.717077 +0000,
,,,,,,,18,0,18,0,,,,,,,,,,,,,,,,,206.53286839998327,,,,,,,,,,206.5239532000851,207.01500539993867,,,3,2.1092849001288414,,,,,,,,,,,,,,,,,,,,,207.0150156999007,213.02305840002373,Kerze,glatt,"['Kerze', 'glatt']",restudy,3,"['Hut', 'Kette', 'Stift', 'Tasse', 'Ring', 'Geige', 'Fahrrad', 'Bürste', 'Brille', 'Würfel', 'Tasche', 'Kamera', 'Uhr', 'Schlüssel', 'Jacke', 'Flasche', 'Trommel', 'Schere', 'Kerze', 'Kiste', 'Löffel', 'Lampe', 'Telefon', 'Hammer', 'Buch', 'Vase', 'Socke', 'Rucksack', 'Eimer', 'Blume']","['breit', 'krumm', 'klobig', 'robust', 'gepunktet', 'dunkel', 'strahlend', 'dick', 'kurz', 'nass', 'kratzig', 'durchsichtig', 'glänzend', 'hässlich', 'hohl', 'elegant', 'hübsch', 'biegsam', 'glatt']",3,2.1092849001288414,None,,,,,,,,,,,,,,,,,,,,,,,,,,,,,,,,,,,,,,,,,,,,,,,,,,,,,,,,,,,,,,,,,3,2023-11-28_09h59.02.577,watkins1,2023.2.3,99.73420842380905,24,2023-11-28 09h59.10.717077 +0000,
,,,,,,,19,0,19,0,,,,,,,,,,,,,,,,,213.03248140006326,,,,,,,,,,213.0235806000419,213.5145040000789,,,1,1.6737170999404043,,,,,,,,,,,,,,,,,,,,,213.5145147999283,219.5176899000071,Kiste,blass,"['Kiste', 'blass']",restudy,3,"['Hut', 'Kette', 'Stift', 'Tasse', 'Ring', 'Geige', 'Fahrrad', 'Bürste', 'Brille', 'Würfel', 'Tasche', 'Kamera', 'Uhr', 'Schlüssel', 'Jacke', 'Flasche', 'Trommel', 'Schere', 'Kerze', 'Kiste', 'Löffel', 'Lampe', 'Telefon', 'Hammer', 'Buch', 'Vase', 'Socke', 'Rucksack', 'Eimer', 'Blume']","['breit', 'krumm', 'klobig', 'robust', 'gepunktet', 'dunkel', 'strahlend', 'dick', 'kurz', 'nass', 'kratzig', 'durchsichtig', 'glänzend', 'hässlich', 'hohl', 'elegant', 'hübsch', 'biegsam', 'glatt', 'blass']",1,1.6737170999404043,None,,,,,,,,,,,,,,,,,,,,,,,,,,,,,,,,,,,,,,,,,,,,,,,,,,,,,,,,,,,,,,,,,3,2023-11-28_09h59.02.577,watkins1,2023.2.3,99.73420842380905,24,2023-11-28 09h59.10.717077 +0000,
,,,,,,,20,0,20,0,,,,,,,,,,,,,,,,,219.52715940005146,,,,,,,,,,219.51821079989895,220.00920589989983,,,1,1.9461143999360502,,,,,,,,,,,,,,,,,,,,,220.00921580009162,226.01968999998644,Löffel,zart,"['Löffel', 'zart']",test_adj,3,"['Hut', 'Kette', 'Stift', 'Tasse', 'Ring', 'Geige', 'Fahrrad', 'Bürste', 'Brille', 'Würfel', 'Tasche', 'Kamera', 'Uhr', 'Schlüssel', 'Jacke', 'Flasche', 'Trommel', 'Schere', 'Kerze', 'Kiste', 'Löffel', 'Lampe', 'Telefon', 'Hammer', 'Buch', 'Vase', 'Socke', 'Rucksack', 'Eimer', 'Blume']","['breit', 'krumm', 'klobig', 'robust', 'gepunktet', 'dunkel', 'strahlend', 'dick', 'kurz', 'nass', 'kratzig', 'durchsichtig', 'glänzend', 'hässlich', 'hohl', 'elegant', 'hübsch', 'biegsam', 'glatt', 'blass', 'zart']",1,1.9461143999360502,None,,,,,,,,,,,,,,,,,,,,,,,,,,,,,,,,,,,,,,,,,,,,,,,,,,,,,,,,,,,,,,,,,3,2023-11-28_09h59.02.577,watkins1,2023.2.3,99.73420842380905,24,2023-11-28 09h59.10.717077 +0000,
,,,,,,,21,0,21,0,,,,,,,,,,,,,,,,,226.02915650000796,,,,,,,,,,226.02021340001374,226.5112216998823,,,1,3.4051280000712723,,,,,,,,,,,,,,,,,,,,,226.5112316000741,232.51879339991137,Lampe,neu,"['Lampe', 'neu']",restudy,3,"['Hut', 'Kette', 'Stift', 'Tasse', 'Ring', 'Geige', 'Fahrrad', 'Bürste', 'Brille', 'Würfel', 'Tasche', 'Kamera', 'Uhr', 'Schlüssel', 'Jacke', 'Flasche', 'Trommel', 'Schere', 'Kerze', 'Kiste', 'Löffel', 'Lampe', 'Telefon', 'Hammer', 'Buch', 'Vase', 'Socke', 'Rucksack', 'Eimer', 'Blume']","['breit', 'krumm', 'klobig', 'robust', 'gepunktet', 'dunkel', 'strahlend', 'dick', 'kurz', 'nass', 'kratzig', 'durchsichtig', 'glänzend', 'hässlich', 'hohl', 'elegant', 'hübsch', 'biegsam', 'glatt', 'blass', 'zart', 'neu']",1,3.4051280000712723,None,,,,,,,,,,,,,,,,,,,,,,,,,,,,,,,,,,,,,,,,,,,,,,,,,,,,,,,,,,,,,,,,,3,2023-11-28_09h59.02.577,watkins1,2023.2.3,99.73420842380905,24,2023-11-28 09h59.10.717077 +0000,
,,,,,,,22,0,22,0,,,,,,,,,,,,,,,,,232.52827259991318,,,,,,,,,,232.51932019996457,233.010152899893,,,1,3.522071900079027,,,,,,,,,,,,,,,,,,,,,233.01016289996915,239.01136910007335,Telefon,bunt,"['Telefon', 'bunt']",test_adj,3,"['Hut', 'Kette', 'Stift', 'Tasse', 'Ring', 'Geige', 'Fahrrad', 'Bürste', 'Brille', 'Würfel', 'Tasche', 'Kamera', 'Uhr', 'Schlüssel', 'Jacke', 'Flasche', 'Trommel', 'Schere', 'Kerze', 'Kiste', 'Löffel', 'Lampe', 'Telefon', 'Hammer', 'Buch', 'Vase', 'Socke', 'Rucksack', 'Eimer', 'Blume']","['breit', 'krumm', 'klobig', 'robust', 'gepunktet', 'dunkel', 'strahlend', 'dick', 'kurz', 'nass', 'kratzig', 'durchsichtig', 'glänzend', 'hässlich', 'hohl', 'elegant', 'hübsch', 'biegsam', 'glatt', 'blass', 'zart', 'neu', 'bunt']",1,3.522071900079027,None,,,,,,,,,,,,,,,,,,,,,,,,,,,,,,,,,,,,,,,,,,,,,,,,,,,,,,,,,,,,,,,,,3,2023-11-28_09h59.02.577,watkins1,2023.2.3,99.73420842380905,24,2023-11-28 09h59.10.717077 +0000,
,,,,,,,23,0,23,0,,,,,,,,,,,,,,,,,239.0208314000629,,,,,,,,,,239.0118970000185,239.50288229994476,,,3,2.372708700131625,,,,,,,,,,,,,,,,,,,,,239.5028923000209,245.50951900007203,Hammer,schwer,"['Hammer', 'schwer']",restudy,3,"['Hut', 'Kette', 'Stift', 'Tasse', 'Ring', 'Geige', 'Fahrrad', 'Bürste', 'Brille', 'Würfel', 'Tasche', 'Kamera', 'Uhr', 'Schlüssel', 'Jacke', 'Flasche', 'Trommel', 'Schere', 'Kerze', 'Kiste', 'Löffel', 'Lampe', 'Telefon', 'Hammer', 'Buch', 'Vase', 'Socke', 'Rucksack', 'Eimer', 'Blume']","['breit', 'krumm', 'klobig', 'robust', 'gepunktet', 'dunkel', 'strahlend', 'dick', 'kurz', 'nass', 'kratzig', 'durchsichtig', 'glänzend', 'hässlich', 'hohl', 'elegant', 'hübsch', 'biegsam', 'glatt', 'blass', 'zart', 'neu', 'bunt', 'schwer']",3,2.372708700131625,None,,,,,,,,,,,,,,,,,,,,,,,,,,,,,,,,,,,,,,,,,,,,,,,,,,,,,,,,,,,,,,,,,3,2023-11-28_09h59.02.577,watkins1,2023.2.3,99.73420842380905,24,2023-11-28 09h59.10.717077 +0000,
,,,,,,,24,0,24,0,,,,,,,,,,,,,,,,,245.51900659990497,,,,,,,,,,245.51004770002328,246.00120020005852,,,1,1.79495619982481,,,,,,,,,,,,,,,,,,,,,246.00121050002053,252.01026479993016,Buch,niedlich,"['Buch', 'niedlich']",restudy,3,"['Hut', 'Kette', 'Stift', 'Tasse', 'Ring', 'Geige', 'Fahrrad', 'Bürste', 'Brille', 'Würfel', 'Tasche', 'Kamera', 'Uhr', 'Schlüssel', 'Jacke', 'Flasche', 'Trommel', 'Schere', 'Kerze', 'Kiste', 'Löffel', 'Lampe', 'Telefon', 'Hammer', 'Buch', 'Vase', 'Socke', 'Rucksack', 'Eimer', 'Blume']","['breit', 'krumm', 'klobig', 'robust', 'gepunktet', 'dunkel', 'strahlend', 'dick', 'kurz', 'nass', 'kratzig', 'durchsichtig', 'glänzend', 'hässlich', 'hohl', 'elegant', 'hübsch', 'biegsam', 'glatt', 'blass', 'zart', 'neu', 'bunt', 'schwer', 'niedlich']",1,1.79495619982481,None,,,,,,,,,,,,,,,,,,,,,,,,,,,,,,,,,,,,,,,,,,,,,,,,,,,,,,,,,,,,,,,,,3,2023-11-28_09h59.02.577,watkins1,2023.2.3,99.73420842380905,24,2023-11-28 09h59.10.717077 +0000,
,,,,,,,25,0,25,0,,,,,,,,,,,,,,,,,252.01969509990886,,,,,,,,,,252.01078290003352,252.50189720001072,,,1,3.1175576001405716,,,,,,,,,,,,,,,,,,,,,252.5019076000899,258.51181440008804,Vase,schmutzig,"['Vase', 'schmutzig']",test_adj,3,"['Hut', 'Kette', 'Stift', 'Tasse', 'Ring', 'Geige', 'Fahrrad', 'Bürste', 'Brille', 'Würfel', 'Tasche', 'Kamera', 'Uhr', 'Schlüssel', 'Jacke', 'Flasche', 'Trommel', 'Schere', 'Kerze', 'Kiste', 'Löffel', 'Lampe', 'Telefon', 'Hammer', 'Buch', 'Vase', 'Socke', 'Rucksack', 'Eimer', 'Blume']","['breit', 'krumm', 'klobig', 'robust', 'gepunktet', 'dunkel', 'strahlend', 'dick', 'kurz', 'nass', 'kratzig', 'durchsichtig', 'glänzend', 'hässlich', 'hohl', 'elegant', 'hübsch', 'biegsam', 'glatt', 'blass', 'zart', 'neu', 'bunt', 'schwer', 'niedlich', 'schmutzig']",1,3.1175576001405716,None,,,,,,,,,,,,,,,,,,,,,,,,,,,,,,,,,,,,,,,,,,,,,,,,,,,,,,,,,,,,,,,,,3,2023-11-28_09h59.02.577,watkins1,2023.2.3,99.73420842380905,24,2023-11-28 09h59.10.717077 +0000,
,,,,,,,26,0,26,0,,,,,,,,,,,,,,,,,258.52140629990026,,,,,,,,,,258.51233680010773,259.0034511999693,,,3,1.9446506001986563,,,,,,,,,,,,,,,,,,,,,259.0034614999313,265.0044400000479,Socke,flauschig,"['Socke', 'flauschig']",restudy,3,"['Hut', 'Kette', 'Stift', 'Tasse', 'Ring', 'Geige', 'Fahrrad', 'Bürste', 'Brille', 'Würfel', 'Tasche', 'Kamera', 'Uhr', 'Schlüssel', 'Jacke', 'Flasche', 'Trommel', 'Schere', 'Kerze', 'Kiste', 'Löffel', 'Lampe', 'Telefon', 'Hammer', 'Buch', 'Vase', 'Socke', 'Rucksack', 'Eimer', 'Blume']","['breit', 'krumm', 'klobig', 'robust', 'gepunktet', 'dunkel', 'strahlend', 'dick', 'kurz', 'nass', 'kratzig', 'durchsichtig', 'glänzend', 'hässlich', 'hohl', 'elegant', 'hübsch', 'biegsam', 'glatt', 'blass', 'zart', 'neu', 'bunt', 'schwer', 'niedlich', 'schmutzig', 'flauschig']",3,1.9446506001986563,None,,,,,,,,,,,,,,,,,,,,,,,,,,,,,,,,,,,,,,,,,,,,,,,,,,,,,,,,,,,,,,,,,3,2023-11-28_09h59.02.577,watkins1,2023.2.3,99.73420842380905,24,2023-11-28 09h59.10.717077 +0000,
,,,,,,,27,0,27,0,,,,,,,,,,,,,,,,,265.01387819997035,,,,,,,,,,265.00497359992005,265.4959670000244,,,3,3.731888399925083,,,,,,,,,,,,,,,,,,,,,265.49597769998945,271.5043114,Rucksack,gestreift,"['Rucksack', 'gestreift']",test_adj,3,"['Hut', 'Kette', 'Stift', 'Tasse', 'Ring', 'Geige', 'Fahrrad', 'Bürste', 'Brille', 'Würfel', 'Tasche', 'Kamera', 'Uhr', 'Schlüssel', 'Jacke', 'Flasche', 'Trommel', 'Schere', 'Kerze', 'Kiste', 'Löffel', 'Lampe', 'Telefon', 'Hammer', 'Buch', 'Vase', 'Socke', 'Rucksack', 'Eimer', 'Blume']","['breit', 'krumm', 'klobig', 'robust', 'gepunktet', 'dunkel', 'strahlend', 'dick', 'kurz', 'nass', 'kratzig', 'durchsichtig', 'glänzend', 'hässlich', 'hohl', 'elegant', 'hübsch', 'biegsam', 'glatt', 'blass', 'zart', 'neu', 'bunt', 'schwer', 'niedlich', 'schmutzig', 'flauschig', 'gestreift']",3,3.731888399925083,None,,,,,,,,,,,,,,,,,,,,,,,,,,,,,,,,,,,,,,,,,,,,,,,,,,,,,,,,,,,,,,,,,3,2023-11-28_09h59.02.577,watkins1,2023.2.3,99.73420842380905,24,2023-11-28 09h59.10.717077 +0000,
,,,,,,,28,0,28,0,,,,,,,,,,,,,,,,,271.51378219993785,,,,,,,,,,271.5048352999147,271.9957002000883,,,1,3.3438073999714106,,,,,,,,,,,,,,,,,,,,,271.9957099999301,278.0052847999614,Eimer,flach,"['Eimer', 'flach']",test_adj,3,"['Hut', 'Kette', 'Stift', 'Tasse', 'Ring', 'Geige', 'Fahrrad', 'Bürste', 'Brille', 'Würfel', 'Tasche', 'Kamera', 'Uhr', 'Schlüssel', 'Jacke', 'Flasche', 'Trommel', 'Schere', 'Kerze', 'Kiste', 'Löffel', 'Lampe', 'Telefon', 'Hammer', 'Buch', 'Vase', 'Socke', 'Rucksack', 'Eimer', 'Blume']","['breit', 'krumm', 'klobig', 'robust', 'gepunktet', 'dunkel', 'strahlend', 'dick', 'kurz', 'nass', 'kratzig', 'durchsichtig', 'glänzend', 'hässlich', 'hohl', 'elegant', 'hübsch', 'biegsam', 'glatt', 'blass', 'zart', 'neu', 'bunt', 'schwer', 'niedlich', 'schmutzig', 'flauschig', 'gestreift', 'flach']",1,3.3438073999714106,None,,,,,,,,,,,,,,,,,,,,,,,,,,,,,,,,,,,,,,,,,,,,,,,,,,,,,,,,,,,,,,,,,3,2023-11-28_09h59.02.577,watkins1,2023.2.3,99.73420842380905,24,2023-11-28 09h59.10.717077 +0000,
,,,,,,,29,0,29,0,,,,,,,,,,,,,,,,,278.01485699997284,,,,,,,,,,278.0058112000115,278.49699710006826,,,1,2.763024700107053,,,,,,,,,,,,,,,,,,,,,278.4970072999131,284.5056290999055,Blume,kaputt,"['Blume', 'kaputt']",restudy,3,"['Hut', 'Kette', 'Stift', 'Tasse', 'Ring', 'Geige', 'Fahrrad', 'Bürste', 'Brille', 'Würfel', 'Tasche', 'Kamera', 'Uhr', 'Schlüssel', 'Jacke', 'Flasche', 'Trommel', 'Schere', 'Kerze', 'Kiste', 'Löffel', 'Lampe', 'Telefon', 'Hammer', 'Buch', 'Vase', 'Socke', 'Rucksack', 'Eimer', 'Blume']","['breit', 'krumm', 'klobig', 'robust', 'gepunktet', 'dunkel', 'strahlend', 'dick', 'kurz', 'nass', 'kratzig', 'durchsichtig', 'glänzend', 'hässlich', 'hohl', 'elegant', 'hübsch', 'biegsam', 'glatt', 'blass', 'zart', 'neu', 'bunt', 'schwer', 'niedlich', 'schmutzig', 'flauschig', 'gestreift', 'flach', 'kaputt']",1,2.763024700107053,None,,,,,,,,,,,,,,,,,,,,,,,,,,,,,,,,,,,,,,,,,,,,,,,,,,,,,,,,,,,,,,,,,3,2023-11-28_09h59.02.577,watkins1,2023.2.3,99.73420842380905,24,2023-11-28 09h59.10.717077 +0000,
,,,,,,,,,,,0,0,0,0,,,,,,,,,,,,,284.51517669996247,,,,,,,,,,284.5064817001112,284.99719809996895,,,[],[],,,,,,,,,,,glatt,None,None,,,,,,,,,,Eimer,flach,"['Eimer', 'flach']",test_adj,3,,,,,,284.5064050999936,284.50645429990254,"['Eimer', 'Lampe', 'Hut', 'Stift', 'Geige', 'Buch', 'Kamera', 'Socke', 'Schlüssel', 'Würfel', 'Kerze', 'Kiste', 'Rucksack', 'Kette', 'Trommel', 'Brille', 'Blume', 'Vase', 'Schere', 'Tasse', 'Telefon', 'Flasche', 'Tasche', 'Fahrrad', 'Löffel', 'Hammer', 'Ring', 'Jacke', 'Uhr', 'Bürste']",284.997208799934,284.99996539996937,None,285.0001501000952,285.0027638999745,None,285.00292159989476,285.00545620010234,None,285.00561270001344,0,291.0109506000299,291.0109645000193,291.01226989994757,,,,,,,,,,,,,,,,,,,,,,,,,,,,,,,,,,,,,,,,,,,,,,,,3,2023-11-28_09h59.02.577,watkins1,2023.2.3,99.73420842380905,24,2023-11-28 09h59.10.717077 +0000,
,,,,,,,,,,,1,0,1,0,,,,,,,,,,,,,291.02086869999766,,,,,,,,,,291.0125587999355,291.5027715000324,,,[],[],,,,,,,,,,,,None,None,,,,,,,,,,Lampe,neu,"['Lampe', 'neu']",restudy,3,,,,,,291.01249219989404,291.01253050006926,"['Eimer', 'Lampe', 'Hut', 'Stift', 'Geige', 'Buch', 'Kamera', 'Socke', 'Schlüssel', 'Würfel', 'Kerze', 'Kiste', 'Rucksack', 'Kette', 'Trommel', 'Brille', 'Blume', 'Vase', 'Schere', 'Tasse', 'Telefon', 'Flasche', 'Tasche', 'Fahrrad', 'Löffel', 'Hammer', 'Ring', 'Jacke', 'Uhr', 'Bürste']",291.50278219999745,291.5055046000052,None,291.50563729996793,297.5080647999421,3,297.5085934998933,297.51119469990954,None,297.5113085999619,,297.512804399943,297.5128166000359,297.5138542999048,5.385945499874651,None,,,,,,,,,,,,,,,,,,,,,,,,,,,,,,,,,,,,,,,,,,,,,,3,2023-11-28_09h59.02.577,watkins1,2023.2.3,99.73420842380905,24,2023-11-28 09h59.10.717077 +0000,
,,,,,,,,,,,2,0,2,0,,,,,,,,,,,,,297.51748639997095,,,,,,,,,,297.51413929997943,298.009953700006,,,[],[],,,,,,,,,,,,None,None,,,,,,,,,,Hut,breit,"['Hut', 'breit']",restudy,3,,,,,,297.51407380006276,297.5141123000067,"['Eimer', 'Lampe', 'Hut', 'Stift', 'Geige', 'Buch', 'Kamera', 'Socke', 'Schlüssel', 'Würfel', 'Kerze', 'Kiste', 'Rucksack', 'Kette', 'Trommel', 'Brille', 'Blume', 'Vase', 'Schere', 'Tasse', 'Telefon', 'Flasche', 'Tasche', 'Fahrrad', 'Löffel', 'Hammer', 'Ring', 'Jacke', 'Uhr', 'Bürste']",298.0099651000928,298.0123916999437,None,298.01252009999007,304.0153294999618,3,304.0156401998829,304.018126900075,None,304.01823700009845,,304.01924129994586,304.019252799917,304.02039989992045,4.400003199931234,None,,,,,,,,,,,,,,,,,,,,,,,,,,,,,,,,,,,,,,,,,,,,,,3,2023-11-28_09h59.02.577,watkins1,2023.2.3,99.73420842380905,24,2023-11-28 09h59.10.717077 +0000,
,,,,,,,,,,,3,0,3,0,,,,,,,,,,,,,304.0248479999136,,,,,,,,,,304.0206790000666,304.5170223999303,,,[],[],,,,,,,,,,,,None,None,,,,,,,,,,Stift,klobig,"['Stift', 'klobig']",restudy,3,,,,,,304.020615800051,304.0206530999858,"['Eimer', 'Lampe', 'Hut', 'Stift', 'Geige', 'Buch', 'Kamera', 'Socke', 'Schlüssel', 'Würfel', 'Kerze', 'Kiste', 'Rucksack', 'Kette', 'Trommel', 'Brille', 'Blume', 'Vase', 'Schere', 'Tasse', 'Telefon', 'Flasche', 'Tasche', 'Fahrrad', 'Löffel', 'Hammer', 'Ring', 'Jacke', 'Uhr', 'Bürste']",304.5170326998923,304.519685999956,None,304.519811199978,310.52076549991034,1,310.52106459997594,310.5238008000888,None,310.5239144000225,,310.52507969993167,310.52509139990434,310.52626940002665,1.3644062001258135,None,,,,,,,,,,,,,,,,,,,,,,,,,,,,,,,,,,,,,,,,,,,,,,3,2023-11-28_09h59.02.577,watkins1,2023.2.3,99.73420842380905,24,2023-11-28 09h59.10.717077 +0000,
,,,,,,,,,,,4,0,4,0,,,,,,,,,,,,,310.53018669993617,,,,,,,,,,310.526553099975,311.02232949994504,,,[],[],,,,,,,,,,,,None,None,,,,,,,,,,Geige,dunkel,"['Geige', 'dunkel']",restudy,3,,,,,,310.5264884000644,310.5265265000053,"['Eimer', 'Lampe', 'Hut', 'Stift', 'Geige', 'Buch', 'Kamera', 'Socke', 'Schlüssel', 'Würfel', 'Kerze', 'Kiste', 'Rucksack', 'Kette', 'Trommel', 'Brille', 'Blume', 'Vase', 'Schere', 'Tasse', 'Telefon', 'Flasche', 'Tasche', 'Fahrrad', 'Löffel', 'Hammer', 'Ring', 'Jacke', 'Uhr', 'Bürste']",311.0223401999101,311.02501560002565,None,311.02513929991983,317.0278545001056,3,317.02814899990335,317.030906500062,None,317.0310184999835,,317.0321833998896,317.0321951000951,317.033377799904,2.5151651999913156,None,,,,,,,,,,,,,,,,,,,,,,,,,,,,,,,,,,,,,,,,,,,,,,3,2023-11-28_09h59.02.577,watkins1,2023.2.3,99.73420842380905,24,2023-11-28 09h59.10.717077 +0000,
,,,,,,,,,,,5,0,5,0,,,,,,,,,,,,,317.037335800007,,,,,,,,,,317.0336639001034,317.52947190008126,,,[],[],,,,,,,,,,,,None,None,,,,,,,,,,Buch,niedlich,"['Buch', 'niedlich']",restudy,3,,,,,,317.03359830006957,317.03363709989935,"['Eimer', 'Lampe', 'Hut', 'Stift', 'Geige', 'Buch', 'Kamera', 'Socke', 'Schlüssel', 'Würfel', 'Kerze', 'Kiste', 'Rucksack', 'Kette', 'Trommel', 'Brille', 'Blume', 'Vase', 'Schere', 'Tasse', 'Telefon', 'Flasche', 'Tasche', 'Fahrrad', 'Löffel', 'Hammer', 'Ring', 'Jacke', 'Uhr', 'Bürste']",317.5294830999337,317.5321494000964,None,317.53227550000884,323.53380890004337,1,323.5341054999735,323.536829699995,None,323.5369432999287,,323.538000700064,323.538012099918,323.5392477000132,1.3041469999589026,None,,,,,,,,,,,,,,,,,,,,,,,,,,,,,,,,,,,,,,,,,,,,,,3,2023-11-28_09h59.02.577,watkins1,2023.2.3,99.73420842380905,24,2023-11-28 09h59.10.717077 +0000,
,,,,,,,,,,,6,0,6,0,,,,,,,,,,,,,323.54327129991725,,,,,,,,,,323.5395343999844,324.0354832999874,,,[],[],,,,,,,,,,,neu,None,None,,,,,,,,,,Kamera,durchsichtig,"['Kamera', 'durchsichtig']",test_adj,3,,,,,,323.5394683999475,323.5395068998914,"['Eimer', 'Lampe', 'Hut', 'Stift', 'Geige', 'Buch', 'Kamera', 'Socke', 'Schlüssel', 'Würfel', 'Kerze', 'Kiste', 'Rucksack', 'Kette', 'Trommel', 'Brille', 'Blume', 'Vase', 'Schere', 'Tasse', 'Telefon', 'Flasche', 'Tasche', 'Fahrrad', 'Löffel', 'Hammer', 'Ring', 'Jacke', 'Uhr', 'Bürste']",324.03549399995245,324.03821970010176,None,324.03834190010093,324.03982360009104,None,324.039936499903,324.0413863998838,None,324.0414948000107,0,330.0436120000668,330.0436259000562,330.04507769993506,,,,,,,,,,,,,,,,,,,,,,,,,,,,,,,,,,,,,,,,,,,,,,,,3,2023-11-28_09h59.02.577,watkins1,2023.2.3,99.73420842380905,24,2023-11-28 09h59.10.717077 +0000,
,,,,,,,,,,,7,0,7,0,,,,,,,,,,,,,330.0534314000979,,,,,,,,,,330.045361999888,330.53551899991,,,[],[],,,,,,,,,,,,None,None,,,,,,,,,,Socke,flauschig,"['Socke', 'flauschig']",restudy,3,,,,,,330.0452946999576,330.0453329999,"['Eimer', 'Lampe', 'Hut', 'Stift', 'Geige', 'Buch', 'Kamera', 'Socke', 'Schlüssel', 'Würfel', 'Kerze', 'Kiste', 'Rucksack', 'Kette', 'Trommel', 'Brille', 'Blume', 'Vase', 'Schere', 'Tasse', 'Telefon', 'Flasche', 'Tasche', 'Fahrrad', 'Löffel', 'Hammer', 'Ring', 'Jacke', 'Uhr', 'Bürste']",330.5355297999922,330.53845179989,None,330.53857699991204,336.5409800999332,3,336.541275100084,336.54401129996404,None,336.5441234000027,,336.5457190000452,336.5457305999007,336.54696749988943,2.5936820001807064,None,,,,,,,,,,,,,,,,,,,,,,,,,,,,,,,,,,,,,,,,,,,,,,3,2023-11-28_09h59.02.577,watkins1,2023.2.3,99.73420842380905,24,2023-11-28 09h59.10.717077 +0000,
,,,,,,,,,,,8,0,8,0,,,,,,,,,,,,,336.5504441000521,,,,,,,,,,336.54724740004167,337.04262480000034,,,[],[],,,,,,,,,,,hässlich,None,None,,,,,,,,,,Schlüssel,hässlich,"['Schlüssel', 'hässlich']",test_adj,3,,,,,,336.54718269989826,336.54722029995173,"['Eimer', 'Lampe', 'Hut', 'Stift', 'Geige', 'Buch', 'Kamera', 'Socke', 'Schlüssel', 'Würfel', 'Kerze', 'Kiste', 'Rucksack', 'Kette', 'Trommel', 'Brille', 'Blume', 'Vase', 'Schere', 'Tasse', 'Telefon', 'Flasche', 'Tasche', 'Fahrrad', 'Löffel', 'Hammer', 'Ring', 'Jacke', 'Uhr', 'Bürste']",337.0426356999669,337.0454730000347,None,337.0455958999228,337.0471042999998,None,337.04721220000647,337.0487619000487,None,337.04887200007215,0,343.0519683000166,343.05198260000907,343.0533616000321,,,,,,,,,,,,,,,,,,,,,,,,,,,,,,,,,,,,,,,,,,,,,,,,3,2023-11-28_09h59.02.577,watkins1,2023.2.3,99.73420842380905,24,2023-11-28 09h59.10.717077 +0000,
,,,,,,,,,,,9,0,9,0,,,,,,,,,,,,,343.0617343999911,,,,,,,,,,343.05364990001544,343.543802900007,,,[],[],,,,,,,,,,,,None,None,,,,,,,,,,Würfel,nass,"['Würfel', 'nass']",test_adj,3,,,,,,343.0535816999618,343.0536213000305,"['Eimer', 'Lampe', 'Hut', 'Stift', 'Geige', 'Buch', 'Kamera', 'Socke', 'Schlüssel', 'Würfel', 'Kerze', 'Kiste', 'Rucksack', 'Kette', 'Trommel', 'Brille', 'Blume', 'Vase', 'Schere', 'Tasse', 'Telefon', 'Flasche', 'Tasche', 'Fahrrad', 'Löffel', 'Hammer', 'Ring', 'Jacke', 'Uhr', 'Bürste']",343.54381370008923,343.5466018000152,None,343.5467292999383,343.54933409998193,None,343.54944400000386,343.552166499896,None,343.55227530002594,0,349.5578773000743,349.5578910000622,349.5590669999365,,,,,,,,,,,,,,,,,,,,,,,,,,,,,,,,,,,,,,,,,,,,,,,,3,2023-11-28_09h59.02.577,watkins1,2023.2.3,99.73420842380905,24,2023-11-28 09h59.10.717077 +0000,
,,,,,,,,,,,10,0,10,0,,,,,,,,,,,,,349.5676921000704,,,,,,,,,,349.559356499929,350.04974339995533,,,[],[],,,,,,,,,,,,None,None,,,,,,,,,,Kerze,glatt,"['Kerze', 'glatt']",restudy,3,,,,,,349.559288199991,349.55932740005665,"['Eimer', 'Lampe', 'Hut', 'Stift', 'Geige', 'Buch', 'Kamera', 'Socke', 'Schlüssel', 'Würfel', 'Kerze', 'Kiste', 'Rucksack', 'Kette', 'Trommel', 'Brille', 'Blume', 'Vase', 'Schere', 'Tasse', 'Telefon', 'Flasche', 'Tasche', 'Fahrrad', 'Löffel', 'Hammer', 'Ring', 'Jacke', 'Uhr', 'Bürste']",350.049753600033,350.05229849996977,None,350.0524216000922,356.06203979998827,3,356.0623274000827,356.0649973999243,None,356.0651082000695,,356.0662690999452,356.06628070003353,356.06743540009484,2.415901399916038,None,,,,,,,,,,,,,,,,,,,,,,,,,,,,,,,,,,,,,,,,,,,,,,3,2023-11-28_09h59.02.577,watkins1,2023.2.3,99.73420842380905,24,2023-11-28 09h59.10.717077 +0000,
,,,,,,,,,,,11,0,11,0,,,,,,,,,,,,,356.07156670000404,,,,,,,,,,356.0677211000584,356.5638198000379,,,[],[],,,,,,,,,,,,None,None,,,,,,,,,,Kiste,blass,"['Kiste', 'blass']",restudy,3,,,,,,356.06765550002456,356.0676939000841,"['Eimer', 'Lampe', 'Hut', 'Stift', 'Geige', 'Buch', 'Kamera', 'Socke', 'Schlüssel', 'Würfel', 'Kerze', 'Kiste', 'Rucksack', 'Kette', 'Trommel', 'Brille', 'Blume', 'Vase', 'Schere', 'Tasse', 'Telefon', 'Flasche', 'Tasche', 'Fahrrad', 'Löffel', 'Hammer', 'Ring', 'Jacke', 'Uhr', 'Bürste']",356.5638300999999,356.5664691000711,None,356.5665919999592,362.5702551000286,1,362.5705530999694,362.57321729999967,None,362.5733284999151,,362.5744978999719,362.5745095999446,362.57567059993744,3.4536414998583496,None,,,,,,,,,,,,,,,,,,,,,,,,,,,,,,,,,,,,,,,,,,,,,,3,2023-11-28_09h59.02.577,watkins1,2023.2.3,99.73420842380905,24,2023-11-28 09h59.10.717077 +0000,
,,,,,,,,,,,12,0,12,0,,,,,,,,,,,,,362.579826900037,,,,,,,,,,362.5759556000121,363.0719331,,,[],[],,,,,,,,,,,gestreift,None,None,,,,,,,,,,Rucksack,gestreift,"['Rucksack', 'gestreift']",test_adj,3,,,,,,362.5758899000939,362.57592880004086,"['Eimer', 'Lampe', 'Hut', 'Stift', 'Geige', 'Buch', 'Kamera', 'Socke', 'Schlüssel', 'Würfel', 'Kerze', 'Kiste', 'Rucksack', 'Kette', 'Trommel', 'Brille', 'Blume', 'Vase', 'Schere', 'Tasse', 'Telefon', 'Flasche', 'Tasche', 'Fahrrad', 'Löffel', 'Hammer', 'Ring', 'Jacke', 'Uhr', 'Bürste']",363.0719437999651,363.0746289999224,None,363.07475679996423,363.0763729000464,None,363.0764796999283,363.077927300008,None,363.07803250011057,0,369.0806287000887,369.0806424000766,369.08201720006764,,,,,,,,,,,,,,,,,,,,,,,,,,,,,,,,,,,,,,,,,,,,,,,,3,2023-11-28_09h59.02.577,watkins1,2023.2.3,99.73420842380905,24,2023-11-28 09h59.10.717077 +0000,
,,,,,,,,,,,13,0,13,0,,,,,,,,,,,,,369.090523699997,,,,,,,,,,369.0823073000647,369.5724210999906,,,[],[],,,,,,,,,,,krumm,None,None,,,,,,,,,,Kette,krumm,"['Kette', 'krumm']",test_adj,3,,,,,,369.0822391998954,369.08227819995955,"['Eimer', 'Lampe', 'Hut', 'Stift', 'Geige', 'Buch', 'Kamera', 'Socke', 'Schlüssel', 'Würfel', 'Kerze', 'Kiste', 'Rucksack', 'Kette', 'Trommel', 'Brille', 'Blume', 'Vase', 'Schere', 'Tasse', 'Telefon', 'Flasche', 'Tasche', 'Fahrrad', 'Löffel', 'Hammer', 'Ring', 'Jacke', 'Uhr', 'Bürste']",369.57243210007437,369.5753039000556,None,369.57542999996804,369.57808710006066,None,369.57819729996845,369.5807827000972,None,369.5808947000187,0,375.58607499999925,375.5860888999887,375.58751949993894,,,,,,,,,,,,,,,,,,,,,,,,,,,,,,,,,,,,,,,,,,,,,,,,3,2023-11-28_09h59.02.577,watkins1,2023.2.3,99.73420842380905,24,2023-11-28 09h59.10.717077 +0000,
,,,,,,,,,,,14,0,14,0,,,,,,,,,,,,,375.5958740999922,,,,,,,,,,375.5878097000532,376.07787779998034,,,[],[],,,,,,,,,,,hübsch,None,None,,,,,,,,,,Trommel,hübsch,"['Trommel', 'hübsch']",test_adj,3,,,,,,375.5877406001091,375.5877809000667,"['Eimer', 'Lampe', 'Hut', 'Stift', 'Geige', 'Buch', 'Kamera', 'Socke', 'Schlüssel', 'Würfel', 'Kerze', 'Kiste', 'Rucksack', 'Kette', 'Trommel', 'Brille', 'Blume', 'Vase', 'Schere', 'Tasse', 'Telefon', 'Flasche', 'Tasche', 'Fahrrad', 'Löffel', 'Hammer', 'Ring', 'Jacke', 'Uhr', 'Bürste']",376.07788789994083,376.08058639988303,None,376.08071079989895,376.08326369989663,None,376.08337279991247,376.0859240000136,None,376.0860321999062,0,382.0909927999601,382.0910066999495,382.09245699993335,,,,,,,,,,,,,,,,,,,,,,,,,,,,,,,,,,,,,,,,,,,,,,,,3,2023-11-28_09h59.02.577,watkins1,2023.2.3,99.73420842380905,24,2023-11-28 09h59.10.717077 +0000,
,,,,,,,,,,,15,0,15,0,,,,,,,,,,,,,382.1007932999637,,,,,,,,,,382.0927516000811,382.5828569000587,,,[],[],,,,,,,,,,,,None,None,,,,,,,,,,Brille,kurz,"['Brille', 'kurz']",restudy,3,,,,,,382.0926804000046,382.0927220999729,"['Eimer', 'Lampe', 'Hut', 'Stift', 'Geige', 'Buch', 'Kamera', 'Socke', 'Schlüssel', 'Würfel', 'Kerze', 'Kiste', 'Rucksack', 'Kette', 'Trommel', 'Brille', 'Blume', 'Vase', 'Schere', 'Tasse', 'Telefon', 'Flasche', 'Tasche', 'Fahrrad', 'Löffel', 'Hammer', 'Ring', 'Jacke', 'Uhr', 'Bürste']",382.58286729990505,382.58556949999183,None,382.58569290000014,388.5869322998915,1,388.58722419990227,388.5901160999201,None,388.5902414000593,,388.5917162001133,388.5917275000829,388.5927633000538,3.2107166000641882,None,,,,,,,,,,,,,,,,,,,,,,,,,,,,,,,,,,,,,,,,,,,,,,3,2023-11-28_09h59.02.577,watkins1,2023.2.3,99.73420842380905,24,2023-11-28 09h59.10.717077 +0000,
,,,,,,,,,,,16,0,16,0,,,,,,,,,,,,,388.59632809995674,,,,,,,,,,388.59304070007056,389.0886468999088,,,[],[],,,,,,,,,,,,None,None,,,,,,,,,,Blume,kaputt,"['Blume', 'kaputt']",restudy,3,,,,,,388.5929769000504,388.5930141999852,"['Eimer', 'Lampe', 'Hut', 'Stift', 'Geige', 'Buch', 'Kamera', 'Socke', 'Schlüssel', 'Würfel', 'Kerze', 'Kiste', 'Rucksack', 'Kette', 'Trommel', 'Brille', 'Blume', 'Vase', 'Schere', 'Tasse', 'Telefon', 'Flasche', 'Tasche', 'Fahrrad', 'Löffel', 'Hammer', 'Ring', 'Jacke', 'Uhr', 'Bürste']",389.0886572001036,389.0912194000557,None,389.09134400007315,395.09519720007665,1,395.0954962000251,395.0982747999951,None,395.0983881999273,,395.0995704000816,395.0995819000527,395.1007743999362,2.008917300030589,None,,,,,,,,,,,,,,,,,,,,,,,,,,,,,,,,,,,,,,,,,,,,,,3,2023-11-28_09h59.02.577,watkins1,2023.2.3,99.73420842380905,24,2023-11-28 09h59.10.717077 +0000,
,,,,,,,,,,,17,0,17,0,,,,,,,,,,,,,395.10471779992804,,,,,,,,,,395.1010608000215,395.5968905000482,,,[],[],,,,,,,,,,,neu,None,None,,,,,,,,,,Vase,schmutzig,"['Vase', 'schmutzig']",test_adj,3,,,,,,395.100993799977,395.10103329992853,"['Eimer', 'Lampe', 'Hut', 'Stift', 'Geige', 'Buch', 'Kamera', 'Socke', 'Schlüssel', 'Würfel', 'Kerze', 'Kiste', 'Rucksack', 'Kette', 'Trommel', 'Brille', 'Blume', 'Vase', 'Schere', 'Tasse', 'Telefon', 'Flasche', 'Tasche', 'Fahrrad', 'Löffel', 'Hammer', 'Ring', 'Jacke', 'Uhr', 'Bürste']",395.5969020000193,395.5994933999609,None,395.59962059999816,395.6009219000116,None,395.6010300000198,395.6023267998826,None,395.6024342000019,0,401.6039420000743,401.6039573000744,401.6053557000123,,,,,,,,,,,,,,,,,,,,,,,,,,,,,,,,,,,,,,,,,,,,,,,,3,2023-11-28_09h59.02.577,watkins1,2023.2.3,99.73420842380905,24,2023-11-28 09h59.10.717077 +0000,
,,,,,,,,,,,18,0,18,0,,,,,,,,,,,,,401.61375069990754,,,,,,,,,,401.60564330010675,402.09578699991107,,,[],[],,,,,,,,,,,,None,None,,,,,,,,,,Schere,biegsam,"['Schere', 'biegsam']",restudy,3,,,,,,401.6055735000409,401.60561250010505,"['Eimer', 'Lampe', 'Hut', 'Stift', 'Geige', 'Buch', 'Kamera', 'Socke', 'Schlüssel', 'Würfel', 'Kerze', 'Kiste', 'Rucksack', 'Kette', 'Trommel', 'Brille', 'Blume', 'Vase', 'Schere', 'Tasse', 'Telefon', 'Flasche', 'Tasche', 'Fahrrad', 'Löffel', 'Hammer', 'Ring', 'Jacke', 'Uhr', 'Bürste']",402.0957973001059,402.0986558001023,None,402.09877999988385,408.1047783999238,1,408.1050708000548,408.10780779994093,None,408.10792160010897,,408.1095229999628,408.10953469993547,408.11071219993755,3.23337689996697,None,,,,,,,,,,,,,,,,,,,,,,,,,,,,,,,,,,,,,,,,,,,,,,3,2023-11-28_09h59.02.577,watkins1,2023.2.3,99.73420842380905,24,2023-11-28 09h59.10.717077 +0000,
,,,,,,,,,,,19,0,19,0,,,,,,,,,,,,,408.114298600005,,,,,,,,,,408.1109939001035,408.6063427000772,,,[],[],,,,,,,,,,,robust,None,None,,,,,,,,,,Tasse,robust,"['Tasse', 'robust']",test_adj,3,,,,,,408.11092830006965,408.1109674000181,"['Eimer', 'Lampe', 'Hut', 'Stift', 'Geige', 'Buch', 'Kamera', 'Socke', 'Schlüssel', 'Würfel', 'Kerze', 'Kiste', 'Rucksack', 'Kette', 'Trommel', 'Brille', 'Blume', 'Vase', 'Schere', 'Tasse', 'Telefon', 'Flasche', 'Tasche', 'Fahrrad', 'Löffel', 'Hammer', 'Ring', 'Jacke', 'Uhr', 'Bürste']",408.6063534999266,408.6090782000683,None,408.60920569999143,408.6106467000209,None,408.6107556000352,408.61219569994137,None,408.6123055999633,0,414.61942870006897,414.6194428000599,414.6207413999364,,,,,,,,,,,,,,,,,,,,,,,,,,,,,,,,,,,,,,,,,,,,,,,,3,2023-11-28_09h59.02.577,watkins1,2023.2.3,99.73420842380905,24,2023-11-28 09h59.10.717077 +0000,
,,,,,,,,,,,20,0,20,0,,,,,,,,,,,,,414.6291910998989,,,,,,,,,,414.62102900003083,415.111319599906,,,[],[],,,,,,,,,,,bunt,None,None,,,,,,,,,,Telefon,bunt,"['Telefon', 'bunt']",test_adj,3,,,,,,414.6209613000974,414.6209998000413,"['Eimer', 'Lampe', 'Hut', 'Stift', 'Geige', 'Buch', 'Kamera', 'Socke', 'Schlüssel', 'Würfel', 'Kerze', 'Kiste', 'Rucksack', 'Kette', 'Trommel', 'Brille', 'Blume', 'Vase', 'Schere', 'Tasse', 'Telefon', 'Flasche', 'Tasche', 'Fahrrad', 'Löffel', 'Hammer', 'Ring', 'Jacke', 'Uhr', 'Bürste']",415.1113303001039,415.1140123999212,None,415.1141369000543,415.1166717999149,None,415.1167802999262,415.119328700006,None,415.1194364998955,0,421.1247020000592,421.12471579993144,421.1258906000294,,,,,,,,,,,,,,,,,,,,,,,,,,,,,,,,,,,,,,,,,,,,,,,,3,2023-11-28_09h59.02.577,watkins1,2023.2.3,99.73420842380905,24,2023-11-28 09h59.10.717077 +0000,
,,,,,,,,,,,21,0,21,0,,,,,,,,,,,,,421.1344522999134,,,,,,,,,,421.1261783000082,421.6165428000968,,,[],[],,,,,,,,,,,elegant,None,None,,,,,,,,,,Flasche,elegant,"['Flasche', 'elegant']",test_adj,3,,,,,,421.12611060007475,421.12614959990606,"['Eimer', 'Lampe', 'Hut', 'Stift', 'Geige', 'Buch', 'Kamera', 'Socke', 'Schlüssel', 'Würfel', 'Kerze', 'Kiste', 'Rucksack', 'Kette', 'Trommel', 'Brille', 'Blume', 'Vase', 'Schere', 'Tasse', 'Telefon', 'Flasche', 'Tasche', 'Fahrrad', 'Löffel', 'Hammer', 'Ring', 'Jacke', 'Uhr', 'Bürste']",421.6165533999447,421.6191187000368,None,421.61924079991877,421.6217545000836,None,421.6218644999899,421.6242891999427,None,421.62439780007116,0,427.62893999996595,427.6289538999554,427.63028199994005,,,,,,,,,,,,,,,,,,,,,,,,,,,,,,,,,,,,,,,,,,,,,,,,3,2023-11-28_09h59.02.577,watkins1,2023.2.3,99.73420842380905,24,2023-11-28 09h59.10.717077 +0000,
,,,,,,,,,,,22,0,22,0,,,,,,,,,,,,,427.63874189998023,,,,,,,,,,427.63057049992494,428.12071119993925,,,[],[],,,,,,,,,,,gestreift,None,None,,,,,,,,,,Tasche,kratzig,"['Tasche', 'kratzig']",test_adj,3,,,,,,427.6305015999824,427.63054189994,"['Eimer', 'Lampe', 'Hut', 'Stift', 'Geige', 'Buch', 'Kamera', 'Socke', 'Schlüssel', 'Würfel', 'Kerze', 'Kiste', 'Rucksack', 'Kette', 'Trommel', 'Brille', 'Blume', 'Vase', 'Schere', 'Tasse', 'Telefon', 'Flasche', 'Tasche', 'Fahrrad', 'Löffel', 'Hammer', 'Ring', 'Jacke', 'Uhr', 'Bürste']",428.1207216999028,428.12343119992875,None,428.12355670006946,428.1261070999317,None,428.12621670006774,428.12876249989495,None,428.1288723999169,0,434.13360509998165,434.1336199999787,434.135084599955,,,,,,,,,,,,,,,,,,,,,,,,,,,,,,,,,,,,,,,,,,,,,,,,3,2023-11-28_09h59.02.577,watkins1,2023.2.3,99.73420842380905,24,2023-11-28 09h59.10.717077 +0000,
,,,,,,,,,,,23,0,23,0,,,,,,,,,,,,,434.14351249998435,,,,,,,,,,434.1353732999414,434.62538399989717,,,[],[],,,,,,,,,,,,None,None,,,,,,,,,,Fahrrad,strahlend,"['Fahrrad', 'strahlend']",restudy,3,,,,,,434.1353019999806,434.1353438999504,"['Eimer', 'Lampe', 'Hut', 'Stift', 'Geige', 'Buch', 'Kamera', 'Socke', 'Schlüssel', 'Würfel', 'Kerze', 'Kiste', 'Rucksack', 'Kette', 'Trommel', 'Brille', 'Blume', 'Vase', 'Schere', 'Tasse', 'Telefon', 'Flasche', 'Tasche', 'Fahrrad', 'Löffel', 'Hammer', 'Ring', 'Jacke', 'Uhr', 'Bürste']",434.6253947999794,434.62810579990037,None,434.6282281000167,440.63359209988266,1,440.6338804999832,440.6367293000221,None,440.63684180006385,,440.6383386000525,440.6383499999065,440.6396023000125,2.8319819001480937,None,,,,,,,,,,,,,,,,,,,,,,,,,,,,,,,,,,,,,,,,,,,,,,3,2023-11-28_09h59.02.577,watkins1,2023.2.3,99.73420842380905,24,2023-11-28 09h59.10.717077 +0000,
,,,,,,,,,,,24,0,24,0,,,,,,,,,,,,,440.6431678000372,,,,,,,,,,440.6398853000719,441.13531869999133,,,[],[],,,,,,,,,,,,None,None,,,,,,,,,,Löffel,zart,"['Löffel', 'zart']",test_adj,3,,,,,,440.639819300035,440.6398581000976,"['Eimer', 'Lampe', 'Hut', 'Stift', 'Geige', 'Buch', 'Kamera', 'Socke', 'Schlüssel', 'Würfel', 'Kerze', 'Kiste', 'Rucksack', 'Kette', 'Trommel', 'Brille', 'Blume', 'Vase', 'Schere', 'Tasse', 'Telefon', 'Flasche', 'Tasche', 'Fahrrad', 'Löffel', 'Hammer', 'Ring', 'Jacke', 'Uhr', 'Bürste']",441.13532899995334,441.1380473000463,None,441.1381713000592,441.13960959995165,None,441.139718899969,441.14117780001834,None,441.14128650003113,0,447.14350560004823,447.1435191000346,447.1446863000747,,,,,,,,,,,,,,,,,,,,,,,,,,,,,,,,,,,,,,,,,,,,,,,,3,2023-11-28_09h59.02.577,watkins1,2023.2.3,99.73420842380905,24,2023-11-28 09h59.10.717077 +0000,
,,,,,,,,,,,25,0,25,0,,,,,,,,,,,,,447.15326260006987,,,,,,,,,,447.14497020002455,447.6352635000367,,,[],[],,,,,,,,,,,,None,None,,,,,,,,,,Hammer,schwer,"['Hammer', 'schwer']",restudy,3,,,,,,447.1449039999861,447.1449418000411,"['Eimer', 'Lampe', 'Hut', 'Stift', 'Geige', 'Buch', 'Kamera', 'Socke', 'Schlüssel', 'Würfel', 'Kerze', 'Kiste', 'Rucksack', 'Kette', 'Trommel', 'Brille', 'Blume', 'Vase', 'Schere', 'Tasse', 'Telefon', 'Flasche', 'Tasche', 'Fahrrad', 'Löffel', 'Hammer', 'Ring', 'Jacke', 'Uhr', 'Bürste']",447.63527440000325,447.63796079996973,None,447.6380859001074,453.6390748000704,3,453.63936619996093,453.6420559999533,None,453.64216740010306,,453.6434126000386,453.64342430001125,453.6448621999007,2.0064501999877393,None,,,,,,,,,,,,,,,,,,,,,,,,,,,,,,,,,,,,,,,,,,,,,,3,2023-11-28_09h59.02.577,watkins1,2023.2.3,99.73420842380905,24,2023-11-28 09h59.10.717077 +0000,
,,,,,,,,,,,26,0,26,0,,,,,,,,,,,,,453.64854139997624,,,,,,,,,,453.64522710000165,454.14054000005126,,,[],[],,,,,,,,,,,gepunktet,None,None,,,,,,,,,,Ring,gepunktet,"['Ring', 'gepunktet']",test_adj,3,,,,,,453.6451604999602,453.64519959990866,"['Eimer', 'Lampe', 'Hut', 'Stift', 'Geige', 'Buch', 'Kamera', 'Socke', 'Schlüssel', 'Würfel', 'Kerze', 'Kiste', 'Rucksack', 'Kette', 'Trommel', 'Brille', 'Blume', 'Vase', 'Schere', 'Tasse', 'Telefon', 'Flasche', 'Tasche', 'Fahrrad', 'Löffel', 'Hammer', 'Ring', 'Jacke', 'Uhr', 'Bürste']",454.14055079990067,454.14309550006874,None,454.1432195000816,454.14452129998244,None,454.1446312998887,454.14592180005275,None,454.1460301000625,0,460.1477051000111,460.1477192998864,460.1491016999353,,,,,,,,,,,,,,,,,,,,,,,,,,,,,,,,,,,,,,,,,,,,,,,,3,2023-11-28_09h59.02.577,watkins1,2023.2.3,99.73420842380905,24,2023-11-28 09h59.10.717077 +0000,
,,,,,,,,,,,27,0,27,0,,,,,,,,,,,,,460.15744489990175,,,,,,,,,,460.14939210005105,460.6395552000031,,,[],[],,,,,,,,,,,,None,None,,,,,,,,,,Jacke,hohl,"['Jacke', 'hohl']",restudy,3,,,,,,460.14932329999283,460.14936279994436,"['Eimer', 'Lampe', 'Hut', 'Stift', 'Geige', 'Buch', 'Kamera', 'Socke', 'Schlüssel', 'Würfel', 'Kerze', 'Kiste', 'Rucksack', 'Kette', 'Trommel', 'Brille', 'Blume', 'Vase', 'Schere', 'Tasse', 'Telefon', 'Flasche', 'Tasche', 'Fahrrad', 'Löffel', 'Hammer', 'Ring', 'Jacke', 'Uhr', 'Bürste']",460.6395668000914,460.6422963999212,None,460.64242299995385,466.6430359000806,1,466.6433300001081,466.6459087000694,None,466.64602470002137,,466.6474951999262,466.6475068000145,466.6485437999945,1.5939511999022216,None,,,,,,,,,,,,,,,,,,,,,,,,,,,,,,,,,,,,,,,,,,,,,,3,2023-11-28_09h59.02.577,watkins1,2023.2.3,99.73420842380905,24,2023-11-28 09h59.10.717077 +0000,
,,,,,,,,,,,28,0,28,0,,,,,,,,,,,,,466.65261109988205,,,,,,,,,,466.64882669993676,467.14473109995015,,,[],[],,,,,,,,,,,,None,None,,,,,,,,,,Uhr,glänzend,"['Uhr', 'glänzend']",restudy,3,,,,,,466.6487612000201,466.6487998999655,"['Eimer', 'Lampe', 'Hut', 'Stift', 'Geige', 'Buch', 'Kamera', 'Socke', 'Schlüssel', 'Würfel', 'Kerze', 'Kiste', 'Rucksack', 'Kette', 'Trommel', 'Brille', 'Blume', 'Vase', 'Schere', 'Tasse', 'Telefon', 'Flasche', 'Tasche', 'Fahrrad', 'Löffel', 'Hammer', 'Ring', 'Jacke', 'Uhr', 'Bürste']",467.1447415999137,467.1471086998936,None,467.147231800016,473.15286780009046,3,473.15315679996274,473.15579400002025,None,473.1559065999463,,473.15693109994754,473.15694299992174,473.158153800061,1.6570929998997599,None,,,,,,,,,,,,,,,,,,,,,,,,,,,,,,,,,,,,,,,,,,,,,,3,2023-11-28_09h59.02.577,watkins1,2023.2.3,99.73420842380905,24,2023-11-28 09h59.10.717077 +0000,
,,,,,,,,,,,29,0,29,0,,,,,,,,,,,,,473.16230969992466,,,,,,,,,,473.1584363998845,473.65444829990156,,,[],[],,,,,,,,,,,dick,None,None,,,,,,,,,,Bürste,dick,"['Bürste', 'dick']",test_adj,3,,,,,,473.1583706999663,473.1584091000259,"['Eimer', 'Lampe', 'Hut', 'Stift', 'Geige', 'Buch', 'Kamera', 'Socke', 'Schlüssel', 'Würfel', 'Kerze', 'Kiste', 'Rucksack', 'Kette', 'Trommel', 'Brille', 'Blume', 'Vase', 'Schere', 'Tasse', 'Telefon', 'Flasche', 'Tasche', 'Fahrrad', 'Löffel', 'Hammer', 'Ring', 'Jacke', 'Uhr', 'Bürste']",473.6544592999853,473.65717529994436,None,473.6572998999618,473.6587340000551,None,473.65884290006943,473.66027390002273,None,473.6603814000264,0,479.66515209991485,479.6651653998997,479.6663063999731,,,,,,,,,,,,,,,,,,,,,,,,,,,,,,,,,,,,,,,,,,,,,,,,3,2023-11-28_09h59.02.577,watkins1,2023.2.3,99.73420842380905,24,2023-11-28 09h59.10.717077 +0000,
,,,,,,,,,,,,,,,,,,,,,,,,,,,,,,,,,,,,,,,,,,,,,,,,,,,,,,,,,,,,,,,,,,,,,3,,,,,,,,,,,,,,,,,,,,,,,,,,,,,,,,,,,,,,,,,,,,,,,,,,,,,,,,,,,,,,,,,,,,,,3,2023-11-28_09h59.02.577,watkins1,2023.2.3,99.73420842380905,24,2023-11-28 09h59.10.717077 +0000,
(40 : 5) + 8 = 15 ,Incorrect,button_incorrect,,,,,,,,,,,,,0,0,0,7,,,,,,,,,500.15276529989205,,,,,,,,499.1057909000665,500.10966180008836,,,,,['button_incorrect'],[4.413342900108546],,,,,,,,,,,,,,,,,,,,,,,,,,distractorTask,3,,,,,,,,,,,,,,,,,,,,,,,,,500.1347519000992,500.15276529989205,504.5532698999159,[-0.36574074074074076],[-0.3925925925925926],[1],[0],[0],[4.413342900108546],['button_incorrect'],504.55395979993045,505.5569317000918,,,,,,,,,,,,,,,,,,,,,,,,,,,,,,,,,,3,2023-11-28_09h59.02.577,watkins1,2023.2.3,99.73420842380905,24,2023-11-28 09h59.10.717077 +0000,
(28 : 7) - 3 = 1 ,Correct,button_correct,,,,,,,,,,,,,0,1,1,0,,,,,,,,,505.5668617999181,,,,,,,,,,,,,,['button_correct'],"[14.788777599809691, 15.281328900018707]",,,,,,,,,,,,,,,,,,,,,,,,,,distractorTask,3,,,,,,,,,,,,,,,,,,,,,,,,,505.55712789995596,505.5668617999181,520.8413732000627,"[0.42685185185185187, 0.4064814814814815]","[-0.4, -0.3990740740740741]","[1, 1]","[0, 0]","[0, 0]","[14.788777599809691, 15.281328900018707]",['button_correct'],520.8418101000134,521.8444483999629,,,,,,,,,,,,,,,,,,,,,,,,,,,,,,,,,,3,2023-11-28_09h59.02.577,watkins1,2023.2.3,99.73420842380905,24,2023-11-28 09h59.10.717077 +0000,
(2 x 5) + 3 = 13 ,Correct,button_correct,,,,,,,,,,,,,0,2,2,2,,,,,,,,,521.8545361000579,,,,,,,,,,,,,,['button_correct'],[3.2007160000503063],,,,,,,,,,,,,,,,,,,,,,,,,,distractorTask,3,,,,,,,,,,,,,,,,,,,,,,,,,521.8446396000218,521.8545361000579,525.0480347000994,[0.41574074074074074],[-0.37962962962962965],[1],[0],[0],[3.2007160000503063],['button_correct'],525.0484098999295,526.0524846999906,,,,,,,,,,,,,,,,,,,,,,,,,,,,,,,,,,3,2023-11-28_09h59.02.577,watkins1,2023.2.3,99.73420842380905,24,2023-11-28 09h59.10.717077 +0000,
(6 x 3) + 10 = 27 ,Incorrect,button_incorrect,,,,,,,,,,,,,0,3,3,8,,,,,,,,,526.0625362999272,,,,,,,,,,,,,,['button_incorrect'],[3.522821299964562],,,,,,,,,,,,,,,,,,,,,,,,,,distractorTask,3,,,,,,,,,,,,,,,,,,,,,,,,,526.0526757999323,526.0625362999272,529.5777477000374,[-0.33796296296296297],[-0.412962962962963],[1],[0],[0],[3.522821299964562],['button_incorrect'],529.5781266998965,530.5813114999328,,,,,,,,,,,,,,,,,,,,,,,,,,,,,,,,,,3,2023-11-28_09h59.02.577,watkins1,2023.2.3,99.73420842380905,24,2023-11-28 09h59.10.717077 +0000,
(9 x 5) - 9 = 36 ,Correct,button_correct,,,,,,,,,,,,,0,4,4,4,,,,,,,,,530.591250800062,,,,,,,,,,,,,,['button_correct'],[3.733597100013867],,,,,,,,,,,,,,,,,,,,,,,,,,distractorTask,3,,,,,,,,,,,,,,,,,,,,,,,,,530.5815004000906,530.591250800062,534.3177179999184,[0.3907407407407407],[-0.4148148148148148],[1],[0],[0],[3.733597100013867],['button_correct'],534.3180972998962,535.3213098000269,,,,,,,,,,,,,,,,,,,,,,,,,,,,,,,,,,3,2023-11-28_09h59.02.577,watkins1,2023.2.3,99.73420842380905,24,2023-11-28 09h59.10.717077 +0000,
(25 : 5) + 5 = 9 ,Incorrect,button_incorrect,,,,,,,,,,,,,0,5,5,6,,,,,,,,,535.3312377000693,,,,,,,,,,,,,,['button_incorrect'],[2.7600404999684542],,,,,,,,,,,,,,,,,,,,,,,,,,distractorTask,3,,,,,,,,,,,,,,,,,,,,,,,,,535.3215008000843,535.3312377000693,538.0832481000107,[-0.3148148148148148],[-0.3990740740740741],[1],[0],[0],[2.7600404999684542],['button_incorrect'],538.0836253000889,539.0869469000027,,,,,,,,,,,,,,,,,,,,,,,,,,,,,,,,,,3,2023-11-28_09h59.02.577,watkins1,2023.2.3,99.73420842380905,24,2023-11-28 09h59.10.717077 +0000,
(80 : 10) + 9 = 17 ,Correct,button_correct,,,,,,,,,,,,,0,6,6,3,,,,,,,,,539.0968937999569,,,,,,,,,,,,,,['button_correct'],[3.301993800094351],,,,,,,,,,,,,,,,,,,,,,,,,,distractorTask,3,,,,,,,,,,,,,,,,,,,,,,,,,539.0871373000555,539.0968937999569,542.3912557999138,[0.31851851851851853],[-0.387037037037037],[1],[0],[0],[3.301993800094351],['button_correct'],542.3916354000103,543.394728000043,,,,,,,,,,,,,,,,,,,,,,,,,,,,,,,,,,3,2023-11-28_09h59.02.577,watkins1,2023.2.3,99.73420842380905,24,2023-11-28 09h59.10.717077 +0000,
(4 : 2) + 4 = 6 ,Correct,button_correct,,,,,,,,,,,,,0,7,7,1,,,,,,,,,543.4048208000604,,,,,,,,,,,,,,['button_correct'],[3.0714455998968333],,,,,,,,,,,,,,,,,,,,,,,,,,distractorTask,3,,,,,,,,,,,,,,,,,,,,,,,,,543.3949154000729,543.4048208000604,546.468030200107,[0.32037037037037036],[-0.4009259259259259],[1],[0],[0],[3.0714455998968333],['button_correct'],546.4684017999098,547.4715513000265,,,,,,,,,,,,,,,,,,,,,,,,,,,,,,,,,,3,2023-11-28_09h59.02.577,watkins1,2023.2.3,99.73420842380905,24,2023-11-28 09h59.10.717077 +0000,
(54 : 6) - 10 = 0 ,Incorrect,button_incorrect,,,,,,,,,,,,,0,8,8,5,,,,,,,,,547.4816266999114,,,,,,,,,,,,,,['button_incorrect'],[2.901675600092858],,,,,,,,,,,,,,,,,,,,,,,,,,distractorTask,3,,,,,,,,,,,,,,,,,,,,,,,,,547.4717421000823,547.4816266999114,550.3751564999111,[-0.3537037037037037],[-0.37777777777777777],[1],[0],[0],[2.901675600092858],['button_incorrect'],550.3755296999589,551.3793840000872,,,,,,,,,,,,,,,,,,,,,,,,,,,,,,,,,,3,2023-11-28_09h59.02.577,watkins1,2023.2.3,99.73420842380905,24,2023-11-28 09h59.10.717077 +0000,
(7 x 6) + 9 = 48 ,Incorrect,button_incorrect,,,,,,,,,,,,,0,9,9,9,,,,,,,,,551.3893271998968,,,,,,,,,,,,,,['button_incorrect'],[10.392416199902073],,,,,,,,,,,,,,,,,,,,,,,,,,distractorTask,3,,,,,,,,,,,,,,,,,,,,,,,,,551.3795708999969,551.3893271998968,561.7737018999178,[-0.3175925925925926],[-0.39166666666666666],[1],[0],[0],[10.392416199902073],['button_incorrect'],561.7741183000617,562.7773092999123,,,,,,,,,,,,,,,,,,,,,,,,,,,,,,,,,,3,2023-11-28_09h59.02.577,watkins1,2023.2.3,99.73420842380905,24,2023-11-28 09h59.10.717077 +0000,
,,,,,,,,,,,,,,,,,,,,,,,,,,,,,,,,,,,,,,,,,,,,,,,,,,,,,,,,,,,,,,,,,,,,,3,,,,,,,,,,,,,,,,,,,,,,,,,,,,,,,,,,,,,,,,,,,,,,,,,,,,,,,,,,,,,,,,,,,,,,3,2023-11-28_09h59.02.577,watkins1,2023.2.3,99.73420842380905,24,2023-11-28 09h59.10.717077 +0000,
,,,,,,,,,,,,,,,,,,,0,0,0,0,,,,,581.9239415000193,,,,,,,,,,,,,,schön,27.068272900069132,,,,,,,,,,,,15.646318000042811,18.951142699923366,,,,,,,,,,,,,freeRecallSub,3,,,,,,,,,,,,,,,,,,,,,,,,,,,,,,,,,,,,,581.9152136999182,581.9239415000193,581.9239415000193,608.999367200071,return,27.068272900069132,None,schön,"[-0.02962962962962963, -0.5472222222222223, 0.06018518518518518]","[0.041666666666666664, 0.09074074074074075, 0.03981481481481482]","[1, 1, 1]","[0, 0, 0]","[0, 0, 0]","[3.9659909000620246, 7.098279500147328, 8.253220000071451]",[],,,,,,,,,,,,,,,,,,,3,2023-11-28_09h59.02.577,watkins1,2023.2.3,99.73420842380905,24,2023-11-28 09h59.10.717077 +0000,
,,,,,,,,,,,,,,,,,,,1,0,1,0,,,,,609.0116721000522,,,,,,,,,,,,,,gestreift,8.780512300087139,,,,,,,,,,,,6.479074800154194,None,,,,,,,,,,,,,freeRecallSub,3,,,,,,,,,,,,,,,,,,,,,,,,,,,,,,,,,,,,,609.0012207000982,609.0116721000522,609.0116721000522,617.7998826999683,return,8.780512300087139,None,gestreift,[],[],[],[],[],[],[],,,,,,,,,,,,,,,,,,,3,2023-11-28_09h59.02.577,watkins1,2023.2.3,99.73420842380905,24,2023-11-28 09h59.10.717077 +0000,
,,,,,,,,,,,,,,,,,,,2,0,2,0,,,,,617.81081299996,,,,,,,,,,,,,,gepunktet,5.037370899925008,,,,,,,,,,,,2.399938700022176,None,,,,,,,,,,,,,freeRecallSub,3,,,,,,,,,,,,,,,,,,,,,,,,,,,,,,,,,,,,,617.8011350000743,617.81081299996,617.81081299996,622.8520762999542,return,5.037370899925008,None,gepunktet,[],[],[],[],[],[],[],,,,,,,,,,,,,,,,,,,3,2023-11-28_09h59.02.577,watkins1,2023.2.3,99.73420842380905,24,2023-11-28 09h59.10.717077 +0000,
,,,,,,,,,,,,,,,,,,,3,0,3,0,,,,,622.862992899958,,,,,,,,,,,,,,dick,5.9691892000846565,,,,,,,,,,,,5.101215600036085,None,,,,,,,,,,,,,freeRecallSub,3,,,,,,,,,,,,,,,,,,,,,,,,,,,,,,,,,,,,,622.8533338999841,622.862992899958,622.862992899958,628.8383192000911,return,5.9691892000846565,None,dick,[],[],[],[],[],[],[],,,,,,,,,,,,,,,,,,,3,2023-11-28_09h59.02.577,watkins1,2023.2.3,99.73420842380905,24,2023-11-28 09h59.10.717077 +0000,
,,,,,,,,,,,,,,,,,,,4,0,4,0,,,,,628.8490172999445,,,,,,,,,,,,,,hässlich,2.911025899928063,,,,,,,,,,,,1.4559856997802854,None,,,,,,,,,,,,,freeRecallSub,3,,,,,,,,,,,,,,,,,,,,,,,,,,,,,,,,,,,,,628.8395434000995,628.8490172999445,628.8490172999445,631.7616409999318,return,2.911025899928063,None,hässlich,[],[],[],[],[],[],[],,,,,,,,,,,,,,,,,,,3,2023-11-28_09h59.02.577,watkins1,2023.2.3,99.73420842380905,24,2023-11-28 09h59.10.717077 +0000,
,,,,,,,,,,,,,,,,,,,5,0,5,0,,,,,631.7730181999505,,,,,,,,,,,,,,krumm,1.0592175000347197,,,,,,,,,,,,0.3125383001752198,None,,,,,,,,,,,,,freeRecallSub,3,,,,,,,,,,,,,,,,,,,,,,,,,,,,,,,,,,,,,631.762890700018,631.7730181999505,631.7730181999505,632.8386657000519,return,1.0592175000347197,None,krumm,[],[],[],[],[],[],[],,,,,,,,,,,,,,,,,,,3,2023-11-28_09h59.02.577,watkins1,2023.2.3,99.73420842380905,24,2023-11-28 09h59.10.717077 +0000,
,,,,,,,,,,,,,,,,,,,6,0,6,0,,,,,632.8499878000002,,,,,,,,,,,,,,neu,0.9821411001030356,,,,,,,,,,,,0.4829921000637114,None,,,,,,,,,,,,,freeRecallSub,3,,,,,,,,,,,,,,,,,,,,,,,,,,,,,,,,,,,,,632.8399121998809,632.8499878000002,632.8499878000002,633.8350947999861,return,0.9821411001030356,None,neu,[],[],[],[],[],[],[],,,,,,,,,,,,,,,,,,,3,2023-11-28_09h59.02.577,watkins1,2023.2.3,99.73420842380905,24,2023-11-28 09h59.10.717077 +0000,
,,,,,,,,,,,,,,,,,,,7,0,7,0,,,,,633.8462082000915,,,,,,,,,,,,,,blass,21.737948699854314,,,,,,,,,,,,18.096580900019035,None,,,,,,,,,,,,,freeRecallSub,3,,,,,,,,,,,,,,,,,,,,,,,,,,,,,,,,,,,,,633.8363550000358,633.8462082000915,633.8462082000915,655.5890248001087,return,21.737948699854314,None,blass,[],[],[],[],[],[],[],,,,,,,,,,,,,,,,,,,3,2023-11-28_09h59.02.577,watkins1,2023.2.3,99.73420842380905,24,2023-11-28 09h59.10.717077 +0000,
,,,,,,,,,,,,,,,,,,,8,0,8,0,,,,,655.6007916000672,,,,,,,,,,,,,,bunt,12.119353799847886,,,,,,,,,,,,10.490210500080138,None,,,,,,,,,,,,,freeRecallSub,3,,,,,,,,,,,,,,,,,,,,,,,,,,,,,,,,,,,,,655.5902799998876,655.6007916000672,655.6007916000672,667.7276512000244,return,12.119353799847886,None,bunt,[],[],[],[],[],[],[],,,,,,,,,,,,,,,,,,,3,2023-11-28_09h59.02.577,watkins1,2023.2.3,99.73420842380905,24,2023-11-28 09h59.10.717077 +0000,
,,,,,,,,,,,,,,,,,,,9,0,9,0,,,,,667.7393636000343,,,,,,,,,,,,,,elegant,10.988741799956188,,,,,,,,,,,,9.431387400021777,None,,,,,,,,,,,,,freeRecallSub,3,,,,,,,,,,,,,,,,,,,,,,,,,,,,,,,,,,,,,667.7289096000604,667.7393636000343,667.7393636000343,678.7367374999449,return,10.988741799956188,None,elegant,[],[],[],[],[],[],[],,,,,,,,,,,,,,,,,,,3,2023-11-28_09h59.02.577,watkins1,2023.2.3,99.73420842380905,24,2023-11-28 09h59.10.717077 +0000,
,,,,,,,,,,,,,,,,,,,10,0,10,0,,,,,678.7485416999552,,,,,,,,,,,,,,robust,7.4356668998952955,,,,,,,,,,,,5.494368600193411,None,,,,,,,,,,,,,freeRecallSub,3,,,,,,,,,,,,,,,,,,,,,,,,,,,,,,,,,,,,,678.7379866999108,678.7485416999552,678.7485416999552,686.1905513000675,return,7.4356668998952955,None,robust,[],[],[],[],[],[],[],,,,,,,,,,,,,,,,,,,3,2023-11-28_09h59.02.577,watkins1,2023.2.3,99.73420842380905,24,2023-11-28 09h59.10.717077 +0000,
,,,,,,,,,,,,,,,,,,,11,0,11,0,,,,,686.2036389000714,,,,,,,,,,,,,,hohl,14.10842249984853,,,,,,,,,,,,13.239293800201267,None,,,,,,,,,,,,,freeRecallSub,3,,,,,,,,,,,,,,,,,,,,,,,,,,,,,,,,,,,,,686.1918198999483,686.2036389000714,686.2036389000714,700.315008000005,return,14.10842249984853,None,hohl,[],[],[],[],[],[],[],,,,,,,,,,,,,,,,,,,3,2023-11-28_09h59.02.577,watkins1,2023.2.3,99.73420842380905,24,2023-11-28 09h59.10.717077 +0000,
,,,,,,,,,,,,,,,,,,,12,0,12,0,,,,,700.3277104001027,,,,,,,,,,,,,,flasche,45.36825529998168,,,,,,,,,,,,44.341255499981344,None,,,,,,,,,,,,,freeRecallSub,3,,,,,,,,,,,,,,,,,,,,,,,,,,,,,,,,,,,,,700.3162656999193,700.3277104001027,700.3277104001027,745.7019249000587,return,45.36825529998168,None,flasche,[],[],[],[],[],[],[],,,,,,,,,,,,,,,,,,,3,2023-11-28_09h59.02.577,watkins1,2023.2.3,99.73420842380905,24,2023-11-28 09h59.10.717077 +0000,
,,,,,,,,,,,,,,,,,,,13,0,13,0,,,,,745.714751600055,,,,,,,,,,,,,,trommel,3.245245800120756,,,,,,,,,,,,2.353598600020632,None,,,,,,,,,,,,,freeRecallSub,3,,,,,,,,,,,,,,,,,,,,,,,,,,,,,,,,,,,,,745.703178399941,745.714751600055,745.714751600055,748.960600499995,return,3.245245800120756,None,trommel,[],[],[],[],[],[],[],,,,,,,,,,,,,,,,,,,3,2023-11-28_09h59.02.577,watkins1,2023.2.3,99.73420842380905,24,2023-11-28 09h59.10.717077 +0000,
,,,,,,,,,,,,,,,,,,,14,0,14,0,,,,,748.9734288000036,,,,,,,,,,,,,,kette,0.9784993999637663,,,,,,,,,,,,0.29522029985673726,None,,,,,,,,,,,,,freeRecallSub,3,,,,,,,,,,,,,,,,,,,,,,,,,,,,,,,,,,,,,748.9618506000843,748.9734288000036,748.9734288000036,749.9599595000036,return,0.9784993999637663,None,kette,[],[],[],[],[],[],[],,,,,,,,,,,,,,,,,,,3,2023-11-28_09h59.02.577,watkins1,2023.2.3,99.73420842380905,24,2023-11-28 09h59.10.717077 +0000,
,,,,,,,,,,,,,,,,,,,15,0,15,0,,,,,749.9731507999822,,,,,,,,,,,,,,tasche,11.6428092001006,,,,,,,,,,,,10.810079300077632,None,,,,,,,,,,,,,freeRecallSub,3,,,,,,,,,,,,,,,,,,,,,,,,,,,,,,,,,,,,,749.9612042000517,749.9731507999822,749.9731507999822,761.6248820000328,return,11.6428092001006,None,tasche,[],[],[],[],[],[],[],,,,,,,,,,,,,,,,,,,3,2023-11-28_09h59.02.577,watkins1,2023.2.3,99.73420842380905,24,2023-11-28 09h59.10.717077 +0000,
,,,,,,,,,,,,,,,,,,,16,0,16,0,,,,,761.6383007001132,,,,,,,,,,,,,,ring,4.8656550999730825,,,,,,,,,,,,4.383089199895039,None,,,,,,,,,,,,,freeRecallSub,3,,,,,,,,,,,,,,,,,,,,,,,,,,,,,,,,,,,,,761.6261297001038,761.6383007001132,761.6383007001132,766.511304799933,return,4.8656550999730825,None,ring,[],[],[],[],[],[],[],,,,,,,,,,,,,,,,,,,3,2023-11-28_09h59.02.577,watkins1,2023.2.3,99.73420842380905,24,2023-11-28 09h59.10.717077 +0000,
,,,,,,,,,,,,,,,,,,,17,0,17,0,,,,,766.5246935000177,,,,,,,,,,,,,,bürste,3.3632889001164585,,,,,,,,,,,,2.384749799966812,None,,,,,,,,,,,,,freeRecallSub,3,,,,,,,,,,,,,,,,,,,,,,,,,,,,,,,,,,,,,766.512558999937,766.5246935000177,766.5246935000177,769.891545600025,return,3.3632889001164585,None,bürste,[],[],[],[],[],[],[],,,,,,,,,,,,,,,,,,,3,2023-11-28_09h59.02.577,watkins1,2023.2.3,99.73420842380905,24,2023-11-28 09h59.10.717077 +0000,
,,,,,,,,,,,,,,,,,,,18,0,18,0,,,,,769.9060112000443,,,,,,,,,,,,,,schlüssel,5.413931400049478,,,,,,,,,,,,2.6681345000397414,None,,,,,,,,,,,,,freeRecallSub,3,,,,,,,,,,,,,,,,,,,,,,,,,,,,,,,,,,,,,769.8927956998814,769.9060112000443,769.9060112000443,775.3224412999116,return,5.413931400049478,None,schlüssel,[],[],[],[],[],[],[],,,,,,,,,,,,,,,,,,,3,2023-11-28_09h59.02.577,watkins1,2023.2.3,99.73420842380905,24,2023-11-28 09h59.10.717077 +0000,
,,,,,,,,,,,,,,,,,,,19,0,19,0,,,,,775.3364774999209,,,,,,,,,,,,,,vase,4.839540300192311,,,,,,,,,,,,4.233807499986142,None,,,,,,,,,,,,,freeRecallSub,3,,,,,,,,,,,,,,,,,,,,,,,,,,,,,,,,,,,,,775.323698299937,775.3364774999209,775.3364774999209,780.1801829000469,return,4.839540300192311,None,vase,[],[],[],[],[],[],[],,,,,,,,,,,,,,,,,,,3,2023-11-28_09h59.02.577,watkins1,2023.2.3,99.73420842380905,24,2023-11-28 09h59.10.717077 +0000,
,,,,,,,,,,,,,,,,,,,20,0,20,0,,,,,780.1947039000224,,,,,,,,,,,,,,jacke,2.7973162000998855,,,,,,,,,,,,2.206432699924335,None,,,,,,,,,,,,,freeRecallSub,3,,,,,,,,,,,,,,,,,,,,,,,,,,,,,,,,,,,,,780.1814403000753,780.1947039000224,780.1947039000224,783.0003166999668,return,2.7973162000998855,None,jacke,[],[],[],[],[],[],[],,,,,,,,,,,,,,,,,,,3,2023-11-28_09h59.02.577,watkins1,2023.2.3,99.73420842380905,24,2023-11-28 09h59.10.717077 +0000,
,,,,,,,,,,,,,,,,,,,21,0,21,0,,,,,783.0152131998911,,,,,,,,,,,,,,löffel,15.288778099929914,,,,,,,,,,,,13.362765700090677,None,,,,,,,,,,,,,freeRecallSub,3,,,,,,,,,,,,,,,,,,,,,,,,,,,,,,,,,,,,,783.0015734999906,783.0152131998911,783.0152131998911,798.3127176999114,return,15.288778099929914,None,löffel,[],[],[],[],[],[],[],,,,,,,,,,,,,,,,,,,3,2023-11-28_09h59.02.577,watkins1,2023.2.3,99.73420842380905,24,2023-11-28 09h59.10.717077 +0000,
,,,,,,,,,,,,,,,,,,,22,0,22,0,,,,,798.3274467999581,,,,,,,,,,,,,,hammer,18.216492099920288,,,,,,,,,,,,15.752558299805969,None,,,,,,,,,,,,,freeRecallSub,3,,,,,,,,,,,,,,,,,,,,,,,,,,,,,,,,,,,,,798.3139820001088,798.3274467999581,798.3274467999581,816.5473627001047,return,18.216492099920288,None,hammer,[],[],[],[],[],[],[],,,,,,,,,,,,,,,,,,,3,2023-11-28_09h59.02.577,watkins1,2023.2.3,99.73420842380905,24,2023-11-28 09h59.10.717077 +0000,
,,,,,,,,,,,,,,,,,,,23,0,23,0,,,,,816.5625807999168,,,,,,,,,,,,,, ,11.893346100114286,,,,,,,,,,,,7.740336599992588,None,,,,,,,,,,,,,freeRecallSub,3,,,,,,,,,,,,,,,,,,,,,,,,,,,,,,,,,,,,,816.5486284999643,816.5625807999168,816.5625807999168,828.4565477999859,return,11.893346100114286,None, ,[],[],[],[],[],[],[],,,,,,,,,,,,,,,,,,,3,2023-11-28_09h59.02.577,watkins1,2023.2.3,99.73420842380905,24,2023-11-28 09h59.10.717077 +0000,
,,,,,,,,,,,,,,,,,,,24,0,24,0,,,,,828.472305299947,,,,,,,,,,,,,,,[],,,,,,,,,,,,1.9978185000363737,1.9978185000363737,,,,,,,,,,,,,freeRecallSub,3,,,,,,,,,,,,,,,,,,,,,,,,,,,,,,,,,,,,,828.4577858000994,828.472305299947,828.472305299947,839.2418215998914,None,,,,[0.2796296296296296],[-0.4064814814814815],[1],[0],[0],[10.77580299996771],"['button_continue', 'continue_text']",,,,,,,,,,,,,,,,,,,3,2023-11-28_09h59.02.577,watkins1,2023.2.3,99.73420842380905,24,2023-11-28 09h59.10.717077 +0000,
,,,,,,,,,,,,,,,,,,,,,,,,,,,,,,,,,,,,,,,,,,,,,,,,,,,,,,,,,,,,,,,,,,,,,3,,,,,,,,,,,,,,,,,,,,,,,,,,,,,,,,,,,,,,,,,,,,,,,,,,,,,,,,,,,,,,,,,,,,,,3,2023-11-28_09h59.02.577,watkins1,2023.2.3,99.73420842380905,24,2023-11-28 09h59.10.717077 +0000,
,,,,,,,,,,,,,,,,,,,,,,,0,0,0,0,848.8421716000885,,,,,,,,,,853.404495799914,853.9031066000462,,,,4.557747800135985,,,,,,,,,,,,None,None,,,,,,,,,,Kamera,,,cuedRecallAdj,3,,,,,,,,,,,,,,,,,,,0,,,,,,,,,,,,,,,,,,,,,,,,,,,,,,,,,848.8329497000668,848.8421716000885,848.8421716000885,853.4012972000055,neu,return,4.557747800135985,None,853.4016899000853,853.4107993000653,853.4107993000653,853.4043475000653,,None,,,,,3,2023-11-28_09h59.02.577,watkins1,2023.2.3,99.73420842380905,24,2023-11-28 09h59.10.717077 +0000,
,,,,,,,,,,,,,,,,,,,,,,,1,0,1,0,853.9130462999456,,,,,,,,,,856.688098799903,857.1866657999344,,,,2.7668786998838186,,,,,,,,,,,,None,None,,,,,,,,,,Eimer,,,cuedRecallAdj,3,,,,,,,,,,,,,,,,,,,0,,,,,,,,,,,,,,,,,,,,,,,,,,,,,,,,,853.9033488999121,853.9130462999456,853.9130462999456,856.6849483998958,glatt,return,2.7668786998838186,None,856.6852100000251,856.6945092000533,856.6945092000533,856.6879988000728,,None,,,,,3,2023-11-28_09h59.02.577,watkins1,2023.2.3,99.73420842380905,24,2023-11-28 09h59.10.717077 +0000,
,,,,,,,,,,,,,,,,,,,,,,,2,0,2,0,857.1974859999027,,,,,,,,,,859.9815167998895,860.4800273000728,,,,2.778347299899906,,,,,,,,,,,,None,None,,,,,,,,,,Socke,,,cuedRecallAdj,3,,,,,,,,,,,,,,,,,,,0,,,,,,,,,,,,,,,,,,,,,,,,,,,,,,,,,857.1869103000499,857.1974859999027,857.1974859999027,859.9784329999238,flauschig,return,2.778347299899906,None,859.9786996999756,859.9879870000295,859.9879870000295,859.9814156000502,,None,,,,,3,2023-11-28_09h59.02.577,watkins1,2023.2.3,99.73420842380905,24,2023-11-28 09h59.10.717077 +0000,
,,,,,,,,,,,,,,,,,,,,,,,3,0,3,0,860.4900821999181,,,,,,,,,,864.078154399991,864.5769358999096,,,,3.5817861000541598,,,,,,,,,,,,None,None,,,,,,,,,,Blume,,,cuedRecallAdj,3,,,,,,,,,,,,,,,,,,,0,,,,,,,,,,,,,,,,,,,,,,,,,,,,,,,,,860.4802784000058,860.4900821999181,860.4900821999181,864.075155199971,kaputt,return,3.5817861000541598,None,864.0754199000075,864.0847871000879,864.0847871000879,864.0780547000468,,None,,,,,3,2023-11-28_09h59.02.577,watkins1,2023.2.3,99.73420842380905,24,2023-11-28 09h59.10.717077 +0000,
,,,,,,,,,,,,,,,,,,,,,,,4,0,4,0,864.5868748000357,,,,,,,,,,867.5625563000795,868.0612757999916,,,,2.9650820000097156,,,,,,,,,,,,None,None,,,,,,,,,,Schlüssel,,,cuedRecallAdj,3,,,,,,,,,,,,,,,,,,,0,,,,,,,,,,,,,,,,,,,,,,,,,,,,,,,,,864.577179200016,864.5868748000357,864.5868748000357,867.5594752000179,hässlich,return,2.9650820000097156,None,867.559737399919,867.5691808999982,867.5691808999982,867.5624571999069,,None,,,,,3,2023-11-28_09h59.02.577,watkins1,2023.2.3,99.73420842380905,24,2023-11-28 09h59.10.717077 +0000,
,,,,,,,,,,,,,,,,,,,,,,,5,0,5,0,868.0711864000186,,,,,,,,,,872.4324441000354,872.9312849999405,,,,4.352798300096765,,,,,,,,,,,,None,None,,,,,,,,,,Uhr,,,cuedRecallAdj,3,,,,,,,,,,,,,,,,,,,0,,,,,,,,,,,,,,,,,,,,,,,,,,,,,,,,,868.0615211999975,868.0711864000186,868.0711864000186,872.4295594000723,glänzend,return,4.352798300096765,None,872.4298374000937,872.4392242999747,872.4392242999747,872.4323430000804,,None,,,,,3,2023-11-28_09h59.02.577,watkins1,2023.2.3,99.73420842380905,24,2023-11-28 09h59.10.717077 +0000,
,,,,,,,,,,,,,,,,,,,,,,,6,0,6,0,872.9411812999751,,,,,,,,,,875.4046885001007,875.903550799936,,,,2.4506838999222964,,,,,,,,,,,,None,None,,,,,,,,,,Stift,,,cuedRecallAdj,3,,,,,,,,,,,,,,,,,,,0,,,,,,,,,,,,,,,,,,,,,,,,,,,,,,,,,872.9315335000865,872.9411812999751,872.9411812999751,875.4017459000461,klobig,return,2.4506838999222964,None,875.4020090999547,875.4114790998865,875.4114790998865,875.4045879000332,,None,,,,,3,2023-11-28_09h59.02.577,watkins1,2023.2.3,99.73420842380905,24,2023-11-28 09h59.10.717077 +0000,
,,,,,,,,,,,,,,,,,,,,,,,7,0,7,0,875.9134951001033,,,,,,,,,,883.3479174000677,883.8467669000383,,,,7.422347899992019,,,,,,,,,,,,None,None,,,,,,,,,,Flasche,,,cuedRecallAdj,3,,,,,,,,,,,,,,,,,,,0,,,,,,,,,,,,,,,,,,,,,,,,,,,,,,,,,875.903794300044,875.9134951001033,875.9134951001033,883.3448707000352,elegant,return,7.422347899992019,None,883.3451330000535,883.3546998000238,883.3546998000238,883.3478157001082,,None,,,,,3,2023-11-28_09h59.02.577,watkins1,2023.2.3,99.73420842380905,24,2023-11-28 09h59.10.717077 +0000,
,,,,,,,,,,,,,,,,,,,,,,,8,0,8,0,883.8567101000808,,,,,,,,,,886.3402410999406,886.8392286999151,,,,2.4711637999862432,,,,,,,,,,,,None,None,,,,,,,,,,Brille,,,cuedRecallAdj,3,,,,,,,,,,,,,,,,,,,0,,,,,,,,,,,,,,,,,,,,,,,,,,,,,,,,,883.8470113000367,883.8567101000808,883.8567101000808,886.3373245000839,kurz,return,2.4711637999862432,None,886.3375901000109,886.3471580999903,886.3471580999903,886.3401401999872,,None,,,,,3,2023-11-28_09h59.02.577,watkins1,2023.2.3,99.73420842380905,24,2023-11-28 09h59.10.717077 +0000,
,,,,,,,,,,,,,,,,,,,,,,,9,0,9,0,886.8491326998919,,,,,,,,,,891.2307309000753,891.7293789999094,,,,4.374745300039649,,,,,,,,,,,,None,None,,,,,,,,,,Fahrrad,,,cuedRecallAdj,3,,,,,,,,,,,,,,,,,,,0,,,,,,,,,,,,,,,,,,,,,,,,,,,,,,,,,886.8394834001083,886.8491326998919,886.8491326998919,891.227670900058,strahlend,return,4.374745300039649,None,891.2279320000671,891.2372727999464,891.2372727999464,891.2306299000047,,None,,,,,3,2023-11-28_09h59.02.577,watkins1,2023.2.3,99.73420842380905,24,2023-11-28 09h59.10.717077 +0000,
,,,,,,,,,,,,,,,,,,,,,,,10,0,10,0,891.7393245999701,,,,,,,,,,893.881813700078,894.380402199924,,,,2.1325391000136733,,,,,,,,,,,,None,None,,,,,,,,,,Kette,,,cuedRecallAdj,3,,,,,,,,,,,,,,,,,,,0,,,,,,,,,,,,,,,,,,,,,,,,,,,,,,,,,891.7296245999169,891.7393245999701,891.7393245999701,893.8787016998976,krumm,return,2.1325391000136733,None,893.8789639999159,893.8883901000954,893.8883901000954,893.8817131998949,,None,,,,,3,2023-11-28_09h59.02.577,watkins1,2023.2.3,99.73420842380905,24,2023-11-28 09h59.10.717077 +0000,
,,,,,,,,,,,,,,,,,,,,,,,11,0,11,0,894.3904001999181,,,,,,,,,,900.2076824000105,900.7065103000496,,,,5.809454000089318,,,,,,,,,,,,None,None,,,,,,,,,,Telefon,,,cuedRecallAdj,3,,,,,,,,,,,,,,,,,,,0,,,,,,,,,,,,,,,,,,,,,,,,,,,,,,,,,894.3806439999025,894.3904001999181,894.3904001999181,900.2048076000065,bunt,return,5.809454000089318,None,900.2050709999166,900.214333999902,900.214333999902,900.207581799943,,None,,,,,3,2023-11-28_09h59.02.577,watkins1,2023.2.3,99.73420842380905,24,2023-11-28 09h59.10.717077 +0000,
,,,,,,,,,,,,,,,,,,,,,,,12,0,12,0,900.716450399952,,,,,,,,,,905.1278947000392,905.6267808000557,,,,4.40343669988215,,,,,,,,,,,,None,None,,,,,,,,,,Lampe,,,cuedRecallAdj,3,,,,,,,,,,,,,,,,,,,0,,,,,,,,,,,,,,,,,,,,,,,,,,,,,,,,,900.7067601999734,900.716450399952,900.716450399952,905.1250607999973,neu,return,4.40343669988215,None,905.1253251999151,905.1345879998989,905.1345879998989,905.1277942999732,,None,,,,,3,2023-11-28_09h59.02.577,watkins1,2023.2.3,99.73420842380905,24,2023-11-28 09h59.10.717077 +0000,
,,,,,,,,,,,,,,,,,,,,,,,13,0,13,0,905.636723899981,,,,,,,,,,907.4878434001002,907.9866690000053,,,,1.8436938999220729,,,,,,,,,,,,None,None,,,,,,,,,,Geige,,,cuedRecallAdj,3,,,,,,,,,,,,,,,,,,,0,,,,,,,,,,,,,,,,,,,,,,,,,,,,,,,,,905.627024800051,905.636723899981,905.636723899981,907.4848478001077,dunkel,return,1.8436938999220729,None,907.4851118000224,907.4945141999051,907.4945141999051,907.4877412999049,,None,,,,,3,2023-11-28_09h59.02.577,watkins1,2023.2.3,99.73420842380905,24,2023-11-28 09h59.10.717077 +0000,
,,,,,,,,,,,,,,,,,,,,,,,14,0,14,0,907.9966160999611,,,,,,,,,,914.3583750000689,914.8570560000371,,,,6.355248300125822,,,,,,,,,,,,None,None,,,,,,,,,,Würfel,,,cuedRecallAdj,3,,,,,,,,,,,,,,,,,,,0,,,,,,,,,,,,,,,,,,,,,,,,,,,,,,,,,907.9869121999945,907.9966160999611,907.9966160999611,914.3553855998907,?,return,6.355248300125822,None,914.3556504000444,914.3650164999999,914.3650164999999,914.358275000006,,None,,,,,3,2023-11-28_09h59.02.577,watkins1,2023.2.3,99.73420842380905,24,2023-11-28 09h59.10.717077 +0000,
,,,,,,,,,,,,,,,,,,,,,,,15,0,15,0,914.8669575999957,,,,,,,,,,916.5976774001028,917.0965086000506,,,,1.7248923999723047,,,,,,,,,,,,None,None,,,,,,,,,,Jacke,,,cuedRecallAdj,3,,,,,,,,,,,,,,,,,,,0,,,,,,,,,,,,,,,,,,,,,,,,,,,,,,,,,914.8572978000157,914.8669575999957,914.8669575999957,916.5946339000948,hohl,return,1.7248923999723047,None,916.59489580011,916.6041912001092,916.6041912001092,916.5975768999197,,None,,,,,3,2023-11-28_09h59.02.577,watkins1,2023.2.3,99.73420842380905,24,2023-11-28 09h59.10.717077 +0000,
,,,,,,,,,,,,,,,,,,,,,,,16,0,16,0,917.1065585000906,,,,,,,,,,920.0520146000199,920.5505506000482,,,,2.941298299934715,,,,,,,,,,,,None,None,,,,,,,,,,Tasse,,,cuedRecallAdj,3,,,,,,,,,,,,,,,,,,,0,,,,,,,,,,,,,,,,,,,,,,,,,,,,,,,,,917.0967512999196,917.1065585000906,917.1065585000906,920.049043700099,robust,return,2.941298299934715,None,920.0493071000092,920.0586107000709,920.0586107000709,920.0519131999463,,None,,,,,3,2023-11-28_09h59.02.577,watkins1,2023.2.3,99.73420842380905,24,2023-11-28 09h59.10.717077 +0000,
,,,,,,,,,,,,,,,,,,,,,,,17,0,17,0,920.5604204998817,,,,,,,,,,925.0929306000471,925.5915576999541,,,,4.527415500022471,,,,,,,,,,,,None,None,,,,,,,,,,Ring,,,cuedRecallAdj,3,,,,,,,,,,,,,,,,,,,0,,,,,,,,,,,,,,,,,,,,,,,,,,,,,,,,,920.5507976000663,920.5604204998817,920.5604204998817,925.0899958000518,gepunktet,return,4.527415500022471,None,925.0902611999772,925.0995676999446,925.0995676999446,925.0928305999842,,None,,,,,3,2023-11-28_09h59.02.577,watkins1,2023.2.3,99.73420842380905,24,2023-11-28 09h59.10.717077 +0000,
,,,,,,,,,,,,,,,,,,,,,,,18,0,18,0,925.6015560000669,,,,,,,,,,928.2356740001123,928.7345380999614,,,,2.6222626001108438,,,,,,,,,,,,None,None,,,,,,,,,,Löffel,,,cuedRecallAdj,3,,,,,,,,,,,,,,,,,,,0,,,,,,,,,,,,,,,,,,,,,,,,,,,,,,,,,925.5918014000636,925.6015560000669,925.6015560000669,928.232691799989,elegant,return,2.6222626001108438,None,928.2329579999205,928.2423755000345,928.2423755000345,928.2355730000418,,None,,,,,3,2023-11-28_09h59.02.577,watkins1,2023.2.3,99.73420842380905,24,2023-11-28 09h59.10.717077 +0000,
,,,,,,,,,,,,,,,,,,,,,,,19,0,19,0,928.744503099937,,,,,,,,,,932.3928823999595,932.8916565000545,,,,3.639312200015411,,,,,,,,,,,,None,None,,,,,,,,,,Trommel,,,cuedRecallAdj,3,,,,,,,,,,,,,,,,,,,0,,,,,,,,,,,,,,,,,,,,,,,,,,,,,,,,,928.7347840000875,928.744503099937,928.744503099937,932.3898811000399,schön,return,3.639312200015411,None,932.3901462999638,932.3995419999119,932.3995419999119,932.3927807998843,,None,,,,,3,2023-11-28_09h59.02.577,watkins1,2023.2.3,99.73420842380905,24,2023-11-28 09h59.10.717077 +0000,
,,,,,,,,,,,,,,,,,,,,,,,20,0,20,0,932.901600799989,,,,,,,,,,935.9274927000515,936.4261791000608,,,,3.0182258000131696,,,,,,,,,,,,None,None,,,,,,,,,,Hammer,,,cuedRecallAdj,3,,,,,,,,,,,,,,,,,,,0,,,,,,,,,,,,,,,,,,,,,,,,,,,,,,,,,932.8919011999387,932.901600799989,932.901600799989,935.9244355999399,schwer,return,3.0182258000131696,None,935.9247010000981,935.9341211998835,935.9341211998835,935.9273918000981,,None,,,,,3,2023-11-28_09h59.02.577,watkins1,2023.2.3,99.73420842380905,24,2023-11-28 09h59.10.717077 +0000,
,,,,,,,,,,,,,,,,,,,,,,,21,0,21,0,936.4361209000926,,,,,,,,,,938.6386847000103,939.1373423000332,,,,2.195684100035578,,,,,,,,,,,,None,None,,,,,,,,,,Kerze,,,cuedRecallAdj,3,,,,,,,,,,,,,,,,,,,0,,,,,,,,,,,,,,,,,,,,,,,,,,,,,,,,,936.4264273000881,936.4361209000926,936.4361209000926,938.635715899989,glatt,return,2.195684100035578,None,938.6359790000133,938.6452919000294,938.6452919000294,938.6385826000478,,None,,,,,3,2023-11-28_09h59.02.577,watkins1,2023.2.3,99.73420842380905,24,2023-11-28 09h59.10.717077 +0000,
,,,,,,,,,,,,,,,,,,,,,,,22,0,22,0,939.14739129995,,,,,,,,,,941.5610352999065,942.05969740008,,,,2.404456099960953,,,,,,,,,,,,None,None,,,,,,,,,,Buch,,,cuedRecallAdj,3,,,,,,,,,,,,,,,,,,,0,,,,,,,,,,,,,,,,,,,,,,,,,,,,,,,,,939.1375841000117,939.14739129995,939.14739129995,941.5581022999249,niedlich,return,2.404456099960953,None,941.5583691999782,941.5676200999878,941.5676200999878,941.5609343999531,,None,,,,,3,2023-11-28_09h59.02.577,watkins1,2023.2.3,99.73420842380905,24,2023-11-28 09h59.10.717077 +0000,
,,,,,,,,,,,,,,,,,,,,,,,23,0,23,0,942.0696419999003,,,,,,,,,,944.9750208000187,945.473715600092,,,,2.898127500200644,,,,,,,,,,,,None,None,,,,,,,,,,Vase,,,cuedRecallAdj,3,,,,,,,,,,,,,,,,,,,0,,,,,,,,,,,,,,,,,,,,,,,,,,,,,,,,,942.0599513000343,942.0696419999003,942.0696419999003,944.9721238000784,neu,return,2.898127500200644,None,944.9723859000951,944.9816306000575,944.9816306000575,944.9749201000668,,None,,,,,3,2023-11-28_09h59.02.577,watkins1,2023.2.3,99.73420842380905,24,2023-11-28 09h59.10.717077 +0000,
,,,,,,,,,,,,,,,,,,,,,,,24,0,24,0,945.483661300037,,,,,,,,,,948.299233000027,948.7975089000538,,,,2.8041771000716835,,,,,,,,,,,,None,None,,,,,,,,,,Rucksack,,,cuedRecallAdj,3,,,,,,,,,,,,,,,,,,,0,,,,,,,,,,,,,,,,,,,,,,,,,,,,,,,,,945.4739616001025,945.483661300037,945.483661300037,948.2960421999451,gestreift,return,2.8041771000716835,None,948.2963084999938,948.3057653999422,948.3057653999422,948.2991327000782,,None,,,,,3,2023-11-28_09h59.02.577,watkins1,2023.2.3,99.73420842380905,24,2023-11-28 09h59.10.717077 +0000,
,,,,,,,,,,,,,,,,,,,,,,,25,0,25,0,948.8075731000863,,,,,,,,,,950.9100615000352,951.4091924999375,,,,2.0962173000443727,,,,,,,,,,,,None,None,,,,,,,,,,Hut,,,cuedRecallAdj,3,,,,,,,,,,,,,,,,,,,0,,,,,,,,,,,,,,,,,,,,,,,,,,,,,,,,,948.7977988000493,948.8075731000863,948.8075731000863,950.9070067999419,breit,return,2.0962173000443727,None,950.9072787000332,950.9165703998879,950.9165703998879,950.9099552999251,,None,,,,,3,2023-11-28_09h59.02.577,watkins1,2023.2.3,99.73420842380905,24,2023-11-28 09h59.10.717077 +0000,
,,,,,,,,,,,,,,,,,,,,,,,26,0,26,0,951.4190815000329,,,,,,,,,,952.9994580000639,953.497944700066,,,,1.572773499879986,,,,,,,,,,,,None,None,,,,,,,,,,Bürste,,,cuedRecallAdj,3,,,,,,,,,,,,,,,,,,,0,,,,,,,,,,,,,,,,,,,,,,,,,,,,,,,,,951.4094648999162,951.4190815000329,951.4190815000329,952.9963626000099,dick,return,1.572773499879986,None,952.9966309000738,953.0058846001048,953.0058846001048,952.9993479999248,,None,,,,,3,2023-11-28_09h59.02.577,watkins1,2023.2.3,99.73420842380905,24,2023-11-28 09h59.10.717077 +0000,
,,,,,,,,,,,,,,,,,,,,,,,27,0,27,0,953.5079789001029,,,,,,,,,,964.387602099916,964.8865431000013,,,,10.875834699952975,,,,,,,,,,,,None,None,,,,,,,,,,Kiste,,,cuedRecallAdj,3,,,,,,,,,,,,,,,,,,,0,,,,,,,,,,,,,,,,,,,,,,,,,,,,,,,,,953.4981927999761,953.5079789001029,953.5079789001029,964.3848073999397,?,return,10.875834699952975,None,964.3850908000022,964.3944612999912,964.3944612999912,964.3875013000797,,None,,,,,3,2023-11-28_09h59.02.577,watkins1,2023.2.3,99.73420842380905,24,2023-11-28 09h59.10.717077 +0000,
,,,,,,,,,,,,,,,,,,,,,,,28,0,28,0,964.8964859999251,,,,,,,,,,968.0429181000218,968.5417112000287,,,,3.1353148000780493,,,,,,,,,,,,None,None,,,,,,,,,,Tasche,,,cuedRecallAdj,3,,,,,,,,,,,,,,,,,,,0,,,,,,,,,,,,,,,,,,,,,,,,,,,,,,,,,964.8867870999966,964.8964859999251,964.8964859999251,968.039849899942,gestreift,return,3.1353148000780493,None,968.0401145999786,968.0495708999224,968.0495708999224,968.0428162000608,,None,,,,,3,2023-11-28_09h59.02.577,watkins1,2023.2.3,99.73420842380905,24,2023-11-28 09h59.10.717077 +0000,
,,,,,,,,,,,,,,,,,,,,,,,29,0,29,0,968.5516564999707,,,,,,,,,,972.3105772999115,972.8091911999509,,,,3.7521465998142958,,,,,,,,,,,,None,None,,,,,,,,,,Schere,,,cuedRecallAdj,3,,,,,,,,,,,,,,,,,,,0,,,,,,,,,,,,,,,,,,,,,,,,,,,,,,,,,968.5419608000666,968.5516564999707,968.5516564999707,972.3075421999674,biegsam,return,3.7521465998142958,None,972.3078058999963,972.3171121999621,972.3171121999621,972.310475599952,,None,,,,,3,2023-11-28_09h59.02.577,watkins1,2023.2.3,99.73420842380905,24,2023-11-28 09h59.10.717077 +0000,
,,,,,,,,,,,,,,,,,,,,,,,,,,,,,,,,,,,,,,,,,,,,,,,,,,,,,,,,,,,,,,,,,,,,,3,,,,,,,,,,,,,,,,,,,,,,,,,,,,,,,,,,,,,,,,,,,,,,,,,,,,,,,,,,,,,,,,,,972.8256320999935,q,242.86187909985892,None,3,2023-11-28_09h59.02.577,watkins1,2023.2.3,99.73420842380905,24,2023-11-28 09h59.10.717077 +0000,
