Equation,CorrectResponse,Correctbutton,trials_7.thisRepN,trials_7.thisTrialN,trials_7.thisN,trials_7.thisIndex,trials.thisRepN,trials.thisTrialN,trials.thisN,trials.thisIndex,trials_3.thisRepN,trials_3.thisTrialN,trials_3.thisN,trials_3.thisIndex,trials_2.thisRepN,trials_2.thisTrialN,trials_2.thisN,trials_2.thisIndex,trials_4.thisRepN,trials_4.thisTrialN,trials_4.thisN,trials_4.thisIndex,trials_5.thisRepN,trials_5.thisTrialN,trials_5.thisN,trials_5.thisIndex,thisRow.t,notes,code_marius.started,code_marius.stopped,welcome.started,welcome.stopped,instruction_study.started,instruction_study.stopped,fixationcross.started,fixationcross.stopped,blanc.started,blanc.stopped,study_control_probe.started,study_control_probe.stopped,responseKey,responseTime,scale_answer_2.keys,study_control_probe_2.started,study_control_probe_2.stopped,scale_answer_3.keys,scale_answer_3.rt,scale_answer_3.duration,blanc_2.started,blanc_2.stopped,test_attr_probe.started,test_attr_probe.stopped,recalled_attr,firstKeyTime,secondWordTime,blanc_3.started,blanc_3.stopped,test_sub_probe.started,test_sub_probe.stopped,recalled_sub,instruction_probe_end.started,instruction_probe_end.stopped,study.started,study.stopped,substantive,adjective,wordpair,task,condition,liste_sub_phase1,liste_adj_phase1,scale_answer.keys,scale_answer.rt,scale_answer.duration,code_defineWordsInit.started,code_defineWordsInit.stopped,liste_sub_phase2,study_control.started,study_control.stopped,scale_answer_4.keys,restudy_same.started,restudy_same.stopped,scale_answer_5.keys,restudy_different.started,restudy_different.stopped,scale_answer_6.keys,scale_answer_6.rt,scale_answer_6.duration,test_attr.started,test_attr.stopped,test_sub.started,test_sub.stopped,scale_answer_4.rt,scale_answer_4.duration,distractortask.started,equation_text.started,distractortask.stopped,mouse_answer.x,mouse_answer.y,mouse_answer.leftButton,mouse_answer.midButton,mouse_answer.rightButton,mouse_answer.time,mouse_answer.clicked_name,feedback_distractortask.started,feedback_distractortask.stopped,free_recall.started,text_enter.started,key_resp.started,free_recall.stopped,key_resp.keys,key_resp.rt,key_resp.duration,free_recalled_sub,mouse_continue.x,mouse_continue.y,mouse_continue.leftButton,mouse_continue.midButton,mouse_continue.rightButton,mouse_continue.time,mouse_continue.clicked_name,cued_recall.started,text_enter_2.started,correct,key_continue.started,cued_recall.stopped,recalled_attr1,key_continue.keys,key_continue.rt,key_continue.duration,cued_recall_2.started,text_enter_3.started,key_continue_2.started,cued_recall_2.stopped,recalled_attr2,key_continue_2.keys,key_continue_2.rt,key_continue_2.duration,key_resp_8.started,key_resp_8.keys,key_resp_8.rt,key_resp_8.duration,condition,date,expName,psychopyVersion,frameRate,participant,expStart,
,,,,,,,,,,,,,,,,,,,,,,,,,,,,,0.11457880004309118,0.11464700009673834,0.11465499992482364,4.482362699927762,,,,,,,,,,,,,,,,,,,,,,,,,,,,,,,,,,,,,1,,,,,,,,,,,,,,,,,,,,,,,,,,,,,,,,,,,,,,,,,,,,,,,,,,,,,,,,,,,,,,,,,,,,,,,,,,1,2023-12-05_10h51.55.204,watkins1,2023.2.3,99.75957934834813,44,2023-12-05 10h52.03.480158 +0000,
,,,,,,,,,,,,,,,,,,,,,,,,,,,,,,,,,4.48241059994325,32.24841609993018,,,,,,,,,,,,,,,,,,,,,,,,,,,,,,,,,,,1,,,,,,,,,,,,,,,,,,,,,,,,,,,,,,,,,,,,,,,,,,,,,,,,,,,,,,,,,,,,,,,,,,,,,,,,,,1,2023-12-05_10h51.55.204,watkins1,2023.2.3,99.75957934834813,44,2023-12-05 10h52.03.480158 +0000,
,,,0,0,0,0,,,,,,,,,,,,,,,,,,,,,33.26220740005374,,,,,,,,32.24843250005506,33.252122699981555,39.75199389993213,40.24339730013162,33.74424450006336,39.75182120013051,2,2.585679299896583,None,40.24340760009363,46.25170959997922,2,2.585679299896583,None,46.2520067000296,46.252030699979514,46.252037700032815,46.25211729994044,,None,None,46.25228070002049,46.25230149994604,46.252308400115,46.252379700075835,,,,,,,,,,1,,,,,,,,,,,,,,,,,,,,,,,,,,,,,,,,,,,,,,,,,,,,,,,,,,,,,,,,,,,,,,,,,,,,,,,,,,1,2023-12-05_10h51.55.204,watkins1,2023.2.3,99.75957934834813,44,2023-12-05 10h52.03.480158 +0000,
,,,,,,,,,,,,,,,,,,,,,,,,,,,,,,,,,,,,,,,,,,,,,,,,,,,,,,,,,,,,,46.25249140011147,51.017899099970236,,,,,,,1,,,,,,,,,,,,,,,,,,,,,,,,,,,,,,,,,,,,,,,,,,,,,,,,,,,,,,,,,,,,,,,,,,,,,,,,,,1,2023-12-05_10h51.55.204,watkins1,2023.2.3,99.75957934834813,44,2023-12-05 10h52.03.480158 +0000,
,,,,,,,0,0,0,0,,,,,,,,,,,,,,,,,52.03172990004532,,,,,,,,51.01791530009359,52.02174540003762,52.02218460012227,52.51386810000986,,,3,2.1235158001072705,,,,,,,,,,,,,,,,,,,,,52.51387839997187,58.5171682999935,Kamera,kaputt,"['Kamera', 'kaputt']",control,1,"['Kamera', 'Hut', 'Geige', 'Hammer', 'Tasche', 'Socke', 'Schere', 'Ring', 'Tasse', 'Kerze', 'Lampe', 'Buch', 'Jacke', 'Rucksack', 'Uhr', 'Fahrrad', 'Kiste', 'Vase', 'Stift', 'Würfel', 'Kette', 'Brille']",['kaputt'],3,2.1235158001072705,None,,,,,,,,,,,,,,,,,,,,,,,,,,,,,,,,,,,,,,,,,,,,,,,,,,,,,,,,,,,,,,,,,,,,,1,2023-12-05_10h51.55.204,watkins1,2023.2.3,99.75957934834813,44,2023-12-05 10h52.03.480158 +0000,
,,,,,,,1,0,1,0,,,,,,,,,,,,,,,,,58.526583899976686,,,,,,,,,,58.517769699916244,59.00848720013164,,,1,2.5285863999743015,,,,,,,,,,,,,,,,,,,,,59.00849819998257,65.01456980011426,Hut,rustikal,"['Hut', 'rustikal']",restudy_diff,1,"['Kamera', 'Hut', 'Geige', 'Hammer', 'Tasche', 'Socke', 'Schere', 'Ring', 'Tasse', 'Kerze', 'Lampe', 'Buch', 'Jacke', 'Rucksack', 'Uhr', 'Fahrrad', 'Kiste', 'Vase', 'Stift', 'Würfel', 'Kette', 'Brille']","['kaputt', 'rustikal']",1,2.5285863999743015,None,,,,,,,,,,,,,,,,,,,,,,,,,,,,,,,,,,,,,,,,,,,,,,,,,,,,,,,,,,,,,,,,,,,,,1,2023-12-05_10h51.55.204,watkins1,2023.2.3,99.75957934834813,44,2023-12-05 10h52.03.480158 +0000,
,,,,,,,2,0,2,0,,,,,,,,,,,,,,,,,65.02396719995886,,,,,,,,,,65.01503759995103,65.50601770007052,,,1,1.0706784999929368,,,,,,,,,,,,,,,,,,,,,65.506027800031,71.51661160006188,Geige,niedlich,"['Geige', 'niedlich']",restudy_diff,1,"['Kamera', 'Hut', 'Geige', 'Hammer', 'Tasche', 'Socke', 'Schere', 'Ring', 'Tasse', 'Kerze', 'Lampe', 'Buch', 'Jacke', 'Rucksack', 'Uhr', 'Fahrrad', 'Kiste', 'Vase', 'Stift', 'Würfel', 'Kette', 'Brille']","['kaputt', 'rustikal', 'niedlich']",1,1.0706784999929368,None,,,,,,,,,,,,,,,,,,,,,,,,,,,,,,,,,,,,,,,,,,,,,,,,,,,,,,,,,,,,,,,,,,,,,1,2023-12-05_10h51.55.204,watkins1,2023.2.3,99.75957934834813,44,2023-12-05 10h52.03.480158 +0000,
,,,,,,,3,0,3,0,,,,,,,,,,,,,,,,,71.52604299993254,,,,,,,,,,71.51709370012395,72.00832760008052,,,1,1.0259503999259323,,,,,,,,,,,,,,,,,,,,,72.00833859993145,78.01475950004533,Hammer,flach,"['Hammer', 'flach']",restudy_diff,1,"['Kamera', 'Hut', 'Geige', 'Hammer', 'Tasche', 'Socke', 'Schere', 'Ring', 'Tasse', 'Kerze', 'Lampe', 'Buch', 'Jacke', 'Rucksack', 'Uhr', 'Fahrrad', 'Kiste', 'Vase', 'Stift', 'Würfel', 'Kette', 'Brille']","['kaputt', 'rustikal', 'niedlich', 'flach']",1,1.0259503999259323,None,,,,,,,,,,,,,,,,,,,,,,,,,,,,,,,,,,,,,,,,,,,,,,,,,,,,,,,,,,,,,,,,,,,,,1,2023-12-05_10h51.55.204,watkins1,2023.2.3,99.75957934834813,44,2023-12-05 10h52.03.480158 +0000,
,,,,,,,4,0,4,0,,,,,,,,,,,,,,,,,78.02429910004139,,,,,,,,,,78.01523269992322,78.50648039998487,,,1,0.8721324000507593,,,,,,,,,,,,,,,,,,,,,78.50649049994536,84.50816170009784,Tasche,lustig,"['Tasche', 'lustig']",control,1,"['Kamera', 'Hut', 'Geige', 'Hammer', 'Tasche', 'Socke', 'Schere', 'Ring', 'Tasse', 'Kerze', 'Lampe', 'Buch', 'Jacke', 'Rucksack', 'Uhr', 'Fahrrad', 'Kiste', 'Vase', 'Stift', 'Würfel', 'Kette', 'Brille']","['kaputt', 'rustikal', 'niedlich', 'flach', 'lustig']",1,0.8721324000507593,None,,,,,,,,,,,,,,,,,,,,,,,,,,,,,,,,,,,,,,,,,,,,,,,,,,,,,,,,,,,,,,,,,,,,,1,2023-12-05_10h51.55.204,watkins1,2023.2.3,99.75957934834813,44,2023-12-05 10h52.03.480158 +0000,
,,,,,,,5,0,5,0,,,,,,,,,,,,,,,,,84.51760259992443,,,,,,,,,,84.50863900012337,84.99965510005131,,,3,2.2975109999533743,,,,,,,,,,,,,,,,,,,,,84.9996652000118,91.0071481000632,Socke,winzig,"['Socke', 'winzig']",restudy_diff,1,"['Kamera', 'Hut', 'Geige', 'Hammer', 'Tasche', 'Socke', 'Schere', 'Ring', 'Tasse', 'Kerze', 'Lampe', 'Buch', 'Jacke', 'Rucksack', 'Uhr', 'Fahrrad', 'Kiste', 'Vase', 'Stift', 'Würfel', 'Kette', 'Brille']","['kaputt', 'rustikal', 'niedlich', 'flach', 'lustig', 'winzig']",3,2.2975109999533743,None,,,,,,,,,,,,,,,,,,,,,,,,,,,,,,,,,,,,,,,,,,,,,,,,,,,,,,,,,,,,,,,,,,,,,1,2023-12-05_10h51.55.204,watkins1,2023.2.3,99.75957934834813,44,2023-12-05 10h52.03.480158 +0000,
,,,,,,,6,0,6,0,,,,,,,,,,,,,,,,,91.01656130002812,,,,,,,,,,91.0076230999548,91.49860429996625,,,1,1.2169506999198347,,,,,,,,,,,,,,,,,,,,,91.49861490004696,97.50910639995709,Schere,dick,"['Schere', 'dick']",control,1,"['Kamera', 'Hut', 'Geige', 'Hammer', 'Tasche', 'Socke', 'Schere', 'Ring', 'Tasse', 'Kerze', 'Lampe', 'Buch', 'Jacke', 'Rucksack', 'Uhr', 'Fahrrad', 'Kiste', 'Vase', 'Stift', 'Würfel', 'Kette', 'Brille']","['kaputt', 'rustikal', 'niedlich', 'flach', 'lustig', 'winzig', 'dick']",1,1.2169506999198347,None,,,,,,,,,,,,,,,,,,,,,,,,,,,,,,,,,,,,,,,,,,,,,,,,,,,,,,,,,,,,,,,,,,,,,1,2023-12-05_10h51.55.204,watkins1,2023.2.3,99.75957934834813,44,2023-12-05 10h52.03.480158 +0000,
,,,,,,,7,0,7,0,,,,,,,,,,,,,,,,,97.5185076999478,,,,,,,,,,97.50959290005267,98.00071189994924,,,1,1.136840800056234,,,,,,,,,,,,,,,,,,,,,98.00072279991582,104.01058709993958,Ring,biegsam,"['Ring', 'biegsam']",restudy_diff,1,"['Kamera', 'Hut', 'Geige', 'Hammer', 'Tasche', 'Socke', 'Schere', 'Ring', 'Tasse', 'Kerze', 'Lampe', 'Buch', 'Jacke', 'Rucksack', 'Uhr', 'Fahrrad', 'Kiste', 'Vase', 'Stift', 'Würfel', 'Kette', 'Brille']","['kaputt', 'rustikal', 'niedlich', 'flach', 'lustig', 'winzig', 'dick', 'biegsam']",1,1.136840800056234,None,,,,,,,,,,,,,,,,,,,,,,,,,,,,,,,,,,,,,,,,,,,,,,,,,,,,,,,,,,,,,,,,,,,,,1,2023-12-05_10h51.55.204,watkins1,2023.2.3,99.75957934834813,44,2023-12-05 10h52.03.480158 +0000,
,,,,,,,8,0,8,0,,,,,,,,,,,,,,,,,104.01997280004434,,,,,,,,,,104.01109559996985,104.50208569993265,,,1,1.2124235001392663,,,,,,,,,,,,,,,,,,,,,104.50209640013054,110.50711210002191,Tasse,verspielt,"['Tasse', 'verspielt']",restudy_diff,1,"['Kamera', 'Hut', 'Geige', 'Hammer', 'Tasche', 'Socke', 'Schere', 'Ring', 'Tasse', 'Kerze', 'Lampe', 'Buch', 'Jacke', 'Rucksack', 'Uhr', 'Fahrrad', 'Kiste', 'Vase', 'Stift', 'Würfel', 'Kette', 'Brille']","['kaputt', 'rustikal', 'niedlich', 'flach', 'lustig', 'winzig', 'dick', 'biegsam', 'verspielt']",1,1.2124235001392663,None,,,,,,,,,,,,,,,,,,,,,,,,,,,,,,,,,,,,,,,,,,,,,,,,,,,,,,,,,,,,,,,,,,,,,1,2023-12-05_10h51.55.204,watkins1,2023.2.3,99.75957934834813,44,2023-12-05 10h52.03.480158 +0000,
,,,,,,,9,0,9,0,,,,,,,,,,,,,,,,,110.51654019998387,,,,,,,,,,110.50759469997138,110.99859680002555,,,1,1.1480919998139143,,,,,,,,,,,,,,,,,,,,,110.99860760010779,117.00726320012473,Kerze,hohl,"['Kerze', 'hohl']",restudy_diff,1,"['Kamera', 'Hut', 'Geige', 'Hammer', 'Tasche', 'Socke', 'Schere', 'Ring', 'Tasse', 'Kerze', 'Lampe', 'Buch', 'Jacke', 'Rucksack', 'Uhr', 'Fahrrad', 'Kiste', 'Vase', 'Stift', 'Würfel', 'Kette', 'Brille']","['kaputt', 'rustikal', 'niedlich', 'flach', 'lustig', 'winzig', 'dick', 'biegsam', 'verspielt', 'hohl']",1,1.1480919998139143,None,,,,,,,,,,,,,,,,,,,,,,,,,,,,,,,,,,,,,,,,,,,,,,,,,,,,,,,,,,,,,,,,,,,,,1,2023-12-05_10h51.55.204,watkins1,2023.2.3,99.75957934834813,44,2023-12-05 10h52.03.480158 +0000,
,,,,,,,10,0,10,0,,,,,,,,,,,,,,,,,117.01670609996654,,,,,,,,,,117.00773700000718,117.49867010000162,,,1,0.7438002000562847,,,,,,,,,,,,,,,,,,,,,117.49868079996668,123.50453669996932,Lampe,kalt,"['Lampe', 'kalt']",control,1,"['Kamera', 'Hut', 'Geige', 'Hammer', 'Tasche', 'Socke', 'Schere', 'Ring', 'Tasse', 'Kerze', 'Lampe', 'Buch', 'Jacke', 'Rucksack', 'Uhr', 'Fahrrad', 'Kiste', 'Vase', 'Stift', 'Würfel', 'Kette', 'Brille']","['kaputt', 'rustikal', 'niedlich', 'flach', 'lustig', 'winzig', 'dick', 'biegsam', 'verspielt', 'hohl', 'kalt']",1,0.7438002000562847,None,,,,,,,,,,,,,,,,,,,,,,,,,,,,,,,,,,,,,,,,,,,,,,,,,,,,,,,,,,,,,,,,,,,,,1,2023-12-05_10h51.55.204,watkins1,2023.2.3,99.75957934834813,44,2023-12-05 10h52.03.480158 +0000,
,,,,,,,11,0,11,0,,,,,,,,,,,,,,,,,123.51403179997578,,,,,,,,,,123.50500979996286,123.99614850012586,,,3,1.0863888000603765,,,,,,,,,,,,,,,,,,,,,123.99616009998135,130.00212810002267,Buch,neu,"['Buch', 'neu']",control,1,"['Kamera', 'Hut', 'Geige', 'Hammer', 'Tasche', 'Socke', 'Schere', 'Ring', 'Tasse', 'Kerze', 'Lampe', 'Buch', 'Jacke', 'Rucksack', 'Uhr', 'Fahrrad', 'Kiste', 'Vase', 'Stift', 'Würfel', 'Kette', 'Brille']","['kaputt', 'rustikal', 'niedlich', 'flach', 'lustig', 'winzig', 'dick', 'biegsam', 'verspielt', 'hohl', 'kalt', 'neu']",3,1.0863888000603765,None,,,,,,,,,,,,,,,,,,,,,,,,,,,,,,,,,,,,,,,,,,,,,,,,,,,,,,,,,,,,,,,,,,,,,1,2023-12-05_10h51.55.204,watkins1,2023.2.3,99.75957934834813,44,2023-12-05 10h52.03.480158 +0000,
,,,,,,,12,0,12,0,,,,,,,,,,,,,,,,,130.0115197999403,,,,,,,,,,130.00259779999033,130.49365899991244,,,1,0.9006188998464495,,,,,,,,,,,,,,,,,,,,,130.49367010011338,136.4992307999637,Jacke,matt,"['Jacke', 'matt']",restudy_diff,1,"['Kamera', 'Hut', 'Geige', 'Hammer', 'Tasche', 'Socke', 'Schere', 'Ring', 'Tasse', 'Kerze', 'Lampe', 'Buch', 'Jacke', 'Rucksack', 'Uhr', 'Fahrrad', 'Kiste', 'Vase', 'Stift', 'Würfel', 'Kette', 'Brille']","['kaputt', 'rustikal', 'niedlich', 'flach', 'lustig', 'winzig', 'dick', 'biegsam', 'verspielt', 'hohl', 'kalt', 'neu', 'matt']",1,0.9006188998464495,None,,,,,,,,,,,,,,,,,,,,,,,,,,,,,,,,,,,,,,,,,,,,,,,,,,,,,,,,,,,,,,,,,,,,,1,2023-12-05_10h51.55.204,watkins1,2023.2.3,99.75957934834813,44,2023-12-05 10h52.03.480158 +0000,
,,,,,,,13,0,13,0,,,,,,,,,,,,,,,,,136.50860980013385,,,,,,,,,,136.49970000004396,136.9907071001362,,,3,1.0445687999017537,,,,,,,,,,,,,,,,,,,,,136.99071780010127,142.99723899993114,Rucksack,bunt,"['Rucksack', 'bunt']",restudy_diff,1,"['Kamera', 'Hut', 'Geige', 'Hammer', 'Tasche', 'Socke', 'Schere', 'Ring', 'Tasse', 'Kerze', 'Lampe', 'Buch', 'Jacke', 'Rucksack', 'Uhr', 'Fahrrad', 'Kiste', 'Vase', 'Stift', 'Würfel', 'Kette', 'Brille']","['kaputt', 'rustikal', 'niedlich', 'flach', 'lustig', 'winzig', 'dick', 'biegsam', 'verspielt', 'hohl', 'kalt', 'neu', 'matt', 'bunt']",3,1.0445687999017537,None,,,,,,,,,,,,,,,,,,,,,,,,,,,,,,,,,,,,,,,,,,,,,,,,,,,,,,,,,,,,,,,,,,,,,1,2023-12-05_10h51.55.204,watkins1,2023.2.3,99.75957934834813,44,2023-12-05 10h52.03.480158 +0000,
,,,,,,,14,0,14,0,,,,,,,,,,,,,,,,,143.00672090006992,,,,,,,,,,142.99771380005404,143.48909840011038,,,1,0.9131688000634313,,,,,,,,,,,,,,,,,,,,,143.48910930007696,149.49128909991123,Uhr,durchsichtig,"['Uhr', 'durchsichtig']",restudy_diff,1,"['Kamera', 'Hut', 'Geige', 'Hammer', 'Tasche', 'Socke', 'Schere', 'Ring', 'Tasse', 'Kerze', 'Lampe', 'Buch', 'Jacke', 'Rucksack', 'Uhr', 'Fahrrad', 'Kiste', 'Vase', 'Stift', 'Würfel', 'Kette', 'Brille']","['kaputt', 'rustikal', 'niedlich', 'flach', 'lustig', 'winzig', 'dick', 'biegsam', 'verspielt', 'hohl', 'kalt', 'neu', 'matt', 'bunt', 'durchsichtig']",1,0.9131688000634313,None,,,,,,,,,,,,,,,,,,,,,,,,,,,,,,,,,,,,,,,,,,,,,,,,,,,,,,,,,,,,,,,,,,,,,1,2023-12-05_10h51.55.204,watkins1,2023.2.3,99.75957934834813,44,2023-12-05 10h52.03.480158 +0000,
,,,,,,,15,0,15,0,,,,,,,,,,,,,,,,,149.50074340007268,,,,,,,,,,149.49177470011637,149.98285360005684,,,1,1.0354951999615878,,,,,,,,,,,,,,,,,,,,,149.98286459990777,155.98560820007697,Fahrrad,blass,"['Fahrrad', 'blass']",restudy_diff,1,"['Kamera', 'Hut', 'Geige', 'Hammer', 'Tasche', 'Socke', 'Schere', 'Ring', 'Tasse', 'Kerze', 'Lampe', 'Buch', 'Jacke', 'Rucksack', 'Uhr', 'Fahrrad', 'Kiste', 'Vase', 'Stift', 'Würfel', 'Kette', 'Brille']","['kaputt', 'rustikal', 'niedlich', 'flach', 'lustig', 'winzig', 'dick', 'biegsam', 'verspielt', 'hohl', 'kalt', 'neu', 'matt', 'bunt', 'durchsichtig', 'blass']",1,1.0354951999615878,None,,,,,,,,,,,,,,,,,,,,,,,,,,,,,,,,,,,,,,,,,,,,,,,,,,,,,,,,,,,,,,,,,,,,,1,2023-12-05_10h51.55.204,watkins1,2023.2.3,99.75957934834813,44,2023-12-05 10h52.03.480158 +0000,
,,,,,,,16,0,16,0,,,,,,,,,,,,,,,,,155.9950109999627,,,,,,,,,,155.9860855001025,156.47711990005337,,,3,1.0381401998456568,,,,,,,,,,,,,,,,,,,,,156.4771320000291,162.48702370002866,Kiste,breit,"['Kiste', 'breit']",restudy_diff,1,"['Kamera', 'Hut', 'Geige', 'Hammer', 'Tasche', 'Socke', 'Schere', 'Ring', 'Tasse', 'Kerze', 'Lampe', 'Buch', 'Jacke', 'Rucksack', 'Uhr', 'Fahrrad', 'Kiste', 'Vase', 'Stift', 'Würfel', 'Kette', 'Brille']","['kaputt', 'rustikal', 'niedlich', 'flach', 'lustig', 'winzig', 'dick', 'biegsam', 'verspielt', 'hohl', 'kalt', 'neu', 'matt', 'bunt', 'durchsichtig', 'blass', 'breit']",3,1.0381401998456568,None,,,,,,,,,,,,,,,,,,,,,,,,,,,,,,,,,,,,,,,,,,,,,,,,,,,,,,,,,,,,,,,,,,,,,1,2023-12-05_10h51.55.204,watkins1,2023.2.3,99.75957934834813,44,2023-12-05 10h52.03.480158 +0000,
,,,,,,,17,0,17,0,,,,,,,,,,,,,,,,,162.49640910001472,,,,,,,,,,162.48750049993396,162.9785216001328,,,2,1.407854599878192,,,,,,,,,,,,,,,,,,,,,162.97853230009787,168.9838723000139,Vase,krumm,"['Vase', 'krumm']",restudy_diff,1,"['Kamera', 'Hut', 'Geige', 'Hammer', 'Tasche', 'Socke', 'Schere', 'Ring', 'Tasse', 'Kerze', 'Lampe', 'Buch', 'Jacke', 'Rucksack', 'Uhr', 'Fahrrad', 'Kiste', 'Vase', 'Stift', 'Würfel', 'Kette', 'Brille']","['kaputt', 'rustikal', 'niedlich', 'flach', 'lustig', 'winzig', 'dick', 'biegsam', 'verspielt', 'hohl', 'kalt', 'neu', 'matt', 'bunt', 'durchsichtig', 'blass', 'breit', 'krumm']",2,1.407854599878192,None,,,,,,,,,,,,,,,,,,,,,,,,,,,,,,,,,,,,,,,,,,,,,,,,,,,,,,,,,,,,,,,,,,,,,1,2023-12-05_10h51.55.204,watkins1,2023.2.3,99.75957934834813,44,2023-12-05 10h52.03.480158 +0000,
,,,,,,,18,0,18,0,,,,,,,,,,,,,,,,,168.99328880012035,,,,,,,,,,168.9843504000455,169.47536400007084,,,3,1.5359190998133272,,,,,,,,,,,,,,,,,,,,,169.47537399991415,175.48359859990887,Stift,kurz,"['Stift', 'kurz']",restudy_diff,1,"['Kamera', 'Hut', 'Geige', 'Hammer', 'Tasche', 'Socke', 'Schere', 'Ring', 'Tasse', 'Kerze', 'Lampe', 'Buch', 'Jacke', 'Rucksack', 'Uhr', 'Fahrrad', 'Kiste', 'Vase', 'Stift', 'Würfel', 'Kette', 'Brille']","['kaputt', 'rustikal', 'niedlich', 'flach', 'lustig', 'winzig', 'dick', 'biegsam', 'verspielt', 'hohl', 'kalt', 'neu', 'matt', 'bunt', 'durchsichtig', 'blass', 'breit', 'krumm', 'kurz']",3,1.5359190998133272,None,,,,,,,,,,,,,,,,,,,,,,,,,,,,,,,,,,,,,,,,,,,,,,,,,,,,,,,,,,,,,,,,,,,,,1,2023-12-05_10h51.55.204,watkins1,2023.2.3,99.75957934834813,44,2023-12-05 10h52.03.480158 +0000,
,,,,,,,19,0,19,0,,,,,,,,,,,,,,,,,175.49313590000384,,,,,,,,,,175.48407140001655,175.975144200027,,,1,1.1391616000328213,,,,,,,,,,,,,,,,,,,,,175.97515420010313,181.9821570001077,Würfel,gut,"['Würfel', 'gut']",control,1,"['Kamera', 'Hut', 'Geige', 'Hammer', 'Tasche', 'Socke', 'Schere', 'Ring', 'Tasse', 'Kerze', 'Lampe', 'Buch', 'Jacke', 'Rucksack', 'Uhr', 'Fahrrad', 'Kiste', 'Vase', 'Stift', 'Würfel', 'Kette', 'Brille']","['kaputt', 'rustikal', 'niedlich', 'flach', 'lustig', 'winzig', 'dick', 'biegsam', 'verspielt', 'hohl', 'kalt', 'neu', 'matt', 'bunt', 'durchsichtig', 'blass', 'breit', 'krumm', 'kurz', 'gut']",1,1.1391616000328213,None,,,,,,,,,,,,,,,,,,,,,,,,,,,,,,,,,,,,,,,,,,,,,,,,,,,,,,,,,,,,,,,,,,,,,1,2023-12-05_10h51.55.204,watkins1,2023.2.3,99.75957934834813,44,2023-12-05 10h52.03.480158 +0000,
,,,,,,,20,0,20,0,,,,,,,,,,,,,,,,,181.991464599967,,,,,,,,,,181.98263280000538,182.4736383999698,,,3,1.3535760999657214,,,,,,,,,,,,,,,,,,,,,182.47364909993485,188.48002879996784,Kette,robust,"['Kette', 'robust']",control,1,"['Kamera', 'Hut', 'Geige', 'Hammer', 'Tasche', 'Socke', 'Schere', 'Ring', 'Tasse', 'Kerze', 'Lampe', 'Buch', 'Jacke', 'Rucksack', 'Uhr', 'Fahrrad', 'Kiste', 'Vase', 'Stift', 'Würfel', 'Kette', 'Brille']","['kaputt', 'rustikal', 'niedlich', 'flach', 'lustig', 'winzig', 'dick', 'biegsam', 'verspielt', 'hohl', 'kalt', 'neu', 'matt', 'bunt', 'durchsichtig', 'blass', 'breit', 'krumm', 'kurz', 'gut', 'robust']",3,1.3535760999657214,None,,,,,,,,,,,,,,,,,,,,,,,,,,,,,,,,,,,,,,,,,,,,,,,,,,,,,,,,,,,,,,,,,,,,,1,2023-12-05_10h51.55.204,watkins1,2023.2.3,99.75957934834813,44,2023-12-05 10h52.03.480158 +0000,
,,,,,,,21,0,21,0,,,,,,,,,,,,,,,,,188.4894678001292,,,,,,,,,,188.48052010009997,188.97154080006294,,,2,1.5993389999493957,,,,,,,,,,,,,,,,,,,,,188.97155210003257,194.97658200003207,Brille,gestreift,"['Brille', 'gestreift']",restudy_diff,1,"['Kamera', 'Hut', 'Geige', 'Hammer', 'Tasche', 'Socke', 'Schere', 'Ring', 'Tasse', 'Kerze', 'Lampe', 'Buch', 'Jacke', 'Rucksack', 'Uhr', 'Fahrrad', 'Kiste', 'Vase', 'Stift', 'Würfel', 'Kette', 'Brille']","['kaputt', 'rustikal', 'niedlich', 'flach', 'lustig', 'winzig', 'dick', 'biegsam', 'verspielt', 'hohl', 'kalt', 'neu', 'matt', 'bunt', 'durchsichtig', 'blass', 'breit', 'krumm', 'kurz', 'gut', 'robust', 'gestreift']",2,1.5993389999493957,None,,,,,,,,,,,,,,,,,,,,,,,,,,,,,,,,,,,,,,,,,,,,,,,,,,,,,,,,,,,,,,,,,,,,,1,2023-12-05_10h51.55.204,watkins1,2023.2.3,99.75957934834813,44,2023-12-05 10h52.03.480158 +0000,
,,,,,,,,,,,0,0,0,0,,,,,,,,,,,,,194.98612540005706,,,,,,,,,,194.9773762000259,195.46816510008648,,,3,1.2646164000034332,,,,,,,,,,,,None,None,,,,,,,,,,Kiste,sauber,"['Kiste', 'sauber']",restudy_diff,1,,,,,,194.97730190004222,194.9773506000638,"['Kiste', 'Vase', 'Kerze', 'Geige', 'Uhr', 'Brille', 'Flasche', 'Rucksack', 'Bürste', 'Tasse', 'Blume', 'Hut', 'Hammer', 'Jacke', 'Socke', 'Ring', 'Eimer', 'Trommel', 'Schlüssel', 'Löffel', 'Telefon', 'Stift', 'Fahrrad']",195.4681760999374,195.47095170011744,None,195.47113239997998,195.4737835000269,None,195.47393209999427,201.4843337999191,3,1.2646164000034332,None,201.48474489990622,201.48610879993066,201.48612209991552,201.4875108001288,,,,,,,,,,,,,,,,,,,,,,,,,,,,,,,,,,,,,,,,,,,,,,,,,,,1,2023-12-05_10h51.55.204,watkins1,2023.2.3,99.75957934834813,44,2023-12-05 10h52.03.480158 +0000,
,,,,,,,,,,,1,0,1,0,,,,,,,,,,,,,201.49375839997083,,,,,,,,,,201.48778680013493,201.98575019999407,,,3,1.011875499971211,,,,,,,,,,,,None,None,,,,,,,,,,Vase,teuer,"['Vase', 'teuer']",restudy_diff,1,,,,,,201.48771860008128,201.48775870003738,"['Kiste', 'Vase', 'Kerze', 'Geige', 'Uhr', 'Brille', 'Flasche', 'Rucksack', 'Bürste', 'Tasse', 'Blume', 'Hut', 'Hammer', 'Jacke', 'Socke', 'Ring', 'Eimer', 'Trommel', 'Schlüssel', 'Löffel', 'Telefon', 'Stift', 'Fahrrad']",201.98576240008697,201.988479899941,None,201.98860320006497,201.9910649000667,None,201.9911698999349,207.9917622001376,3,1.011875499971211,None,207.99205110012554,207.99331960012205,207.99333210010082,207.99450609995984,,,,,,,,,,,,,,,,,,,,,,,,,,,,,,,,,,,,,,,,,,,,,,,,,,,1,2023-12-05_10h51.55.204,watkins1,2023.2.3,99.75957934834813,44,2023-12-05 10h52.03.480158 +0000,
,,,,,,,,,,,2,0,2,0,,,,,,,,,,,,,208.00130430003628,,,,,,,,,,207.99477869994007,208.49347499990836,,,3,1.5122544998303056,,,,,,,,,,,,None,None,,,,,,,,,,Kerze,schlicht,"['Kerze', 'schlicht']",restudy_diff,1,,,,,,207.99471260001883,207.99475189996883,"['Kiste', 'Vase', 'Kerze', 'Geige', 'Uhr', 'Brille', 'Flasche', 'Rucksack', 'Bürste', 'Tasse', 'Blume', 'Hut', 'Hammer', 'Jacke', 'Socke', 'Ring', 'Eimer', 'Trommel', 'Schlüssel', 'Löffel', 'Telefon', 'Stift', 'Fahrrad']",208.49348590010777,208.49627889995463,None,208.49639720004052,208.49892539996654,None,208.49903000006452,214.5062752000522,3,1.5122544998303056,None,214.50655180006288,214.50792829995044,214.5079403000418,214.50917480001226,,,,,,,,,,,,,,,,,,,,,,,,,,,,,,,,,,,,,,,,,,,,,,,,,,,1,2023-12-05_10h51.55.204,watkins1,2023.2.3,99.75957934834813,44,2023-12-05 10h52.03.480158 +0000,
,,,,,,,,,,,3,0,3,0,,,,,,,,,,,,,214.5157053999137,,,,,,,,,,214.5094469001051,215.00772419990972,,,2,1.532793499995023,,,,,,,,,,,,None,None,,,,,,,,,,Geige,glänzend,"['Geige', 'glänzend']",restudy_diff,1,,,,,,214.50938079995103,214.5094203001354,"['Kiste', 'Vase', 'Kerze', 'Geige', 'Uhr', 'Brille', 'Flasche', 'Rucksack', 'Bürste', 'Tasse', 'Blume', 'Hut', 'Hammer', 'Jacke', 'Socke', 'Ring', 'Eimer', 'Trommel', 'Schlüssel', 'Löffel', 'Telefon', 'Stift', 'Fahrrad']",215.00773530011065,215.01050149998628,None,215.0106210000813,215.01322049996816,None,215.01332719996572,221.0213681999594,2,1.532793499995023,None,221.02164570009336,221.02300420007668,221.02301639993675,221.0242560999468,,,,,,,,,,,,,,,,,,,,,,,,,,,,,,,,,,,,,,,,,,,,,,,,,,,1,2023-12-05_10h51.55.204,watkins1,2023.2.3,99.75957934834813,44,2023-12-05 10h52.03.480158 +0000,
,,,,,,,,,,,4,0,4,0,,,,,,,,,,,,,221.03080360009335,,,,,,,,,,221.0245310999453,221.52289539994672,,,1,0.9633173001930118,,,,,,,,,,,,None,None,,,,,,,,,,Uhr,zart,"['Uhr', 'zart']",restudy_diff,1,,,,,,221.02446549991146,221.02450489997864,"['Kiste', 'Vase', 'Kerze', 'Geige', 'Uhr', 'Brille', 'Flasche', 'Rucksack', 'Bürste', 'Tasse', 'Blume', 'Hut', 'Hammer', 'Jacke', 'Socke', 'Ring', 'Eimer', 'Trommel', 'Schlüssel', 'Löffel', 'Telefon', 'Stift', 'Fahrrad']",221.52290569990873,221.52551409997977,None,221.52562929992564,221.52809699997306,None,221.52820100006647,227.53506899997592,1,0.9633173001930118,None,227.5353475001175,227.536501100054,227.53651320002973,227.53755640005693,,,,,,,,,,,,,,,,,,,,,,,,,,,,,,,,,,,,,,,,,,,,,,,,,,,1,2023-12-05_10h51.55.204,watkins1,2023.2.3,99.75957934834813,44,2023-12-05 10h52.03.480158 +0000,
,,,,,,,,,,,5,0,5,0,,,,,,,,,,,,,227.54447470000014,,,,,,,,,,227.5378253001254,228.03698020009324,,,3,1.0732014998793602,,,,,,,,,,,,None,None,,,,,,,,,,Brille,hübsch,"['Brille', 'hübsch']",restudy_diff,1,,,,,,227.53775870008394,227.53779769991525,"['Kiste', 'Vase', 'Kerze', 'Geige', 'Uhr', 'Brille', 'Flasche', 'Rucksack', 'Bürste', 'Tasse', 'Blume', 'Hut', 'Hammer', 'Jacke', 'Socke', 'Ring', 'Eimer', 'Trommel', 'Schlüssel', 'Löffel', 'Telefon', 'Stift', 'Fahrrad']",228.0369909000583,228.0395714000333,None,228.0396912000142,228.04207889991812,None,228.0421802001074,234.0444227999542,3,1.0732014998793602,None,234.0447041001171,234.04601139994338,234.04602369992062,234.04720530007035,,,,,,,,,,,,,,,,,,,,,,,,,,,,,,,,,,,,,,,,,,,,,,,,,,,1,2023-12-05_10h51.55.204,watkins1,2023.2.3,99.75957934834813,44,2023-12-05 10h52.03.480158 +0000,
,,,,,,,,,,,6,0,6,0,,,,,,,,,,,,,234.05384760000743,,,,,,,,,,234.0474767999258,234.54587029991671,,,[],[],,,,,,,,,,,,None,None,,,,,,,,,,Flasche,hässlich,"['Flasche', 'hässlich']",control,1,,,,,,234.04741150001064,234.04745059995912,"['Kiste', 'Vase', 'Kerze', 'Geige', 'Uhr', 'Brille', 'Flasche', 'Rucksack', 'Bürste', 'Tasse', 'Blume', 'Hut', 'Hammer', 'Jacke', 'Socke', 'Ring', 'Eimer', 'Trommel', 'Schlüssel', 'Löffel', 'Telefon', 'Stift', 'Fahrrad']",234.5458810001146,240.55282550002448,3,240.55318149994127,240.5563483000733,None,240.5564669999294,240.55912380013615,None,,,240.55922519997694,240.56041370006278,240.56042520003393,240.56162960012443,1.3762001998256892,None,,,,,,,,,,,,,,,,,,,,,,,,,,,,,,,,,,,,,,,,,,,,,,,,,1,2023-12-05_10h51.55.204,watkins1,2023.2.3,99.75957934834813,44,2023-12-05 10h52.03.480158 +0000,
,,,,,,,,,,,7,0,7,0,,,,,,,,,,,,,240.56528949993663,,,,,,,,,,240.56189569993876,241.05935389990918,,,1,1.356562600005418,,,,,,,,,,,,None,None,,,,,,,,,,Rucksack,lang,"['Rucksack', 'lang']",restudy_diff,1,,,,,,240.5618320000358,240.56187200010754,"['Kiste', 'Vase', 'Kerze', 'Geige', 'Uhr', 'Brille', 'Flasche', 'Rucksack', 'Bürste', 'Tasse', 'Blume', 'Hut', 'Hammer', 'Jacke', 'Socke', 'Ring', 'Eimer', 'Trommel', 'Schlüssel', 'Löffel', 'Telefon', 'Stift', 'Fahrrad']",241.05936460010707,241.0610064000357,None,241.06112600001507,241.06279530003667,None,241.0629003001377,247.0727778999135,1,1.356562600005418,None,247.07305520004593,247.07440949999727,247.0744219000917,247.07562820008025,,,,,,,,,,,,,,,,,,,,,,,,,,,,,,,,,,,,,,,,,,,,,,,,,,,1,2023-12-05_10h51.55.204,watkins1,2023.2.3,99.75957934834813,44,2023-12-05 10h52.03.480158 +0000,
,,,,,,,,,,,8,0,8,0,,,,,,,,,,,,,247.08227479993366,,,,,,,,,,247.075902499957,247.57433420000598,,,[],[],,,,,,,,,,,,None,None,,,,,,,,,,Bürste,schwer,"['Bürste', 'schwer']",control,1,,,,,,247.07583769992925,247.07587709999643,"['Kiste', 'Vase', 'Kerze', 'Geige', 'Uhr', 'Brille', 'Flasche', 'Rucksack', 'Bürste', 'Tasse', 'Blume', 'Hut', 'Hammer', 'Jacke', 'Socke', 'Ring', 'Eimer', 'Trommel', 'Schlüssel', 'Löffel', 'Telefon', 'Stift', 'Fahrrad']",247.5743448000867,253.58036289992742,3,253.58064300008118,253.58343260013498,None,253.58353870012797,253.5860961000435,None,,,253.58619950013235,253.58738519996405,253.58739689993672,253.58857070002705,1.7728262001182884,None,,,,,,,,,,,,,,,,,,,,,,,,,,,,,,,,,,,,,,,,,,,,,,,,,1,2023-12-05_10h51.55.204,watkins1,2023.2.3,99.75957934834813,44,2023-12-05 10h52.03.480158 +0000,
,,,,,,,,,,,9,0,9,0,,,,,,,,,,,,,253.59218239993788,,,,,,,,,,253.58884360012598,254.08541820012033,,,1,1.1221763999201357,,,,,,,,,,,,None,None,,,,,,,,,,Tasse,kratzig,"['Tasse', 'kratzig']",restudy_diff,1,,,,,,253.58877949998714,253.58881910005584,"['Kiste', 'Vase', 'Kerze', 'Geige', 'Uhr', 'Brille', 'Flasche', 'Rucksack', 'Bürste', 'Tasse', 'Blume', 'Hut', 'Hammer', 'Jacke', 'Socke', 'Ring', 'Eimer', 'Trommel', 'Schlüssel', 'Löffel', 'Telefon', 'Stift', 'Fahrrad']",254.08542939997278,254.08700980013236,None,254.08712940011173,254.0888668000698,None,254.0890033999458,260.0976227000356,1,1.1221763999201357,None,260.09789930004627,260.0992346999701,260.0992475999519,260.10046919994056,,,,,,,,,,,,,,,,,,,,,,,,,,,,,,,,,,,,,,,,,,,,,,,,,,,1,2023-12-05_10h51.55.204,watkins1,2023.2.3,99.75957934834813,44,2023-12-05 10h52.03.480158 +0000,
,,,,,,,,,,,10,0,10,0,,,,,,,,,,,,,260.1070604000706,,,,,,,,,,260.1007431000471,260.5991303001065,,,[],[],,,,,,,,,,,,None,None,,,,,,,,,,Blume,klobig,"['Blume', 'klobig']",control,1,,,,,,260.1006771000102,260.1007169999648,"['Kiste', 'Vase', 'Kerze', 'Geige', 'Uhr', 'Brille', 'Flasche', 'Rucksack', 'Bürste', 'Tasse', 'Blume', 'Hut', 'Hammer', 'Jacke', 'Socke', 'Ring', 'Eimer', 'Trommel', 'Schlüssel', 'Löffel', 'Telefon', 'Stift', 'Fahrrad']",260.59914089995436,266.6030413999688,1,266.6033216000069,266.60604609991424,None,266.60615319991484,266.60880249994807,None,,,266.6089057000354,266.6100737999659,266.61008560005575,266.61127190012485,0.9640092998743057,None,,,,,,,,,,,,,,,,,,,,,,,,,,,,,,,,,,,,,,,,,,,,,,,,,1,2023-12-05_10h51.55.204,watkins1,2023.2.3,99.75957934834813,44,2023-12-05 10h52.03.480158 +0000,
,,,,,,,,,,,11,0,11,0,,,,,,,,,,,,,266.61488489992917,,,,,,,,,,266.61154690012336,267.1081745000556,,,2,1.9558617998845875,,,,,,,,,,,,None,None,,,,,,,,,,Hut,sportlich,"['Hut', 'sportlich']",restudy_diff,1,,,,,,266.6114815999754,266.6115224000532,"['Kiste', 'Vase', 'Kerze', 'Geige', 'Uhr', 'Brille', 'Flasche', 'Rucksack', 'Bürste', 'Tasse', 'Blume', 'Hut', 'Hammer', 'Jacke', 'Socke', 'Ring', 'Eimer', 'Trommel', 'Schlüssel', 'Löffel', 'Telefon', 'Stift', 'Fahrrad']",267.1081860999111,267.1096318999771,None,267.10975320008583,267.11107120011,None,267.11117870011367,273.11712900013663,2,1.9558617998845875,None,273.1174075000454,273.11866339994594,273.11867580004036,273.1199775999412,,,,,,,,,,,,,,,,,,,,,,,,,,,,,,,,,,,,,,,,,,,,,,,,,,,1,2023-12-05_10h51.55.204,watkins1,2023.2.3,99.75957934834813,44,2023-12-05 10h52.03.480158 +0000,
,,,,,,,,,,,12,0,12,0,,,,,,,,,,,,,273.1265459000133,,,,,,,,,,273.1202545000706,273.61860259994864,,,1,1.211097199935466,,,,,,,,,,,,None,None,,,,,,,,,,Hammer,nass,"['Hammer', 'nass']",restudy_diff,1,,,,,,273.12018830003217,273.1202285999898,"['Kiste', 'Vase', 'Kerze', 'Geige', 'Uhr', 'Brille', 'Flasche', 'Rucksack', 'Bürste', 'Tasse', 'Blume', 'Hut', 'Hammer', 'Jacke', 'Socke', 'Ring', 'Eimer', 'Trommel', 'Schlüssel', 'Löffel', 'Telefon', 'Stift', 'Fahrrad']",273.61861320002936,273.6214083000086,None,273.62152700009756,273.62417410011403,None,273.6242792000994,279.63124060002156,1,1.211097199935466,None,279.63151720003225,279.6329328001011,279.6329449999612,279.633993400028,,,,,,,,,,,,,,,,,,,,,,,,,,,,,,,,,,,,,,,,,,,,,,,,,,,1,2023-12-05_10h51.55.204,watkins1,2023.2.3,99.75957934834813,44,2023-12-05 10h52.03.480158 +0000,
,,,,,,,,,,,13,0,13,0,,,,,,,,,,,,,279.64062869991176,,,,,,,,,,279.6342698999215,280.13282970013097,,,3,1.489096499979496,,,,,,,,,,,,None,None,,,,,,,,,,Jacke,praktisch,"['Jacke', 'praktisch']",restudy_diff,1,,,,,,279.6342043001205,279.63424409995787,"['Kiste', 'Vase', 'Kerze', 'Geige', 'Uhr', 'Brille', 'Flasche', 'Rucksack', 'Bürste', 'Tasse', 'Blume', 'Hut', 'Hammer', 'Jacke', 'Socke', 'Ring', 'Eimer', 'Trommel', 'Schlüssel', 'Löffel', 'Telefon', 'Stift', 'Fahrrad']",280.1328406999819,280.1354082999751,None,280.1355274999514,280.13794549996965,None,280.1380489000585,286.1478812000714,3,1.489096499979496,None,286.14815969998017,286.14947880012915,286.1494907999877,286.15086270007305,,,,,,,,,,,,,,,,,,,,,,,,,,,,,,,,,,,,,,,,,,,,,,,,,,,1,2023-12-05_10h51.55.204,watkins1,2023.2.3,99.75957934834813,44,2023-12-05 10h52.03.480158 +0000,
,,,,,,,,,,,14,0,14,0,,,,,,,,,,,,,286.1572702000849,,,,,,,,,,286.15113559993915,286.6494968000334,,,3,3.292025700211525,,,,,,,,,,,,None,None,,,,,,,,,,Socke,nachhaltig,"['Socke', 'nachhaltig']",restudy_diff,1,,,,,,286.151070300024,286.15110950008966,"['Kiste', 'Vase', 'Kerze', 'Geige', 'Uhr', 'Brille', 'Flasche', 'Rucksack', 'Bürste', 'Tasse', 'Blume', 'Hut', 'Hammer', 'Jacke', 'Socke', 'Ring', 'Eimer', 'Trommel', 'Schlüssel', 'Löffel', 'Telefon', 'Stift', 'Fahrrad']",286.6495076001156,286.65228440007195,None,286.65240469994023,286.655039699981,None,286.65514490008354,292.6621757000685,3,3.292025700211525,None,292.66245539998636,292.6637586001307,292.6637709001079,292.6651707999408,,,,,,,,,,,,,,,,,,,,,,,,,,,,,,,,,,,,,,,,,,,,,,,,,,,1,2023-12-05_10h51.55.204,watkins1,2023.2.3,99.75957934834813,44,2023-12-05 10h52.03.480158 +0000,
,,,,,,,,,,,15,0,15,0,,,,,,,,,,,,,292.6715935000684,,,,,,,,,,292.66544319991954,293.1636063000187,,,2,2.0902899000793695,,,,,,,,,,,,None,None,,,,,,,,,,Ring,dunkel,"['Ring', 'dunkel']",restudy_diff,1,,,,,,292.6653781000059,292.66541730007157,"['Kiste', 'Vase', 'Kerze', 'Geige', 'Uhr', 'Brille', 'Flasche', 'Rucksack', 'Bürste', 'Tasse', 'Blume', 'Hut', 'Hammer', 'Jacke', 'Socke', 'Ring', 'Eimer', 'Trommel', 'Schlüssel', 'Löffel', 'Telefon', 'Stift', 'Fahrrad']",293.16361710010096,293.16630530008115,None,293.1664237999357,293.1689524000976,None,293.1690569999628,299.17487420002,2,2.0902899000793695,None,299.17515449994244,299.1763337000739,299.1763460000511,299.177549400134,,,,,,,,,,,,,,,,,,,,,,,,,,,,,,,,,,,,,,,,,,,,,,,,,,,1,2023-12-05_10h51.55.204,watkins1,2023.2.3,99.75957934834813,44,2023-12-05 10h52.03.480158 +0000,
,,,,,,,,,,,16,0,16,0,,,,,,,,,,,,,299.1842887001112,,,,,,,,,,299.177821099991,299.67637780006044,,,[],[],,,,,,,,,,,,None,None,,,,,,,,,,Eimer,groß,"['Eimer', 'groß']",control,1,,,,,,299.1777548000682,299.1777949000243,"['Kiste', 'Vase', 'Kerze', 'Geige', 'Uhr', 'Brille', 'Flasche', 'Rucksack', 'Bürste', 'Tasse', 'Blume', 'Hut', 'Hammer', 'Jacke', 'Socke', 'Ring', 'Eimer', 'Trommel', 'Schlüssel', 'Löffel', 'Telefon', 'Stift', 'Fahrrad']",299.676388300024,305.6773507001344,3,305.6776535001118,305.68025860004127,None,305.6803673999384,305.68279589992017,None,,,305.68290000013076,305.68407620000653,305.6840880999807,305.6851546999533,0.9651605999097228,None,,,,,,,,,,,,,,,,,,,,,,,,,,,,,,,,,,,,,,,,,,,,,,,,,1,2023-12-05_10h51.55.204,watkins1,2023.2.3,99.75957934834813,44,2023-12-05 10h52.03.480158 +0000,
,,,,,,,,,,,17,0,17,0,,,,,,,,,,,,,305.6887763000559,,,,,,,,,,305.6854276000522,306.18157789995894,,,[],[],,,,,,,,,,,,None,None,,,,,,,,,,Trommel,flauschig,"['Trommel', 'flauschig']",control,1,,,,,,305.6853622000199,305.68540320009924,"['Kiste', 'Vase', 'Kerze', 'Geige', 'Uhr', 'Brille', 'Flasche', 'Rucksack', 'Bürste', 'Tasse', 'Blume', 'Hut', 'Hammer', 'Jacke', 'Socke', 'Ring', 'Eimer', 'Trommel', 'Schlüssel', 'Löffel', 'Telefon', 'Stift', 'Fahrrad']",306.1815887999255,312.1833518999629,1,312.1836417999584,312.18651199992746,None,312.18661889992654,312.1892917000223,None,,,312.1893955001142,312.190604200121,312.19061599997804,312.19187849992886,1.532817600062117,None,,,,,,,,,,,,,,,,,,,,,,,,,,,,,,,,,,,,,,,,,,,,,,,,,1,2023-12-05_10h51.55.204,watkins1,2023.2.3,99.75957934834813,44,2023-12-05 10h52.03.480158 +0000,
,,,,,,,,,,,18,0,18,0,,,,,,,,,,,,,312.1954814000055,,,,,,,,,,312.19215200003237,312.6891525001265,,,[],[],,,,,,,,,,,,None,None,,,,,,,,,,Schlüssel,glatt,"['Schlüssel', 'glatt']",control,1,,,,,,312.1920878000092,312.19212789996527,"['Kiste', 'Vase', 'Kerze', 'Geige', 'Uhr', 'Brille', 'Flasche', 'Rucksack', 'Bürste', 'Tasse', 'Blume', 'Hut', 'Hammer', 'Jacke', 'Socke', 'Ring', 'Eimer', 'Trommel', 'Schlüssel', 'Löffel', 'Telefon', 'Stift', 'Fahrrad']",312.6891630999744,318.69004240003414,1,318.690326299984,318.69312279997393,None,318.69322940008715,318.6959824000951,None,,,318.69608779996634,318.69738889997825,318.6974007000681,318.69857669994235,1.2656610000412911,None,,,,,,,,,,,,,,,,,,,,,,,,,,,,,,,,,,,,,,,,,,,,,,,,,1,2023-12-05_10h51.55.204,watkins1,2023.2.3,99.75957934834813,44,2023-12-05 10h52.03.480158 +0000,
,,,,,,,,,,,19,0,19,0,,,,,,,,,,,,,318.70222380012274,,,,,,,,,,318.69885260006413,319.1957912000362,,,[],[],,,,,,,,,,,,None,None,,,,,,,,,,Löffel,strahlend,"['Löffel', 'strahlend']",control,1,,,,,,318.6987876999192,318.6988284001127,"['Kiste', 'Vase', 'Kerze', 'Geige', 'Uhr', 'Brille', 'Flasche', 'Rucksack', 'Bürste', 'Tasse', 'Blume', 'Hut', 'Hammer', 'Jacke', 'Socke', 'Ring', 'Eimer', 'Trommel', 'Schlüssel', 'Löffel', 'Telefon', 'Stift', 'Fahrrad']",319.1958023000043,325.2006977000274,1,325.20099029992707,325.2038106000982,None,325.20391579996794,325.2066854001023,None,,,325.206789100077,325.20798430009745,325.20799609995447,325.20925429998897,1.838020000141114,None,,,,,,,,,,,,,,,,,,,,,,,,,,,,,,,,,,,,,,,,,,,,,,,,,1,2023-12-05_10h51.55.204,watkins1,2023.2.3,99.75957934834813,44,2023-12-05 10h52.03.480158 +0000,
,,,,,,,,,,,20,0,20,0,,,,,,,,,,,,,325.2128946001176,,,,,,,,,,325.2095286999829,325.7066732000094,,,[],[],,,,,,,,,,,,None,None,,,,,,,,,,Telefon,elegant,"['Telefon', 'elegant']",control,1,,,,,,325.209462699946,325.20950280013494,"['Kiste', 'Vase', 'Kerze', 'Geige', 'Uhr', 'Brille', 'Flasche', 'Rucksack', 'Bürste', 'Tasse', 'Blume', 'Hut', 'Hammer', 'Jacke', 'Socke', 'Ring', 'Eimer', 'Trommel', 'Schlüssel', 'Löffel', 'Telefon', 'Stift', 'Fahrrad']",325.7066832999699,331.71684330003336,1,331.7171253000852,331.7199653000571,None,331.7200700000394,331.7227314999327,None,,,331.72283819993027,331.72411040007137,331.7241221999284,331.7253185000736,1.2153398001100868,None,,,,,,,,,,,,,,,,,,,,,,,,,,,,,,,,,,,,,,,,,,,,,,,,,1,2023-12-05_10h51.55.204,watkins1,2023.2.3,99.75957934834813,44,2023-12-05 10h52.03.480158 +0000,
,,,,,,,,,,,21,0,21,0,,,,,,,,,,,,,331.7289289999753,,,,,,,,,,331.7255889000371,332.222459099954,,,2,2.8089674999937415,,,,,,,,,,,,None,None,,,,,,,,,,Stift,schmutzig,"['Stift', 'schmutzig']",restudy_diff,1,,,,,,331.72552490001544,331.7255651000887,"['Kiste', 'Vase', 'Kerze', 'Geige', 'Uhr', 'Brille', 'Flasche', 'Rucksack', 'Bürste', 'Tasse', 'Blume', 'Hut', 'Hammer', 'Jacke', 'Socke', 'Ring', 'Eimer', 'Trommel', 'Schlüssel', 'Löffel', 'Telefon', 'Stift', 'Fahrrad']",332.2224701999221,332.2241068999283,None,332.2242312999442,332.2256901001092,None,332.22579729999416,338.23122159997,2,2.8089674999937415,None,338.23150050011463,338.2328149001114,338.2328276000917,338.2340993001126,,,,,,,,,,,,,,,,,,,,,,,,,,,,,,,,,,,,,,,,,,,,,,,,,,,1,2023-12-05_10h51.55.204,watkins1,2023.2.3,99.75957934834813,44,2023-12-05 10h52.03.480158 +0000,
,,,,,,,,,,,22,0,22,0,,,,,,,,,,,,,338.240734500112,,,,,,,,,,338.2343745001126,338.7328999999445,,,2,1.920172399841249,,,,,,,,,,,,None,None,,,,,,,,,,Fahrrad,gepunktet,"['Fahrrad', 'gepunktet']",restudy_diff,1,,,,,,338.23430859996006,338.2343484000303,"['Kiste', 'Vase', 'Kerze', 'Geige', 'Uhr', 'Brille', 'Flasche', 'Rucksack', 'Bürste', 'Tasse', 'Blume', 'Hut', 'Hammer', 'Jacke', 'Socke', 'Ring', 'Eimer', 'Trommel', 'Schlüssel', 'Löffel', 'Telefon', 'Stift', 'Fahrrad']",338.7329110999126,338.7357352001127,None,338.73585429997183,338.73853440000676,None,338.7386398999952,344.74787730001844,2,1.920172399841249,None,344.7481561000459,344.74948989995755,344.7495019999333,344.7507666000165,,,,,,,,,,,,,,,,,,,,,,,,,,,,,,,,,,,,,,,,,,,,,,,,,,,1,2023-12-05_10h51.55.204,watkins1,2023.2.3,99.75957934834813,44,2023-12-05 10h52.03.480158 +0000,
,,,,,,,,,,,,,,,,,,,,,,,,,,,,,,,,,,,,,,,,,,,,,,,,,,,,,,,,,,,,,,,,,,,,,1,,,,,,,,,,,,,,,,,,,,,,,,,,,,,,,,,,,,,,,,,,,,,,,,,,,,,,,,,,,,,,,,,,,,,,,,,,1,2023-12-05_10h51.55.204,watkins1,2023.2.3,99.75957934834813,44,2023-12-05 10h52.03.480158 +0000,
(40 : 5) + 8 = 15 ,Incorrect,button_incorrect,,,,,,,,,,,,,0,0,0,7,,,,,,,,,360.2355673999991,,,,,,,,359.20525890006684,360.20891880011186,,,,,['button_incorrect'],[6.188077500090003],,,,,,,,,,,,,,,,,,,,,,,,,,distractorTask,1,,,,,,,,,,,,,,,,,,,,,,,,,,360.2245326000266,360.2355673999991,366.41731170006096,[-0.40185185185185185],[-0.40185185185185185],[1],[0],[0],[6.188077500090003],['button_incorrect'],366.41800609999336,367.42072769999504,,,,,,,,,,,,,,,,,,,,,,,,,,,,,,,,,,,,,1,2023-12-05_10h51.55.204,watkins1,2023.2.3,99.75957934834813,44,2023-12-05 10h52.03.480158 +0000,
(54 : 6) - 10 = 0 ,Incorrect,button_incorrect,,,,,,,,,,,,,0,1,1,5,,,,,,,,,367.4306789999828,,,,,,,,,,,,,,['button_incorrect'],[5.63122359989211],,,,,,,,,,,,,,,,,,,,,,,,,,distractorTask,1,,,,,,,,,,,,,,,,,,,,,,,,,,367.4209286000114,367.4306789999828,373.05464909994043,[-0.3638888888888889],[-0.37777777777777777],[1],[0],[0],[5.63122359989211],['button_incorrect'],373.0550762999337,374.0583631999325,,,,,,,,,,,,,,,,,,,,,,,,,,,,,,,,,,,,,1,2023-12-05_10h51.55.204,watkins1,2023.2.3,99.75957934834813,44,2023-12-05 10h52.03.480158 +0000,
(4 : 2) + 4 = 6 ,Correct,button_correct,,,,,,,,,,,,,0,2,2,1,,,,,,,,,374.0683558001183,,,,,,,,,,,,,,['button_correct'],[3.4325304001104087],,,,,,,,,,,,,,,,,,,,,,,,,,distractorTask,1,,,,,,,,,,,,,,,,,,,,,,,,,,374.05855720001273,374.0683558001183,377.49324139999226,[0.2759259259259259],[-0.40925925925925927],[1],[0],[0],[3.4325304001104087],['button_correct'],377.4936311999336,378.4968187001068,,,,,,,,,,,,,,,,,,,,,,,,,,,,,,,,,,,,,1,2023-12-05_10h51.55.204,watkins1,2023.2.3,99.75957934834813,44,2023-12-05 10h52.03.480158 +0000,
(25 : 5) + 5 = 9 ,Incorrect,button_incorrect,,,,,,,,,,,,,0,3,3,6,,,,,,,,,378.50675390008837,,,,,,,,,,,,,,['button_incorrect'],[2.236932300031185],,,,,,,,,,,,,,,,,,,,,,,,,,distractorTask,1,,,,,,,,,,,,,,,,,,,,,,,,,,378.49701160006225,378.50675390008837,380.73675099993125,[-0.38333333333333336],[-0.4027777777777778],[1],[0],[0],[2.236932300031185],['button_incorrect'],380.7371378999669,381.74029499990866,,,,,,,,,,,,,,,,,,,,,,,,,,,,,,,,,,,,,1,2023-12-05_10h51.55.204,watkins1,2023.2.3,99.75957934834813,44,2023-12-05 10h52.03.480158 +0000,
(2 x 5) + 3 = 13 ,Correct,button_correct,,,,,,,,,,,,,0,4,4,2,,,,,,,,,381.75039470009506,,,,,,,,,,,,,,['button_correct'],[2.095851399935782],,,,,,,,,,,,,,,,,,,,,,,,,,distractorTask,1,,,,,,,,,,,,,,,,,,,,,,,,,,381.7404871999752,381.75039470009506,383.83938949997537,[0.4],[-0.40370370370370373],[1],[0],[0],[2.095851399935782],['button_correct'],383.8397725999821,384.8430947000161,,,,,,,,,,,,,,,,,,,,,,,,,,,,,,,,,,,,,1,2023-12-05_10h51.55.204,watkins1,2023.2.3,99.75957934834813,44,2023-12-05 10h52.03.480158 +0000,
(6 x 3) + 10 = 27 ,Incorrect,button_incorrect,,,,,,,,,,,,,0,5,5,8,,,,,,,,,384.85317140002735,,,,,,,,,,,,,,['button_incorrect'],[2.548497600015253],,,,,,,,,,,,,,,,,,,,,,,,,,distractorTask,1,,,,,,,,,,,,,,,,,,,,,,,,,,384.84329220000654,384.85317140002735,387.3941290001385,[-0.32685185185185184],[-0.3888888888888889],[1],[0],[0],[2.548497600015253],['button_incorrect'],387.39452650002204,388.3977900000755,,,,,,,,,,,,,,,,,,,,,,,,,,,,,,,,,,,,,1,2023-12-05_10h51.55.204,watkins1,2023.2.3,99.75957934834813,44,2023-12-05 10h52.03.480158 +0000,
(28 : 7) - 3 = 1 ,Correct,button_correct,,,,,,,,,,,,,0,6,6,0,,,,,,,,,388.4078752999194,,,,,,,,,,,,,,['button_correct'],[5.561649800045416],,,,,,,,,,,,,,,,,,,,,,,,,,distractorTask,1,,,,,,,,,,,,,,,,,,,,,,,,,,388.3979841999244,388.4078752999194,393.96135700005107,[0.4027777777777778],[-0.4083333333333333],[1],[0],[0],[5.561649800045416],['button_correct'],393.96174739999697,394.96526490012184,,,,,,,,,,,,,,,,,,,,,,,,,,,,,,,,,,,,,1,2023-12-05_10h51.55.204,watkins1,2023.2.3,99.75957934834813,44,2023-12-05 10h52.03.480158 +0000,
(9 x 5) - 9 = 36 ,Correct,button_correct,,,,,,,,,,,,,0,7,7,4,,,,,,,,,394.9752168999985,,,,,,,,,,,,,,['button_correct'],[7.270035799825564],,,,,,,,,,,,,,,,,,,,,,,,,,distractorTask,1,,,,,,,,,,,,,,,,,,,,,,,,,,394.9654582000803,394.9752168999985,402.23735249997117,[0.3527777777777778],[-0.3972222222222222],[1],[0],[0],[7.270035799825564],['button_correct'],402.2377468999475,403.2409123000689,,,,,,,,,,,,,,,,,,,,,,,,,,,,,,,,,,,,,1,2023-12-05_10h51.55.204,watkins1,2023.2.3,99.75957934834813,44,2023-12-05 10h52.03.480158 +0000,
(7 x 6) + 9 = 48 ,Incorrect,button_incorrect,,,,,,,,,,,,,0,8,8,9,,,,,,,,,403.2508376999758,,,,,,,,,,,,,,['button_incorrect'],[3.131683599902317],,,,,,,,,,,,,,,,,,,,,,,,,,distractorTask,1,,,,,,,,,,,,,,,,,,,,,,,,,,403.24111160007305,403.2508376999758,406.37469430011697,[-0.33611111111111114],[-0.3861111111111111],[1],[0],[0],[3.131683599902317],['button_incorrect'],406.37509629991837,407.3782639000565,,,,,,,,,,,,,,,,,,,,,,,,,,,,,,,,,,,,,1,2023-12-05_10h51.55.204,watkins1,2023.2.3,99.75957934834813,44,2023-12-05 10h52.03.480158 +0000,
(80 : 10) + 9 = 17 ,Correct,button_correct,,,,,,,,,,,,,0,9,9,3,,,,,,,,,407.38825680012815,,,,,,,,,,,,,,['button_correct'],[3.241651999996975],,,,,,,,,,,,,,,,,,,,,,,,,,distractorTask,1,,,,,,,,,,,,,,,,,,,,,,,,,,407.3784638000652,407.38825680012815,410.62197949993424,[0.3574074074074074],[-0.3925925925925926],[1],[0],[0],[3.241651999996975],['button_correct'],410.6223653999623,411.6257372999098,,,,,,,,,,,,,,,,,,,,,,,,,,,,,,,,,,,,,1,2023-12-05_10h51.55.204,watkins1,2023.2.3,99.75957934834813,44,2023-12-05 10h52.03.480158 +0000,
,,,,,,,,,,,,,,,,,,,,,,,,,,,,,,,,,,,,,,,,,,,,,,,,,,,,,,,,,,,,,,,,,,,,,1,,,,,,,,,,,,,,,,,,,,,,,,,,,,,,,,,,,,,,,,,,,,,,,,,,,,,,,,,,,,,,,,,,,,,,,,,,1,2023-12-05_10h51.55.204,watkins1,2023.2.3,99.75957934834813,44,2023-12-05 10h52.03.480158 +0000,
,,,,,,,,,,,,,,,,,,,0,0,0,0,,,,,423.6037393999286,,,,,,,,,,,,,,Hut,8.764084100024775,,,,,,,,,,,,5.080661999993026,None,,,,,,,,,,,,,freeRecallSub,1,,,,,,,,,,,,,,,,,,,,,,,,,,,,,,,,,,,,,,423.59512630011886,423.6037393999286,423.6037393999286,432.37034230004065,return,8.764084100024775,None,Hut,[0.03981481481481482],[0.046296296296296294],[1],[0],[0],[3.191847200039774],[],,,,,,,,,,,,,,,,,,,,,,1,2023-12-05_10h51.55.204,watkins1,2023.2.3,99.75957934834813,44,2023-12-05 10h52.03.480158 +0000,
,,,,,,,,,,,,,,,,,,,1,0,1,0,,,,,432.3824622000102,,,,,,,,,,,,,,Fahrrad,5.273540300084278,,,,,,,,,,,,1.9199830999132246,None,,,,,,,,,,,,,freeRecallSub,1,,,,,,,,,,,,,,,,,,,,,,,,,,,,,,,,,,,,,,432.37221570010297,432.3824622000102,432.3824622000102,437.6659506999422,return,5.273540300084278,None,Fahrrad,[],[],[],[],[],[],[],,,,,,,,,,,,,,,,,,,,,,1,2023-12-05_10h51.55.204,watkins1,2023.2.3,99.75957934834813,44,2023-12-05 10h52.03.480158 +0000,
,,,,,,,,,,,,,,,,,,,2,0,2,0,,,,,437.6770049999468,,,,,,,,,,,,,,Schlüssel,4.1148349000141025,,,,,,,,,,,,1.406064199982211,None,,,,,,,,,,,,,freeRecallSub,1,,,,,,,,,,,,,,,,,,,,,,,,,,,,,,,,,,,,,,437.6672239000909,437.6770049999468,437.6770049999468,441.7946005000267,return,4.1148349000141025,None,Schlüssel,[],[],[],[],[],[],[],,,,,,,,,,,,,,,,,,,,,,1,2023-12-05_10h51.55.204,watkins1,2023.2.3,99.75957934834813,44,2023-12-05 10h52.03.480158 +0000,
,,,,,,,,,,,,,,,,,,,3,0,3,0,,,,,441.80587209993973,,,,,,,,,,,,,,Socke,6.9941111002117395,,,,,,,,,,,,3.9171200001146644,None,,,,,,,,,,,,,freeRecallSub,1,,,,,,,,,,,,,,,,,,,,,,,,,,,,,,,,,,,,,,441.79586660000496,441.80587209993973,441.80587209993973,448.80576390004717,return,6.9941111002117395,None,Socke,[],[],[],[],[],[],[],,,,,,,,,,,,,,,,,,,,,,1,2023-12-05_10h51.55.204,watkins1,2023.2.3,99.75957934834813,44,2023-12-05 10h52.03.480158 +0000,
,,,,,,,,,,,,,,,,,,,4,0,4,0,,,,,448.8170326000545,,,,,,,,,,,,,,Eimer,6.662901399889961,,,,,,,,,,,,5.553740700008348,None,,,,,,,,,,,,,freeRecallSub,1,,,,,,,,,,,,,,,,,,,,,,,,,,,,,,,,,,,,,,448.80703169992194,448.8170326000545,448.8170326000545,455.48551449994557,return,6.662901399889961,None,Eimer,[],[],[],[],[],[],[],,,,,,,,,,,,,,,,,,,,,,1,2023-12-05_10h51.55.204,watkins1,2023.2.3,99.75957934834813,44,2023-12-05 10h52.03.480158 +0000,
,,,,,,,,,,,,,,,,,,,5,0,5,0,,,,,455.49697620002553,,,,,,,,,,,,,,Jacke,7.878811299800873,,,,,,,,,,,,6.4980272999964654,None,,,,,,,,,,,,,freeRecallSub,1,,,,,,,,,,,,,,,,,,,,,,,,,,,,,,,,,,,,,,455.486753199948,455.49697620002553,455.49697620002553,463.3807808000129,return,7.878811299800873,None,Jacke,[],[],[],[],[],[],[],,,,,,,,,,,,,,,,,,,,,,1,2023-12-05_10h51.55.204,watkins1,2023.2.3,99.75957934834813,44,2023-12-05 10h52.03.480158 +0000,
,,,,,,,,,,,,,,,,,,,6,0,6,0,,,,,463.39249940006994,,,,,,,,,,,,,,Flasche,6.8554100000765175,,,,,,,,,,,,3.787577500101179,None,,,,,,,,,,,,,freeRecallSub,1,,,,,,,,,,,,,,,,,,,,,,,,,,,,,,,,,,,,,,463.3820535999257,463.39249940006994,463.39249940006994,470.25236849999055,return,6.8554100000765175,None,Flasche,[],[],[],[],[],[],[],,,,,,,,,,,,,,,,,,,,,,1,2023-12-05_10h51.55.204,watkins1,2023.2.3,99.75957934834813,44,2023-12-05 10h52.03.480158 +0000,
,,,,,,,,,,,,,,,,,,,7,0,7,0,,,,,470.26395980012603,,,,,,,,,,,,,,Brille,17.855940999928862,,,,,,,,,,,,16.66201029997319,None,,,,,,,,,,,,,freeRecallSub,1,,,,,,,,,,,,,,,,,,,,,,,,,,,,,,,,,,,,,,470.25363470008597,470.26395980012603,470.26395980012603,488.12072030012496,return,17.855940999928862,None,Brille,[],[],[],[],[],[],[],,,,,,,,,,,,,,,,,,,,,,1,2023-12-05_10h51.55.204,watkins1,2023.2.3,99.75957934834813,44,2023-12-05 10h52.03.480158 +0000,
,,,,,,,,,,,,,,,,,,,8,0,8,0,,,,,488.1326456000097,,,,,,,,,,,,,,Uhr,38.85914419987239,,,,,,,,,,,,37.81941320002079,None,,,,,,,,,,,,,freeRecallSub,1,,,,,,,,,,,,,,,,,,,,,,,,,,,,,,,,,,,,,,488.1219945999328,488.1326456000097,488.1326456000097,526.9960187999532,return,38.85914419987239,None,Uhr,[],[],[],[],[],[],[],,,,,,,,,,,,,,,,,,,,,,1,2023-12-05_10h51.55.204,watkins1,2023.2.3,99.75957934834813,44,2023-12-05 10h52.03.480158 +0000,
,,,,,,,,,,,,,,,,,,,9,0,9,0,,,,,527.0081976999063,,,,,,,,,,,,,,Katze,14.159598199883476,,,,,,,,,,,,12.424510599812493,None,,,,,,,,,,,,,freeRecallSub,1,,,,,,,,,,,,,,,,,,,,,,,,,,,,,,,,,,,,,,526.9973162000533,527.0081976999063,527.0081976999063,541.1692788000219,return,14.159598199883476,None,Katze,[],[],[],[],[],[],[],,,,,,,,,,,,,,,,,,,,,,1,2023-12-05_10h51.55.204,watkins1,2023.2.3,99.75957934834813,44,2023-12-05 10h52.03.480158 +0000,
,,,,,,,,,,,,,,,,,,,10,0,10,0,,,,,541.18181310012,,,,,,,,,,,,,,Hund,1.946035800036043,,,,,,,,,,,,0.8968363001476973,None,,,,,,,,,,,,,freeRecallSub,1,,,,,,,,,,,,,,,,,,,,,,,,,,,,,,,,,,,,,,541.1705547000747,541.18181310012,541.18181310012,543.1319562999997,return,1.946035800036043,None,Hund,[],[],[],[],[],[],[],,,,,,,,,,,,,,,,,,,,,,1,2023-12-05_10h51.55.204,watkins1,2023.2.3,99.75957934834813,44,2023-12-05 10h52.03.480158 +0000,
,,,,,,,,,,,,,,,,,,,11,0,11,0,,,,,543.1443080999888,,,,,,,,,,,,,,,[],,,,,,,,,,,,None,None,,,,,,,,,,,,,freeRecallSub,1,,,,,,,,,,,,,,,,,,,,,,,,,,,,,,,,,,,,,,543.1332173000555,543.1443080999888,543.1443080999888,574.7984808001202,None,,,,[0.30925925925925923],[-0.41388888888888886],[1],[0],[0],[31.66057260008529],"['button_continue', 'continue_text']",,,,,,,,,,,,,,,,,,,,,,1,2023-12-05_10h51.55.204,watkins1,2023.2.3,99.75957934834813,44,2023-12-05 10h52.03.480158 +0000,
,,,,,,,,,,,,,,,,,,,,,,,,,,,,,,,,,,,,,,,,,,,,,,,,,,,,,,,,,,,,,,,,,,,,,1,,,,,,,,,,,,,,,,,,,,,,,,,,,,,,,,,,,,,,,,,,,,,,,,,,,,,,,,,,,,,,,,,,,,,,,,,,1,2023-12-05_10h51.55.204,watkins1,2023.2.3,99.75957934834813,44,2023-12-05 10h52.03.480158 +0000,
,,,,,,,,,,,,,,,,,,,,,,,0,0,0,0,594.7565105000976,,,,,,,,,,620.4639827001374,620.9553541000932,,,Zart,14.147136399988085,,,,,,,,,,,,9.829849899979308,None,,,,,,,,,,Ring,,,cuedRecallAdj,1,,,,,,,,,,,,,,,,,,,,,,,,,,,,,,,,,,,,,,,,,,,,,,,,,,,,,594.7474629001226,594.7565105000976,0,594.7565105000976,608.9058517999947,Dunkel,return,14.147136399988085,None,608.9062507001217,608.9154604000505,608.9154604000505,620.4635900000576,Zart,return,11.540311499964446,None,,,,,1,2023-12-05_10h51.55.204,watkins1,2023.2.3,99.75957934834813,44,2023-12-05 10h52.03.480158 +0000,
,,,,,,,,,,,,,,,,,,,,,,,1,0,1,0,620.9653048000764,,,,,,,,,,627.0412127999589,627.5326215000823,,,teuer,3.2503994000144303,,,,,,,,,,,,1.2343619000166655,None,,,,,,,,,,Vase,,,cuedRecallAdj,1,,,,,,,,,,,,,,,,,,,,,,,,,,,,,,,,,,,,,,,,,,,,,,,,,,,,,620.9556039001327,620.9653048000764,0,620.9653048000764,624.2191677000374,Krumm,return,3.2503994000144303,None,624.2194312999491,624.2288220000919,624.2288220000919,627.0409468000289,teuer,return,2.810841200174764,None,,,,,1,2023-12-05_10h51.55.204,watkins1,2023.2.3,99.75957934834813,44,2023-12-05 10h52.03.480158 +0000,
,,,,,,,,,,,,,,,,,,,,,,,2,0,2,0,627.5425492001232,,,,,,,,,,633.2771604000591,633.7685674999375,,,groß,3.22515879990533,,,,,,,,,,,,1.4141846999991685,None,,,,,,,,,,Kiste,,,cuedRecallAdj,1,,,,,,,,,,,,,,,,,,,,,,,,,,,,,,,,,,,,,,,,,,,,,,,,,,,,,627.5328611999284,627.5425492001232,0,627.5425492001232,630.7772757001221,dreckig,return,3.22515879990533,None,630.7775421000551,630.7861049999483,630.7861049999483,633.2768953000195,groß,return,2.4856384000740945,None,,,,,1,2023-12-05_10h51.55.204,watkins1,2023.2.3,99.75957934834813,44,2023-12-05 10h52.03.480158 +0000,
,,,,,,,,,,,,,,,,,,,,,,,3,0,3,0,633.7785201000515,,,,,,,,,,638.7630380000919,639.2612479000818,,,,4.973152100108564,,,,,,,,,,,,None,None,,,,,,,,,,Schlüssel,,,cuedRecallAdj,1,,,,,,,,,,,,,,,,,,,,,,,,,,,,,,,,,,,,,,,,,,,,,,,,,,,,,633.7688164000865,633.7785201000515,0,633.7785201000515,638.7594856999349,glatt,return,4.973152100108564,None,638.7597509000916,638.7691468000412,638.7691468000412,638.7629349001218,,None,,,,,,,1,2023-12-05_10h51.55.204,watkins1,2023.2.3,99.75957934834813,44,2023-12-05 10h52.03.480158 +0000,
,,,,,,,,,,,,,,,,,,,,,,,4,0,4,0,639.2712977000047,,,,,,,,,,645.7216612000484,646.2203675000928,,,,6.440335399936885,,,,,,,,,,,,None,None,,,,,,,,,,Buch,,,cuedRecallAdj,1,,,,,,,,,,,,,,,,,,,,,,,,,,,,,,,,,,,,,,,,,,,,,,,,,,,,,639.2614899000619,639.2712977000047,0,639.2712977000047,645.7187658001203,dick,return,6.440335399936885,None,645.7190324000549,645.7283145999536,645.7283145999536,645.7215605999809,,None,,,,,,,1,2023-12-05_10h51.55.204,watkins1,2023.2.3,99.75957934834813,44,2023-12-05 10h52.03.480158 +0000,
,,,,,,,,,,,,,,,,,,,,,,,5,0,5,0,646.2303148000501,,,,,,,,,,653.5642441001255,654.0628567000385,,,,7.3293220000341535,,,,,,,,,,,,None,None,,,,,,,,,,Bürste,,,cuedRecallAdj,1,,,,,,,,,,,,,,,,,,,,,,,,,,,,,,,,,,,,,,,,,,,,,,,,,,,,,646.2206161001232,646.2303148000501,0,646.2303148000501,653.5612143999897,schwer,return,7.3293220000341535,None,653.5614801000338,653.5708059000317,653.5708059000317,653.564138200134,,None,,,,,,,1,2023-12-05_10h51.55.204,watkins1,2023.2.3,99.75957934834813,44,2023-12-05 10h52.03.480158 +0000,
,,,,,,,,,,,,,,,,,,,,,,,6,0,6,0,654.0729040999431,,,,,,,,,,663.7338439000305,664.2252812001389,,,teuer,4.438830099999905,,,,,,,,,,,,4.217287699924782,None,,,,,,,,,,Geige,,,cuedRecallAdj,1,,,,,,,,,,,,,,,,,,,,,,,,,,,,,,,,,,,,,,,,,,,,,,,,,,,,,654.0631035000551,654.0729040999431,0,654.0729040999431,658.5216357000172,glänzend,return,4.438830099999905,None,658.5219052999746,658.531356499996,658.531356499996,663.7335818000138,teuer,return,5.196252999827266,None,,,,,1,2023-12-05_10h51.55.204,watkins1,2023.2.3,99.75957934834813,44,2023-12-05 10h52.03.480158 +0000,
,,,,,,,,,,,,,,,,,,,,,,,7,0,7,0,664.235331099946,,,,,,,,,,678.8298347999807,679.3281884000171,,,,14.588310800027102,,,,,,,,,,,,None,None,,,,,,,,,,Blume,,,cuedRecallAdj,1,,,,,,,,,,,,,,,,,,,,,,,,,,,,,,,,,,,,,,,,,,,,,,,,,,,,,664.225529300049,664.235331099946,0,664.235331099946,678.8264659000561,bunt,return,14.588310800027102,None,678.826735700015,678.836033700034,678.836033700034,678.8297333999071,,None,,,,,,,1,2023-12-05_10h51.55.204,watkins1,2023.2.3,99.75957934834813,44,2023-12-05 10h52.03.480158 +0000,
,,,,,,,,,,,,,,,,,,,,,,,8,0,8,0,679.3381298000459,,,,,,,,,,689.5811280000489,690.0722413000185,,,teuer,3.4776296000927687,,,,,,,,,,,,4.457812699954957,None,,,,,,,,,,Jacke,,,cuedRecallAdj,1,,,,,,,,,,,,,,,,,,,,,,,,,,,,,,,,,,,,,,,,,,,,,,,,,,,,,679.3284329001326,679.3381298000459,0,679.3381298000459,682.8228011999745,praktisch,return,3.4776296000927687,None,682.8230666001327,682.832517700037,682.832517700037,689.5808610999957,teuer,return,6.7430310000199825,None,,,,,1,2023-12-05_10h51.55.204,watkins1,2023.2.3,99.75957934834813,44,2023-12-05 10h52.03.480158 +0000,
,,,,,,,,,,,,,,,,,,,,,,,9,0,9,0,690.082155900076,,,,,,,,,,693.2992801000364,693.7980844001286,,,,3.205486899940297,,,,,,,,,,,,None,None,,,,,,,,,,Eimer,,,cuedRecallAdj,1,,,,,,,,,,,,,,,,,,,,,,,,,,,,,,,,,,,,,,,,,,,,,,,,,,,,,690.0724917999469,690.082155900076,0,690.082155900076,693.2959219999611,dreckig,return,3.205486899940297,None,693.2961874001194,693.3057345999405,693.3057345999405,693.2991776999552,,None,,,,,,,1,2023-12-05_10h51.55.204,watkins1,2023.2.3,99.75957934834813,44,2023-12-05 10h52.03.480158 +0000,
,,,,,,,,,,,,,,,,,,,,,,,10,0,10,0,693.8080235999078,,,,,,,,,,698.2596201999113,698.7584285999183,,,,4.439501800108701,,,,,,,,,,,,None,None,,,,,,,,,,Telefon,,,cuedRecallAdj,1,,,,,,,,,,,,,,,,,,,,,,,,,,,,,,,,,,,,,,,,,,,,,,,,,,,,,693.7983319999184,693.8080235999078,0,693.8080235999078,698.2565784999169,teuer,return,4.439501800108701,None,698.2568483001087,698.2662383001298,698.2662383001298,698.2595166000538,,None,,,,,,,1,2023-12-05_10h51.55.204,watkins1,2023.2.3,99.75957934834813,44,2023-12-05 10h52.03.480158 +0000,
,,,,,,,,,,,,,,,,,,,,,,,11,0,11,0,698.7684627999552,,,,,,,,,,704.6466316001024,705.1451622000895,,,,5.871231799945235,,,,,,,,,,,,None,None,,,,,,,,,,Würfel,,,cuedRecallAdj,1,,,,,,,,,,,,,,,,,,,,,,,,,,,,,,,,,,,,,,,,,,,,,,,,,,,,,698.7586831999943,698.7684627999552,0,698.7684627999552,704.6434957999736,unpraktisch,return,5.871231799945235,None,704.6437620001379,704.6531360999215,704.6531360999215,704.6465292000212,,None,,,,,,,1,2023-12-05_10h51.55.204,watkins1,2023.2.3,99.75957934834813,44,2023-12-05 10h52.03.480158 +0000,
,,,,,,,,,,,,,,,,,,,,,,,12,0,12,0,705.1550670000724,,,,,,,,,,712.2453109999187,712.7367207000498,,,winzig,3.628557300195098,,,,,,,,,,,,2.118106300011277,None,,,,,,,,,,Socke,,,cuedRecallAdj,1,,,,,,,,,,,,,,,,,,,,,,,,,,,,,,,,,,,,,,,,,,,,,,,,,,,,,705.1454102999996,705.1550670000724,0,705.1550670000724,708.7907042000443,nachhaltig,return,3.628557300195098,None,708.7909715999849,708.8004169000778,708.8004169000778,712.2450461999979,winzig,return,3.4392043000552803,None,,,,,1,2023-12-05_10h51.55.204,watkins1,2023.2.3,99.75957934834813,44,2023-12-05 10h52.03.480158 +0000,
,,,,,,,,,,,,,,,,,,,,,,,13,0,13,0,712.746673299931,,,,,,,,,,735.7532850999851,736.2447047999594,,,durchsichtig,7.428961500059813,,,,,,,,,,,,2.188455200055614,9.047232500044629,,,,,,,,,,Uhr,,,cuedRecallAdj,1,,,,,,,,,,,,,,,,,,,,,,,,,,,,,,,,,,,,,,,,,,,,,,,,,,,,,712.7369586999994,712.746673299931,0,712.746673299931,720.1781554999761,fein,return,7.428961500059813,None,720.1784155000933,720.187662600074,720.187662600074,735.7530191000551,durchsichtig,return,15.55598820000887,None,,,,,1,2023-12-05_10h51.55.204,watkins1,2023.2.3,99.75957934834813,44,2023-12-05 10h52.03.480158 +0000,
,,,,,,,,,,,,,,,,,,,,,,,14,0,14,0,736.2547717001289,,,,,,,,,,740.2656354999635,740.763633399969,,,,4.000841800123453,,,,,,,,,,,,None,None,,,,,,,,,,Schere,,,cuedRecallAdj,1,,,,,,,,,,,,,,,,,,,,,,,,,,,,,,,,,,,,,,,,,,,,,,,,,,,,,736.2449489999563,736.2547717001289,0,736.2547717001289,740.2619940000586,schwer,return,4.000841800123453,None,740.2622615001164,740.2715378000867,740.2715378000867,740.2655327001121,,None,,,,,,,1,2023-12-05_10h51.55.204,watkins1,2023.2.3,99.75957934834813,44,2023-12-05 10h52.03.480158 +0000,
,,,,,,,,,,,,,,,,,,,,,,,15,0,15,0,740.7735194999259,,,,,,,,,,752.8538969000801,753.3452262000646,,,leicht,6.938031900208443,,,,,,,,,,,,4.176545300055295,None,,,,,,,,,,Brille,,,cuedRecallAdj,1,,,,,,,,,,,,,,,,,,,,,,,,,,,,,,,,,,,,,,,,,,,,,,,,,,,,,740.7638894000556,740.7735194999259,0,740.7735194999259,747.7124667000026,gestreift,return,6.938031900208443,None,747.7127346999478,747.7221282999963,747.7221282999963,752.853631899925,leicht,return,5.125503699993715,None,,,,,1,2023-12-05_10h51.55.204,watkins1,2023.2.3,99.75957934834813,44,2023-12-05 10h52.03.480158 +0000,
,,,,,,,,,,,,,,,,,,,,,,,16,0,16,0,753.355135000078,,,,,,,,,,761.5199774999637,762.0114742000587,,,teuer,4.412490899907425,,,,,,,,,,,,3.0220629000104964,None,,,,,,,,,,Fahrrad,,,cuedRecallAdj,1,,,,,,,,,,,,,,,,,,,,,,,,,,,,,,,,,,,,,,,,,,,,,,,,,,,,,753.3454676000401,753.355135000078,0,753.355135000078,757.7740428000689,gepunktet,return,4.412490899907425,None,757.7743027999531,757.7835987000726,757.7835987000726,761.519713900052,teuer,return,3.727962299948558,None,,,,,1,2023-12-05_10h51.55.204,watkins1,2023.2.3,99.75957934834813,44,2023-12-05 10h52.03.480158 +0000,
,,,,,,,,,,,,,,,,,,,,,,,17,0,17,0,762.0213224999607,,,,,,,,,,766.5607785000466,767.0522980000824,,,groß,2.842342499876395,,,,,,,,,,,,0.7726933998055756,None,,,,,,,,,,Kerze,,,cuedRecallAdj,1,,,,,,,,,,,,,,,,,,,,,,,,,,,,,,,,,,,,,,,,,,,,,,,,,,,,,762.0117268001195,762.0213224999607,0,762.0213224999607,764.8735863999464,hohl,return,2.842342499876395,None,764.8738562001381,764.8833488000091,764.8833488000091,766.5605121999979,groß,return,1.6682512999977916,None,,,,,1,2023-12-05_10h51.55.204,watkins1,2023.2.3,99.75957934834813,44,2023-12-05 10h52.03.480158 +0000,
,,,,,,,,,,,,,,,,,,,,,,,18,0,18,0,767.0622135999147,,,,,,,,,,772.7897270999383,773.2880792000797,,,,5.7213552999310195,,,,,,,,,,,,None,None,,,,,,,,,,Tasche,,,cuedRecallAdj,1,,,,,,,,,,,,,,,,,,,,,,,,,,,,,,,,,,,,,,,,,,,,,,,,,,,,,767.0525460999925,767.0622135999147,0,767.0622135999147,772.7863970999606,dreckig,return,5.7213552999310195,None,772.7866629001219,772.7959511999507,772.7959511999507,772.7896241999697,,None,,,,,,,1,2023-12-05_10h51.55.204,watkins1,2023.2.3,99.75957934834813,44,2023-12-05 10h52.03.480158 +0000,
,,,,,,,,,,,,,,,,,,,,,,,19,0,19,0,773.297772299964,,,,,,,,,,782.1986416999716,782.6970804999582,,,,8.893882599892095,,,,,,,,,,,,None,None,,,,,,,,,,Kamera,,,cuedRecallAdj,1,,,,,,,,,,,,,,,,,,,,,,,,,,,,,,,,,,,,,,,,,,,,,,,,,,,,,773.2883286001161,773.297772299964,0,773.297772299964,782.1954173999839,günstig,return,8.893882599892095,None,782.1956837000325,782.2048975999933,782.2048975999933,782.1985394000076,,None,,,,,,,1,2023-12-05_10h51.55.204,watkins1,2023.2.3,99.75957934834813,44,2023-12-05 10h52.03.480158 +0000,
,,,,,,,,,,,,,,,,,,,,,,,20,0,20,0,782.7070174000692,,,,,,,,,,795.4114514000248,795.9028525000904,,,schick,6.404468599939719,,,,,,,,,,,,4.457770500099286,None,,,,,,,,,,Hut,,,cuedRecallAdj,1,,,,,,,,,,,,,,,,,,,,,,,,,,,,,,,,,,,,,,,,,,,,,,,,,,,,,782.6973282999825,782.7070174000692,0,782.7070174000692,789.1149899999145,sportlich,return,6.404468599939719,None,789.1152560999617,789.1245252999943,789.1245252999943,795.411183899967,schick,return,6.2829420999623835,None,,,,,1,2023-12-05_10h51.55.204,watkins1,2023.2.3,99.75957934834813,44,2023-12-05 10h52.03.480158 +0000,
,,,,,,,,,,,,,,,,,,,,,,,21,0,21,0,795.9128000000492,,,,,,,,,,798.6981746999081,799.1964944999199,,,,2.774770600022748,,,,,,,,,,,,None,None,,,,,,,,,,Flasche,,,cuedRecallAdj,1,,,,,,,,,,,,,,,,,,,,,,,,,,,,,,,,,,,,,,,,,,,,,,,,,,,,,795.9030973000918,795.9128000000492,0,795.9128000000492,798.6948103001341,dreckig,return,2.774770600022748,None,798.6950767000671,798.7043669000268,798.7043669000268,798.6980729999486,,None,,,,,,,1,2023-12-05_10h51.55.204,watkins1,2023.2.3,99.75957934834813,44,2023-12-05 10h52.03.480158 +0000,
,,,,,,,,,,,,,,,,,,,,,,,22,0,22,0,799.2064312999137,,,,,,,,,,809.640538699925,810.1321016999427,,,klein,2.6971295999828726,,,,,,,,,,,,5.903882700018585,None,,,,,,,,,,Stift,,,cuedRecallAdj,1,,,,,,,,,,,,,,,,,,,,,,,,,,,,,,,,,,,,,,,,,,,,,,,,,,,,,799.1967440999579,799.2064312999137,0,799.2064312999137,801.9080930000637,dreckig,return,2.6971295999828726,None,801.9083602000028,801.9176187000703,801.9176187000703,809.6402712999843,klein,return,7.713918800000101,None,,,,,1,2023-12-05_10h51.55.204,watkins1,2023.2.3,99.75957934834813,44,2023-12-05 10h52.03.480158 +0000,
,,,,,,,,,,,,,,,,,,,,,,,23,0,23,0,810.142004400026,,,,,,,,,,822.1022975000087,822.5937145000789,,,praktisch,3.4255867002066225,,,,,,,,,,,,6.837768499972299,None,,,,,,,,,,Rucksack,,,cuedRecallAdj,1,,,,,,,,,,,,,,,,,,,,,,,,,,,,,,,,,,,,,,,,,,,,,,,,,,,,,810.1323524001054,810.142004400026,0,810.142004400026,813.5765422999393,lang,return,3.4255867002066225,None,813.57680670009,813.5862716000993,813.5862716000993,822.102026199922,praktisch,return,8.509306499967352,None,,,,,1,2023-12-05_10h51.55.204,watkins1,2023.2.3,99.75957934834813,44,2023-12-05 10h52.03.480158 +0000,
,,,,,,,,,,,,,,,,,,,,,,,24,0,24,0,822.6036626999266,,,,,,,,,,826.9254064999986,827.4234949999955,,,,4.315906400093809,,,,,,,,,,,,None,None,,,,,,,,,,Löffel,,,cuedRecallAdj,1,,,,,,,,,,,,,,,,,,,,,,,,,,,,,,,,,,,,,,,,,,,,,,,,,,,,,822.5939708999358,822.6036626999266,0,822.6036626999266,826.922020399943,glänzend,return,4.315906400093809,None,826.9222872001119,826.9315391001292,826.9315391001292,826.9253034999128,,None,,,,,,,1,2023-12-05_10h51.55.204,watkins1,2023.2.3,99.75957934834813,44,2023-12-05 10h52.03.480158 +0000,
,,,,,,,,,,,,,,,,,,,,,,,25,0,25,0,827.4334645001218,,,,,,,,,,835.7118627999444,836.2105046000797,,,,8.269947500200942,,,,,,,,,,,,None,None,,,,,,,,,,Lampe,,,cuedRecallAdj,1,,,,,,,,,,,,,,,,,,,,,,,,,,,,,,,,,,,,,,,,,,,,,,,,,,,,,827.4237383001018,827.4334645001218,0,827.4334645001218,835.7087946999818,leuchtend,return,8.269947500200942,None,835.7090614000335,835.7184498999268,835.7184498999268,835.7117584999651,,None,,,,,,,1,2023-12-05_10h51.55.204,watkins1,2023.2.3,99.75957934834813,44,2023-12-05 10h52.03.480158 +0000,
,,,,,,,,,,,,,,,,,,,,,,,26,0,26,0,836.2204656999093,,,,,,,,,,846.6148755999748,847.1062400999945,,,,8.690958899911493,,,,,,,,,,,,1.6962345999199897,None,,,,,,,,,,Tasse,,,cuedRecallAdj,1,,,,,,,,,,,,,,,,,,,,,,,,,,,,,,,,,,,,,,,,,,,,,,,,,,,,,836.2107500000857,836.2204656999093,0,836.2204656999093,844.9176503000781,schlicht ,return,8.690958899911493,None,844.9179158001207,844.9272588000167,844.9272588000167,846.6146041001193,,return,1.6802596000488847,None,,,,,1,2023-12-05_10h51.55.204,watkins1,2023.2.3,99.75957934834813,44,2023-12-05 10h52.03.480158 +0000,
,,,,,,,,,,,,,,,,,,,,,,,27,0,27,0,847.1161945001222,,,,,,,,,,852.7504898000043,853.2418539000209,,,schmal,2.2912965998984873,,,,,,,,,,,,2.288973900023848,None,,,,,,,,,,Hammer,,,cuedRecallAdj,1,,,,,,,,,,,,,,,,,,,,,,,,,,,,,,,,,,,,,,,,,,,,,,,,,,,,,847.1064937999472,847.1161945001222,0,847.1161945001222,849.4161310000345,nass,return,2.2912965998984873,None,849.4163993999828,849.4258061000146,849.4258061000146,852.7502204999328,schmal,return,3.3176736999303102,None,,,,,1,2023-12-05_10h51.55.204,watkins1,2023.2.3,99.75957934834813,44,2023-12-05 10h52.03.480158 +0000,
,,,,,,,,,,,,,,,,,,,,,,,28,0,28,0,853.2517959000543,,,,,,,,,,856.7100146000739,857.2084053000435,,,,3.4516752001363784,,,,,,,,,,,,None,None,,,,,,,,,,Kette,,,cuedRecallAdj,1,,,,,,,,,,,,,,,,,,,,,,,,,,,,,,,,,,,,,,,,,,,,,,,,,,,,,853.2421053999569,853.2517959000543,0,853.2517959000543,856.7067126000766,robust,return,3.4516752001363784,None,856.7069794000126,856.7162651000544,856.7162651000544,856.7099113999866,,None,,,,,,,1,2023-12-05_10h51.55.204,watkins1,2023.2.3,99.75957934834813,44,2023-12-05 10h52.03.480158 +0000,
,,,,,,,,,,,,,,,,,,,,,,,29,0,29,0,857.2183483000845,,,,,,,,,,860.7563245000783,861.2551514999941,,,,3.525019600056112,,,,,,,,,,,,None,None,,,,,,,,,,Trommel,,,cuedRecallAdj,1,,,,,,,,,,,,,,,,,,,,,,,,,,,,,,,,,,,,,,,,,,,,,,,,,,,,,857.2086517999414,857.2183483000845,0,857.2183483000845,860.7532919000369,weich,return,3.525019600056112,None,860.7535572999623,860.7630419000052,860.7630419000052,860.7562210001051,,None,,,,,,,1,2023-12-05_10h51.55.204,watkins1,2023.2.3,99.75957934834813,44,2023-12-05 10h52.03.480158 +0000,
,,,,,,,,,,,,,,,,,,,,,,,,,,,,,,,,,,,,,,,,,,,,,,,,,,,,,,,,,,,,,,,,,,,,,1,,,,,,,,,,,,,,,,,,,,,,,,,,,,,,,,,,,,,,,,,,,,,,,,,,,,,,,,,,,,,,,,,,,,,,861.2719231999945,q,593.1028264998458,None,1,2023-12-05_10h51.55.204,watkins1,2023.2.3,99.75957934834813,44,2023-12-05 10h52.03.480158 +0000,
