Equation,CorrectResponse,Correctbutton,trials_7.thisRepN,trials_7.thisTrialN,trials_7.thisN,trials_7.thisIndex,trials.thisRepN,trials.thisTrialN,trials.thisN,trials.thisIndex,trials_3.thisRepN,trials_3.thisTrialN,trials_3.thisN,trials_3.thisIndex,trials_2.thisRepN,trials_2.thisTrialN,trials_2.thisN,trials_2.thisIndex,trials_4.thisRepN,trials_4.thisTrialN,trials_4.thisN,trials_4.thisIndex,trials_5.thisRepN,trials_5.thisTrialN,trials_5.thisN,trials_5.thisIndex,thisRow.t,notes,code_marius.started,code_marius.stopped,welcome.started,welcome.stopped,instruction_study.started,instruction_study.stopped,fixationcross.started,fixationcross.stopped,blanc.started,blanc.stopped,study_control_probe.started,study_control_probe.stopped,responseKey,responseTime,scale_answer_2.keys,study_control_probe_2.started,study_control_probe_2.stopped,scale_answer_3.keys,scale_answer_3.rt,scale_answer_3.duration,blanc_2.started,blanc_2.stopped,test_attr_probe.started,test_attr_probe.stopped,recalled_attr,firstKeyTime,secondWordTime,blanc_3.started,blanc_3.stopped,test_sub_probe.started,test_sub_probe.stopped,recalled_sub,instruction_probe_end.started,instruction_probe_end.stopped,study.started,study.stopped,substantive,adjective,wordpair,task,condition,liste_sub_phase1,liste_adj_phase1,scale_answer.keys,scale_answer.rt,scale_answer.duration,code_defineWordsInit.started,code_defineWordsInit.stopped,liste_sub_phase2,study_control.started,study_control.stopped,scale_answer_4.keys,restudy_same.started,restudy_same.stopped,scale_answer_5.keys,restudy_different.started,restudy_different.stopped,scale_answer_6.keys,scale_answer_6.rt,scale_answer_6.duration,test_attr.started,test_attr.stopped,test_sub.started,test_sub.stopped,scale_answer_4.rt,scale_answer_4.duration,distractortask.started,equation_text.started,distractortask.stopped,mouse_answer.x,mouse_answer.y,mouse_answer.leftButton,mouse_answer.midButton,mouse_answer.rightButton,mouse_answer.time,mouse_answer.clicked_name,feedback_distractortask.started,feedback_distractortask.stopped,free_recall.started,text_enter.started,key_resp.started,free_recall.stopped,key_resp.keys,key_resp.rt,key_resp.duration,free_recalled_sub,mouse_continue.x,mouse_continue.y,mouse_continue.leftButton,mouse_continue.midButton,mouse_continue.rightButton,mouse_continue.time,mouse_continue.clicked_name,cued_recall.started,text_enter_2.started,correct,key_continue.started,cued_recall.stopped,recalled_attr1,key_continue.keys,key_continue.rt,key_continue.duration,cued_recall_2.started,text_enter_3.started,key_continue_2.started,cued_recall_2.stopped,recalled_attr2,key_continue_2.keys,key_continue_2.rt,key_continue_2.duration,key_resp_8.started,key_resp_8.keys,key_resp_8.rt,key_resp_8.duration,condition,date,expName,psychopyVersion,frameRate,participant,expStart,
,,,,,,,,,,,,,,,,,,,,,,,,,,,,,0.09881460014730692,0.09888100018724799,0.09889000002294779,6.238591100089252,,,,,,,,,,,,,,,,,,,,,,,,,,,,,,,,,,,,,1,,,,,,,,,,,,,,,,,,,,,,,,,,,,,,,,,,,,,,,,,,,,,,,,,,,,,,,,,,,,,,,,,,,,,,,,,,1,2023-11-27_13h47.01.558,watkins1,2023.2.3,99.75092193256201,21,2023-11-27 13h47.08.542835 +0000,
,,,,,,,,,,,,,,,,,,,,,,,,,,,,,,,,,6.238639099989086,55.47209020005539,,,,,,,,,,,,,,,,,,,,,,,,,,,,,,,,,,,1,,,,,,,,,,,,,,,,,,,,,,,,,,,,,,,,,,,,,,,,,,,,,,,,,,,,,,,,,,,,,,,,,,,,,,,,,,1,2023-11-27_13h47.01.558,watkins1,2023.2.3,99.75092193256201,21,2023-11-27 13h47.08.542835 +0000,
,,,0,0,0,0,,,,,,,,,,,,,,,,,,,,,56.48559860000387,,,,,,,,55.47210720018484,56.475565700093284,62.97255600010976,63.4639380001463,56.96769400010817,62.97239230014384,1,2.3924092000816017,None,63.46394870011136,69.46781580010429,1,2.3924092000816017,None,69.46812009997666,69.46814330015332,69.46815050020814,69.46823430014774,,None,None,69.46839589998126,69.4684163001366,69.4684233001899,69.46849590004422,,,,,,,,,,1,,,,,,,,,,,,,,,,,,,,,,,,,,,,,,,,,,,,,,,,,,,,,,,,,,,,,,,,,,,,,,,,,,,,,,,,,,1,2023-11-27_13h47.01.558,watkins1,2023.2.3,99.75092193256201,21,2023-11-27 13h47.08.542835 +0000,
,,,,,,,,,,,,,,,,,,,,,,,,,,,,,,,,,,,,,,,,,,,,,,,,,,,,,,,,,,,,,69.46860620006919,76.55344739998691,,,,,,,1,,,,,,,,,,,,,,,,,,,,,,,,,,,,,,,,,,,,,,,,,,,,,,,,,,,,,,,,,,,,,,,,,,,,,,,,,,1,2023-11-27_13h47.01.558,watkins1,2023.2.3,99.75092193256201,21,2023-11-27 13h47.08.542835 +0000,
,,,,,,,0,0,0,0,,,,,,,,,,,,,,,,,77.56700800010003,,,,,,,,76.55346409999765,77.5569955999963,77.55743840010837,78.04906390001997,,,2,3.791744099929929,,,,,,,,,,,,,,,,,,,,,78.04907490010373,84.05221890006214,Kamera,dick,"['Kamera', 'dick']",restudy_diff,1,"['Kamera', 'Socke', 'Buch', 'Ring', 'Trommel', 'Stift', 'Flasche', 'Schlüssel', 'Uhr', 'Rucksack', 'Vase', 'Geige', 'Hammer', 'Jacke', 'Würfel', 'Telefon', 'Tasche', 'Kerze', 'Brille', 'Kette', 'Lampe', 'Blume']",['dick'],2,3.791744099929929,None,,,,,,,,,,,,,,,,,,,,,,,,,,,,,,,,,,,,,,,,,,,,,,,,,,,,,,,,,,,,,,,,,,,,,1,2023-11-27_13h47.01.558,watkins1,2023.2.3,99.75092193256201,21,2023-11-27 13h47.08.542835 +0000,
,,,,,,,1,0,1,0,,,,,,,,,,,,,,,,,84.0615954999812,,,,,,,,,,84.05281550018117,84.54391740006395,,,1,3.8756194999441504,,,,,,,,,,,,,,,,,,,,,84.54392850003205,90.55194470006973,Socke,kratzig,"['Socke', 'kratzig']",restudy_diff,1,"['Kamera', 'Socke', 'Buch', 'Ring', 'Trommel', 'Stift', 'Flasche', 'Schlüssel', 'Uhr', 'Rucksack', 'Vase', 'Geige', 'Hammer', 'Jacke', 'Würfel', 'Telefon', 'Tasche', 'Kerze', 'Brille', 'Kette', 'Lampe', 'Blume']","['dick', 'kratzig']",1,3.8756194999441504,None,,,,,,,,,,,,,,,,,,,,,,,,,,,,,,,,,,,,,,,,,,,,,,,,,,,,,,,,,,,,,,,,,,,,,1,2023-11-27_13h47.01.558,watkins1,2023.2.3,99.75092193256201,21,2023-11-27 13h47.08.542835 +0000,
,,,,,,,2,0,2,0,,,,,,,,,,,,,,,,,90.56141810002737,,,,,,,,,,90.55242169997655,91.04347799997777,,,3,2.273125199833885,,,,,,,,,,,,,,,,,,,,,91.0434891001787,97.04768030019477,Buch,glatt,"['Buch', 'glatt']",restudy_diff,1,"['Kamera', 'Socke', 'Buch', 'Ring', 'Trommel', 'Stift', 'Flasche', 'Schlüssel', 'Uhr', 'Rucksack', 'Vase', 'Geige', 'Hammer', 'Jacke', 'Würfel', 'Telefon', 'Tasche', 'Kerze', 'Brille', 'Kette', 'Lampe', 'Blume']","['dick', 'kratzig', 'glatt']",3,2.273125199833885,None,,,,,,,,,,,,,,,,,,,,,,,,,,,,,,,,,,,,,,,,,,,,,,,,,,,,,,,,,,,,,,,,,,,,,1,2023-11-27_13h47.01.558,watkins1,2023.2.3,99.75092193256201,21,2023-11-27 13h47.08.542835 +0000,
,,,,,,,3,0,3,0,,,,,,,,,,,,,,,,,97.05706640006974,,,,,,,,,,97.04820610000752,97.53910619998351,,,3,2.689626900013536,,,,,,,,,,,,,,,,,,,,,97.53911780007184,103.54874320002273,Ring,winzig,"['Ring', 'winzig']",restudy_diff,1,"['Kamera', 'Socke', 'Buch', 'Ring', 'Trommel', 'Stift', 'Flasche', 'Schlüssel', 'Uhr', 'Rucksack', 'Vase', 'Geige', 'Hammer', 'Jacke', 'Würfel', 'Telefon', 'Tasche', 'Kerze', 'Brille', 'Kette', 'Lampe', 'Blume']","['dick', 'kratzig', 'glatt', 'winzig']",3,2.689626900013536,None,,,,,,,,,,,,,,,,,,,,,,,,,,,,,,,,,,,,,,,,,,,,,,,,,,,,,,,,,,,,,,,,,,,,,1,2023-11-27_13h47.01.558,watkins1,2023.2.3,99.75092193256201,21,2023-11-27 13h47.08.542835 +0000,
,,,,,,,4,0,4,0,,,,,,,,,,,,,,,,,103.55815260019153,,,,,,,,,,103.54930890002288,104.04036630014889,,,1,2.860732400091365,,,,,,,,,,,,,,,,,,,,,104.0403766001109,110.04426610004157,Trommel,flach,"['Trommel', 'flach']",control,1,"['Kamera', 'Socke', 'Buch', 'Ring', 'Trommel', 'Stift', 'Flasche', 'Schlüssel', 'Uhr', 'Rucksack', 'Vase', 'Geige', 'Hammer', 'Jacke', 'Würfel', 'Telefon', 'Tasche', 'Kerze', 'Brille', 'Kette', 'Lampe', 'Blume']","['dick', 'kratzig', 'glatt', 'winzig', 'flach']",1,2.860732400091365,None,,,,,,,,,,,,,,,,,,,,,,,,,,,,,,,,,,,,,,,,,,,,,,,,,,,,,,,,,,,,,,,,,,,,,1,2023-11-27_13h47.01.558,watkins1,2023.2.3,99.75092193256201,21,2023-11-27 13h47.08.542835 +0000,
,,,,,,,5,0,5,0,,,,,,,,,,,,,,,,,110.05379750020802,,,,,,,,,,110.04474680009298,110.53588380012661,,,1,2.63863329985179,,,,,,,,,,,,,,,,,,,,,110.5358942002058,116.54174670018256,Stift,krumm,"['Stift', 'krumm']",control,1,"['Kamera', 'Socke', 'Buch', 'Ring', 'Trommel', 'Stift', 'Flasche', 'Schlüssel', 'Uhr', 'Rucksack', 'Vase', 'Geige', 'Hammer', 'Jacke', 'Würfel', 'Telefon', 'Tasche', 'Kerze', 'Brille', 'Kette', 'Lampe', 'Blume']","['dick', 'kratzig', 'glatt', 'winzig', 'flach', 'krumm']",1,2.63863329985179,None,,,,,,,,,,,,,,,,,,,,,,,,,,,,,,,,,,,,,,,,,,,,,,,,,,,,,,,,,,,,,,,,,,,,,1,2023-11-27_13h47.01.558,watkins1,2023.2.3,99.75092193256201,21,2023-11-27 13h47.08.542835 +0000,
,,,,,,,6,0,6,0,,,,,,,,,,,,,,,,,116.55117890005931,,,,,,,,,,116.54223470017314,117.03318380005658,,,3,2.867953300010413,,,,,,,,,,,,,,,,,,,,,117.03319460013881,123.0361348001752,Flasche,bunt,"['Flasche', 'bunt']",restudy_diff,1,"['Kamera', 'Socke', 'Buch', 'Ring', 'Trommel', 'Stift', 'Flasche', 'Schlüssel', 'Uhr', 'Rucksack', 'Vase', 'Geige', 'Hammer', 'Jacke', 'Würfel', 'Telefon', 'Tasche', 'Kerze', 'Brille', 'Kette', 'Lampe', 'Blume']","['dick', 'kratzig', 'glatt', 'winzig', 'flach', 'krumm', 'bunt']",3,2.867953300010413,None,,,,,,,,,,,,,,,,,,,,,,,,,,,,,,,,,,,,,,,,,,,,,,,,,,,,,,,,,,,,,,,,,,,,,1,2023-11-27_13h47.01.558,watkins1,2023.2.3,99.75092193256201,21,2023-11-27 13h47.08.542835 +0000,
,,,,,,,7,0,7,0,,,,,,,,,,,,,,,,,123.04556800005957,,,,,,,,,,123.03661340009421,123.52761480002664,,,1,2.277510599931702,,,,,,,,,,,,,,,,,,,,,123.5276254999917,129.5348789000418,Schlüssel,sportlich,"['Schlüssel', 'sportlich']",restudy_diff,1,"['Kamera', 'Socke', 'Buch', 'Ring', 'Trommel', 'Stift', 'Flasche', 'Schlüssel', 'Uhr', 'Rucksack', 'Vase', 'Geige', 'Hammer', 'Jacke', 'Würfel', 'Telefon', 'Tasche', 'Kerze', 'Brille', 'Kette', 'Lampe', 'Blume']","['dick', 'kratzig', 'glatt', 'winzig', 'flach', 'krumm', 'bunt', 'sportlich']",1,2.277510599931702,None,,,,,,,,,,,,,,,,,,,,,,,,,,,,,,,,,,,,,,,,,,,,,,,,,,,,,,,,,,,,,,,,,,,,,1,2023-11-27_13h47.01.558,watkins1,2023.2.3,99.75092193256201,21,2023-11-27 13h47.08.542835 +0000,
,,,,,,,8,0,8,0,,,,,,,,,,,,,,,,,129.54426610004157,,,,,,,,,,129.535357600078,130.02635300019756,,,None,[],,,,,,,,,,,,,,,,,,,,,130.02636380004697,136.02776720002294,Uhr,hübsch,"['Uhr', 'hübsch']",restudy_diff,1,"['Kamera', 'Socke', 'Buch', 'Ring', 'Trommel', 'Stift', 'Flasche', 'Schlüssel', 'Uhr', 'Rucksack', 'Vase', 'Geige', 'Hammer', 'Jacke', 'Würfel', 'Telefon', 'Tasche', 'Kerze', 'Brille', 'Kette', 'Lampe', 'Blume']","['dick', 'kratzig', 'glatt', 'winzig', 'flach', 'krumm', 'bunt', 'sportlich', 'hübsch']",None,,,,,,,,,,,,,,,,,,,,,,,,,,,,,,,,,,,,,,,,,,,,,,,,,,,,,,,,,,,,,,,,,,,,,,,1,2023-11-27_13h47.01.558,watkins1,2023.2.3,99.75092193256201,21,2023-11-27 13h47.08.542835 +0000,
,,,,,,,9,0,9,0,,,,,,,,,,,,,,,,,136.03719440009445,,,,,,,,,,136.02811090019532,136.5192694000434,,,2,2.5029686999041587,,,,,,,,,,,,,,,,,,,,,136.51928080013022,142.52164890011773,Rucksack,gestreift,"['Rucksack', 'gestreift']",control,1,"['Kamera', 'Socke', 'Buch', 'Ring', 'Trommel', 'Stift', 'Flasche', 'Schlüssel', 'Uhr', 'Rucksack', 'Vase', 'Geige', 'Hammer', 'Jacke', 'Würfel', 'Telefon', 'Tasche', 'Kerze', 'Brille', 'Kette', 'Lampe', 'Blume']","['dick', 'kratzig', 'glatt', 'winzig', 'flach', 'krumm', 'bunt', 'sportlich', 'hübsch', 'gestreift']",2,2.5029686999041587,None,,,,,,,,,,,,,,,,,,,,,,,,,,,,,,,,,,,,,,,,,,,,,,,,,,,,,,,,,,,,,,,,,,,,,1,2023-11-27_13h47.01.558,watkins1,2023.2.3,99.75092193256201,21,2023-11-27 13h47.08.542835 +0000,
,,,,,,,10,0,10,0,,,,,,,,,,,,,,,,,142.53106510010548,,,,,,,,,,142.52212200011127,143.01322540012188,,,2,2.0884338999167085,,,,,,,,,,,,,,,,,,,,,143.01323630008847,149.01494370005094,Vase,teuer,"['Vase', 'teuer']",restudy_diff,1,"['Kamera', 'Socke', 'Buch', 'Ring', 'Trommel', 'Stift', 'Flasche', 'Schlüssel', 'Uhr', 'Rucksack', 'Vase', 'Geige', 'Hammer', 'Jacke', 'Würfel', 'Telefon', 'Tasche', 'Kerze', 'Brille', 'Kette', 'Lampe', 'Blume']","['dick', 'kratzig', 'glatt', 'winzig', 'flach', 'krumm', 'bunt', 'sportlich', 'hübsch', 'gestreift', 'teuer']",2,2.0884338999167085,None,,,,,,,,,,,,,,,,,,,,,,,,,,,,,,,,,,,,,,,,,,,,,,,,,,,,,,,,,,,,,,,,,,,,,1,2023-11-27_13h47.01.558,watkins1,2023.2.3,99.75092193256201,21,2023-11-27 13h47.08.542835 +0000,
,,,,,,,11,0,11,0,,,,,,,,,,,,,,,,,149.02448140014894,,,,,,,,,,149.0154209001921,149.50660820002668,,,1,2.0270199000369757,,,,,,,,,,,,,,,,,,,,,149.5066188001074,155.50758030009456,Geige,lang,"['Geige', 'lang']",restudy_diff,1,"['Kamera', 'Socke', 'Buch', 'Ring', 'Trommel', 'Stift', 'Flasche', 'Schlüssel', 'Uhr', 'Rucksack', 'Vase', 'Geige', 'Hammer', 'Jacke', 'Würfel', 'Telefon', 'Tasche', 'Kerze', 'Brille', 'Kette', 'Lampe', 'Blume']","['dick', 'kratzig', 'glatt', 'winzig', 'flach', 'krumm', 'bunt', 'sportlich', 'hübsch', 'gestreift', 'teuer', 'lang']",1,2.0270199000369757,None,,,,,,,,,,,,,,,,,,,,,,,,,,,,,,,,,,,,,,,,,,,,,,,,,,,,,,,,,,,,,,,,,,,,,1,2023-11-27_13h47.01.558,watkins1,2023.2.3,99.75092193256201,21,2023-11-27 13h47.08.542835 +0000,
,,,,,,,12,0,12,0,,,,,,,,,,,,,,,,,155.51702430006117,,,,,,,,,,155.50805230019614,155.99905320000835,,,1,2.710285299923271,,,,,,,,,,,,,,,,,,,,,155.9990642000921,162.00091160018928,Hammer,elegant,"['Hammer', 'elegant']",control,1,"['Kamera', 'Socke', 'Buch', 'Ring', 'Trommel', 'Stift', 'Flasche', 'Schlüssel', 'Uhr', 'Rucksack', 'Vase', 'Geige', 'Hammer', 'Jacke', 'Würfel', 'Telefon', 'Tasche', 'Kerze', 'Brille', 'Kette', 'Lampe', 'Blume']","['dick', 'kratzig', 'glatt', 'winzig', 'flach', 'krumm', 'bunt', 'sportlich', 'hübsch', 'gestreift', 'teuer', 'lang', 'elegant']",1,2.710285299923271,None,,,,,,,,,,,,,,,,,,,,,,,,,,,,,,,,,,,,,,,,,,,,,,,,,,,,,,,,,,,,,,,,,,,,,1,2023-11-27_13h47.01.558,watkins1,2023.2.3,99.75092193256201,21,2023-11-27 13h47.08.542835 +0000,
,,,,,,,13,0,13,0,,,,,,,,,,,,,,,,,162.01039270008914,,,,,,,,,,162.00140180019662,162.4924584000837,,,2,3.6811675999779254,,,,,,,,,,,,,,,,,,,,,162.49246940016747,168.4940845000092,Jacke,dunkel,"['Jacke', 'dunkel']",control,1,"['Kamera', 'Socke', 'Buch', 'Ring', 'Trommel', 'Stift', 'Flasche', 'Schlüssel', 'Uhr', 'Rucksack', 'Vase', 'Geige', 'Hammer', 'Jacke', 'Würfel', 'Telefon', 'Tasche', 'Kerze', 'Brille', 'Kette', 'Lampe', 'Blume']","['dick', 'kratzig', 'glatt', 'winzig', 'flach', 'krumm', 'bunt', 'sportlich', 'hübsch', 'gestreift', 'teuer', 'lang', 'elegant', 'dunkel']",2,3.6811675999779254,None,,,,,,,,,,,,,,,,,,,,,,,,,,,,,,,,,,,,,,,,,,,,,,,,,,,,,,,,,,,,,,,,,,,,,1,2023-11-27_13h47.01.558,watkins1,2023.2.3,99.75092193256201,21,2023-11-27 13h47.08.542835 +0000,
,,,,,,,14,0,14,0,,,,,,,,,,,,,,,,,168.50351050007157,,,,,,,,,,168.49456800008193,168.98555370001122,,,2,2.531767699867487,,,,,,,,,,,,,,,,,,,,,168.98556499998085,174.9945647001732,Würfel,kalt,"['Würfel', 'kalt']",restudy_diff,1,"['Kamera', 'Socke', 'Buch', 'Ring', 'Trommel', 'Stift', 'Flasche', 'Schlüssel', 'Uhr', 'Rucksack', 'Vase', 'Geige', 'Hammer', 'Jacke', 'Würfel', 'Telefon', 'Tasche', 'Kerze', 'Brille', 'Kette', 'Lampe', 'Blume']","['dick', 'kratzig', 'glatt', 'winzig', 'flach', 'krumm', 'bunt', 'sportlich', 'hübsch', 'gestreift', 'teuer', 'lang', 'elegant', 'dunkel', 'kalt']",2,2.531767699867487,None,,,,,,,,,,,,,,,,,,,,,,,,,,,,,,,,,,,,,,,,,,,,,,,,,,,,,,,,,,,,,,,,,,,,,1,2023-11-27_13h47.01.558,watkins1,2023.2.3,99.75092193256201,21,2023-11-27 13h47.08.542835 +0000,
,,,,,,,15,0,15,0,,,,,,,,,,,,,,,,,175.00405200012028,,,,,,,,,,174.9950405000709,175.48600100004114,,,2,4.216315800091252,,,,,,,,,,,,,,,,,,,,,175.48601230001077,181.4931973000057,Telefon,gut,"['Telefon', 'gut']",restudy_diff,1,"['Kamera', 'Socke', 'Buch', 'Ring', 'Trommel', 'Stift', 'Flasche', 'Schlüssel', 'Uhr', 'Rucksack', 'Vase', 'Geige', 'Hammer', 'Jacke', 'Würfel', 'Telefon', 'Tasche', 'Kerze', 'Brille', 'Kette', 'Lampe', 'Blume']","['dick', 'kratzig', 'glatt', 'winzig', 'flach', 'krumm', 'bunt', 'sportlich', 'hübsch', 'gestreift', 'teuer', 'lang', 'elegant', 'dunkel', 'kalt', 'gut']",2,4.216315800091252,None,,,,,,,,,,,,,,,,,,,,,,,,,,,,,,,,,,,,,,,,,,,,,,,,,,,,,,,,,,,,,,,,,,,,,1,2023-11-27_13h47.01.558,watkins1,2023.2.3,99.75092193256201,21,2023-11-27 13h47.08.542835 +0000,
,,,,,,,16,0,16,0,,,,,,,,,,,,,,,,,181.50261460011825,,,,,,,,,,181.4936791001819,181.9846767000854,,,2,4.1574812000617385,,,,,,,,,,,,,,,,,,,,,181.98468750016764,187.988367700018,Tasche,niedlich,"['Tasche', 'niedlich']",restudy_diff,1,"['Kamera', 'Socke', 'Buch', 'Ring', 'Trommel', 'Stift', 'Flasche', 'Schlüssel', 'Uhr', 'Rucksack', 'Vase', 'Geige', 'Hammer', 'Jacke', 'Würfel', 'Telefon', 'Tasche', 'Kerze', 'Brille', 'Kette', 'Lampe', 'Blume']","['dick', 'kratzig', 'glatt', 'winzig', 'flach', 'krumm', 'bunt', 'sportlich', 'hübsch', 'gestreift', 'teuer', 'lang', 'elegant', 'dunkel', 'kalt', 'gut', 'niedlich']",2,4.1574812000617385,None,,,,,,,,,,,,,,,,,,,,,,,,,,,,,,,,,,,,,,,,,,,,,,,,,,,,,,,,,,,,,,,,,,,,,1,2023-11-27_13h47.01.558,watkins1,2023.2.3,99.75092193256201,21,2023-11-27 13h47.08.542835 +0000,
,,,,,,,17,0,17,0,,,,,,,,,,,,,,,,,187.9978397001978,,,,,,,,,,187.98886020015925,188.47983710002154,,,3,2.7181185998488218,,,,,,,,,,,,,,,,,,,,,188.47984799998812,194.48377789999358,Kerze,schlicht,"['Kerze', 'schlicht']",control,1,"['Kamera', 'Socke', 'Buch', 'Ring', 'Trommel', 'Stift', 'Flasche', 'Schlüssel', 'Uhr', 'Rucksack', 'Vase', 'Geige', 'Hammer', 'Jacke', 'Würfel', 'Telefon', 'Tasche', 'Kerze', 'Brille', 'Kette', 'Lampe', 'Blume']","['dick', 'kratzig', 'glatt', 'winzig', 'flach', 'krumm', 'bunt', 'sportlich', 'hübsch', 'gestreift', 'teuer', 'lang', 'elegant', 'dunkel', 'kalt', 'gut', 'niedlich', 'schlicht']",3,2.7181185998488218,None,,,,,,,,,,,,,,,,,,,,,,,,,,,,,,,,,,,,,,,,,,,,,,,,,,,,,,,,,,,,,,,,,,,,,1,2023-11-27_13h47.01.558,watkins1,2023.2.3,99.75092193256201,21,2023-11-27 13h47.08.542835 +0000,
,,,,,,,18,0,18,0,,,,,,,,,,,,,,,,,194.49325180007145,,,,,,,,,,194.48425210011192,194.97531540016644,,,1,1.678907800000161,,,,,,,,,,,,,,,,,,,,,194.97532590012997,200.98470730008557,Brille,flauschig,"['Brille', 'flauschig']",restudy_diff,1,"['Kamera', 'Socke', 'Buch', 'Ring', 'Trommel', 'Stift', 'Flasche', 'Schlüssel', 'Uhr', 'Rucksack', 'Vase', 'Geige', 'Hammer', 'Jacke', 'Würfel', 'Telefon', 'Tasche', 'Kerze', 'Brille', 'Kette', 'Lampe', 'Blume']","['dick', 'kratzig', 'glatt', 'winzig', 'flach', 'krumm', 'bunt', 'sportlich', 'hübsch', 'gestreift', 'teuer', 'lang', 'elegant', 'dunkel', 'kalt', 'gut', 'niedlich', 'schlicht', 'flauschig']",1,1.678907800000161,None,,,,,,,,,,,,,,,,,,,,,,,,,,,,,,,,,,,,,,,,,,,,,,,,,,,,,,,,,,,,,,,,,,,,,1,2023-11-27_13h47.01.558,watkins1,2023.2.3,99.75092193256201,21,2023-11-27 13h47.08.542835 +0000,
,,,,,,,19,0,19,0,,,,,,,,,,,,,,,,,200.9941952000372,,,,,,,,,,200.98520540003665,201.47627700003795,,,1,2.9859618998598307,,,,,,,,,,,,,,,,,,,,,201.47628840012476,207.48359610000625,Kette,gepunktet,"['Kette', 'gepunktet']",control,1,"['Kamera', 'Socke', 'Buch', 'Ring', 'Trommel', 'Stift', 'Flasche', 'Schlüssel', 'Uhr', 'Rucksack', 'Vase', 'Geige', 'Hammer', 'Jacke', 'Würfel', 'Telefon', 'Tasche', 'Kerze', 'Brille', 'Kette', 'Lampe', 'Blume']","['dick', 'kratzig', 'glatt', 'winzig', 'flach', 'krumm', 'bunt', 'sportlich', 'hübsch', 'gestreift', 'teuer', 'lang', 'elegant', 'dunkel', 'kalt', 'gut', 'niedlich', 'schlicht', 'flauschig', 'gepunktet']",1,2.9859618998598307,None,,,,,,,,,,,,,,,,,,,,,,,,,,,,,,,,,,,,,,,,,,,,,,,,,,,,,,,,,,,,,,,,,,,,,1,2023-11-27_13h47.01.558,watkins1,2023.2.3,99.75092193256201,21,2023-11-27 13h47.08.542835 +0000,
,,,,,,,20,0,20,0,,,,,,,,,,,,,,,,,207.4930167000275,,,,,,,,,,207.48407260002568,207.97516710008495,,,1,3.1184678999707103,,,,,,,,,,,,,,,,,,,,,207.97517780005,213.9849978000857,Lampe,matt,"['Lampe', 'matt']",restudy_diff,1,"['Kamera', 'Socke', 'Buch', 'Ring', 'Trommel', 'Stift', 'Flasche', 'Schlüssel', 'Uhr', 'Rucksack', 'Vase', 'Geige', 'Hammer', 'Jacke', 'Würfel', 'Telefon', 'Tasche', 'Kerze', 'Brille', 'Kette', 'Lampe', 'Blume']","['dick', 'kratzig', 'glatt', 'winzig', 'flach', 'krumm', 'bunt', 'sportlich', 'hübsch', 'gestreift', 'teuer', 'lang', 'elegant', 'dunkel', 'kalt', 'gut', 'niedlich', 'schlicht', 'flauschig', 'gepunktet', 'matt']",1,3.1184678999707103,None,,,,,,,,,,,,,,,,,,,,,,,,,,,,,,,,,,,,,,,,,,,,,,,,,,,,,,,,,,,,,,,,,,,,,1,2023-11-27_13h47.01.558,watkins1,2023.2.3,99.75092193256201,21,2023-11-27 13h47.08.542835 +0000,
,,,,,,,21,0,21,0,,,,,,,,,,,,,,,,,213.99446930014528,,,,,,,,,,213.98547399998643,214.4766433001496,,,1,1.7689171999227256,,,,,,,,,,,,,,,,,,,,,214.47665369999595,220.47798570012674,Blume,hässlich,"['Blume', 'hässlich']",restudy_diff,1,"['Kamera', 'Socke', 'Buch', 'Ring', 'Trommel', 'Stift', 'Flasche', 'Schlüssel', 'Uhr', 'Rucksack', 'Vase', 'Geige', 'Hammer', 'Jacke', 'Würfel', 'Telefon', 'Tasche', 'Kerze', 'Brille', 'Kette', 'Lampe', 'Blume']","['dick', 'kratzig', 'glatt', 'winzig', 'flach', 'krumm', 'bunt', 'sportlich', 'hübsch', 'gestreift', 'teuer', 'lang', 'elegant', 'dunkel', 'kalt', 'gut', 'niedlich', 'schlicht', 'flauschig', 'gepunktet', 'matt', 'hässlich']",1,1.7689171999227256,None,,,,,,,,,,,,,,,,,,,,,,,,,,,,,,,,,,,,,,,,,,,,,,,,,,,,,,,,,,,,,,,,,,,,,1,2023-11-27_13h47.01.558,watkins1,2023.2.3,99.75092193256201,21,2023-11-27 13h47.08.542835 +0000,
,,,,,,,,,,,0,0,0,0,,,,,,,,,,,,,220.4874275000766,,,,,,,,,,220.4788079999853,220.96953150001355,,,3,1.471127200173214,,,,,,,,,,,,None,None,,,,,,,,,,Buch,sauber,"['Buch', 'sauber']",restudy_diff,1,,,,,,220.4787198000122,220.47877919999883,"['Buch', 'Tasse', 'Flasche', 'Eimer', 'Ring', 'Schlüssel', 'Uhr', 'Schere', 'Kiste', 'Löffel', 'Vase', 'Würfel', 'Brille', 'Telefon', 'Lampe', 'Fahrrad', 'Socke', 'Geige', 'Bürste', 'Hut', 'Kamera', 'Blume', 'Tasche']",220.96954630012624,220.97222450003028,None,220.9723973001819,220.97492340020835,None,220.97507799998857,226.97717660013586,3,1.471127200173214,None,226.9775723000057,226.9787263001781,226.97873860015534,226.97991800005548,,,,,,,,,,,,,,,,,,,,,,,,,,,,,,,,,,,,,,,,,,,,,,,,,,,1,2023-11-27_13h47.01.558,watkins1,2023.2.3,99.75092193256201,21,2023-11-27 13h47.08.542835 +0000,
,,,,,,,,,,,1,0,1,0,,,,,,,,,,,,,226.9865274000913,,,,,,,,,,226.9801851999946,227.47868400020525,,,[],[],,,,,,,,,,,,None,None,,,,,,,,,,Tasse,verspielt,"['Tasse', 'verspielt']",control,1,,,,,,226.9801213000901,226.98015840002336,"['Buch', 'Tasse', 'Flasche', 'Eimer', 'Ring', 'Schlüssel', 'Uhr', 'Schere', 'Kiste', 'Löffel', 'Vase', 'Würfel', 'Brille', 'Telefon', 'Lampe', 'Fahrrad', 'Socke', 'Geige', 'Bürste', 'Hut', 'Kamera', 'Blume', 'Tasche']",227.47869530017488,233.48537950008176,2,233.48572990018874,233.48849450005218,None,233.4885993001517,233.4912046000827,None,,,233.49130770005286,233.49246120010503,233.49247330008075,233.49372460017912,4.0293077998794615,None,,,,,,,,,,,,,,,,,,,,,,,,,,,,,,,,,,,,,,,,,,,,,,,,,1,2023-11-27_13h47.01.558,watkins1,2023.2.3,99.75092193256201,21,2023-11-27 13h47.08.542835 +0000,
,,,,,,,,,,,2,0,2,0,,,,,,,,,,,,,233.49733990011737,,,,,,,,,,233.4939942001365,233.99069030000828,,,2,2.828365500085056,,,,,,,,,,,,None,None,,,,,,,,,,Flasche,breit,"['Flasche', 'breit']",restudy_diff,1,,,,,,233.49393080011941,233.49396920017898,"['Buch', 'Tasse', 'Flasche', 'Eimer', 'Ring', 'Schlüssel', 'Uhr', 'Schere', 'Kiste', 'Löffel', 'Vase', 'Würfel', 'Brille', 'Telefon', 'Lampe', 'Fahrrad', 'Socke', 'Geige', 'Bürste', 'Hut', 'Kamera', 'Blume', 'Tasche']",233.99070210009813,233.99247750011273,None,233.99259420018643,233.99407490016893,None,233.99417760013603,239.9979688001331,2,2.828365500085056,None,239.9982469000388,239.999594300054,239.9996070000343,240.00079600000754,,,,,,,,,,,,,,,,,,,,,,,,,,,,,,,,,,,,,,,,,,,,,,,,,,,1,2023-11-27_13h47.01.558,watkins1,2023.2.3,99.75092193256201,21,2023-11-27 13h47.08.542835 +0000,
,,,,,,,,,,,3,0,3,0,,,,,,,,,,,,,240.00739110005088,,,,,,,,,,240.00106970011257,240.49949040007778,,,[],[],,,,,,,,,,,,None,None,,,,,,,,,,Eimer,praktisch,"['Eimer', 'praktisch']",control,1,,,,,,240.00100510008633,240.00104300002567,"['Buch', 'Tasse', 'Flasche', 'Eimer', 'Ring', 'Schlüssel', 'Uhr', 'Schere', 'Kiste', 'Löffel', 'Vase', 'Würfel', 'Brille', 'Telefon', 'Lampe', 'Fahrrad', 'Socke', 'Geige', 'Bürste', 'Hut', 'Kamera', 'Blume', 'Tasche']",240.49950120016,246.55345150013454,3,246.55375050008297,246.55674270004965,None,246.55685530020855,246.55966969998553,None,,,246.5597811001353,246.5610359001439,246.56104900012724,246.56241500005126,1.817703900160268,None,,,,,,,,,,,,,,,,,,,,,,,,,,,,,,,,,,,,,,,,,,,,,,,,,1,2023-11-27_13h47.01.558,watkins1,2023.2.3,99.75092193256201,21,2023-11-27 13h47.08.542835 +0000,
,,,,,,,,,,,4,0,4,0,,,,,,,,,,,,,246.5655476001557,,,,,,,,,,246.5626995000057,247.05757190007716,,,1,4.138167500030249,,,,,,,,,,,,None,None,,,,,,,,,,Ring,durchsichtig,"['Ring', 'durchsichtig']",restudy_diff,1,,,,,,246.56263130018488,246.56267330003902,"['Buch', 'Tasse', 'Flasche', 'Eimer', 'Ring', 'Schlüssel', 'Uhr', 'Schere', 'Kiste', 'Löffel', 'Vase', 'Würfel', 'Brille', 'Telefon', 'Lampe', 'Fahrrad', 'Socke', 'Geige', 'Bürste', 'Hut', 'Kamera', 'Blume', 'Tasche']",247.05758310016245,247.05918169999495,None,247.05929720005952,247.06060580001213,None,247.0607076000888,253.06753400014713,1,4.138167500030249,None,253.06781550007872,253.06899810000323,253.06901030009612,253.07033850019798,,,,,,,,,,,,,,,,,,,,,,,,,,,,,,,,,,,,,,,,,,,,,,,,,,,1,2023-11-27_13h47.01.558,watkins1,2023.2.3,99.75092193256201,21,2023-11-27 13h47.08.542835 +0000,
,,,,,,,,,,,5,0,5,0,,,,,,,,,,,,,253.0769127001986,,,,,,,,,,253.07061030017212,253.56906740018167,,,1,2.2556674999650568,,,,,,,,,,,,None,None,,,,,,,,,,Schlüssel,hohl,"['Schlüssel', 'hohl']",restudy_diff,1,,,,,,253.07054450013675,253.0705829001963,"['Buch', 'Tasse', 'Flasche', 'Eimer', 'Ring', 'Schlüssel', 'Uhr', 'Schere', 'Kiste', 'Löffel', 'Vase', 'Würfel', 'Brille', 'Telefon', 'Lampe', 'Fahrrad', 'Socke', 'Geige', 'Bürste', 'Hut', 'Kamera', 'Blume', 'Tasche']",253.56907890015282,253.5719810000155,None,253.57209950010292,253.57498880010098,None,253.575093800202,259.5797944001388,1,2.2556674999650568,None,259.5800737000536,259.5814927001484,259.5815048001241,259.58254420012236,,,,,,,,,,,,,,,,,,,,,,,,,,,,,,,,,,,,,,,,,,,,,,,,,,,1,2023-11-27_13h47.01.558,watkins1,2023.2.3,99.75092193256201,21,2023-11-27 13h47.08.542835 +0000,
,,,,,,,,,,,6,0,6,0,,,,,,,,,,,,,259.58918030001223,,,,,,,,,,259.58281280007213,260.08138590003364,,,1,1.5521716999355704,,,,,,,,,,,,None,None,,,,,,,,,,Uhr,biegsam,"['Uhr', 'biegsam']",restudy_diff,1,,,,,,259.58274910016917,259.58278689999133,"['Buch', 'Tasse', 'Flasche', 'Eimer', 'Ring', 'Schlüssel', 'Uhr', 'Schere', 'Kiste', 'Löffel', 'Vase', 'Würfel', 'Brille', 'Telefon', 'Lampe', 'Fahrrad', 'Socke', 'Geige', 'Bürste', 'Hut', 'Kamera', 'Blume', 'Tasche']",260.0813963999972,260.08377190004103,None,260.0838874001056,260.0861459001899,None,260.08625000016764,266.0899973001797,1,1.5521716999355704,None,266.0902709001675,266.091429800028,266.09144180011936,266.0926394001581,,,,,,,,,,,,,,,,,,,,,,,,,,,,,,,,,,,,,,,,,,,,,,,,,,,1,2023-11-27_13h47.01.558,watkins1,2023.2.3,99.75092193256201,21,2023-11-27 13h47.08.542835 +0000,
,,,,,,,,,,,7,0,7,0,,,,,,,,,,,,,266.0996117000468,,,,,,,,,,266.09290689998306,266.59175640018657,,,[],[],,,,,,,,,,,,None,None,,,,,,,,,,Schere,zart,"['Schere', 'zart']",control,1,,,,,,266.0928419001866,266.09288190002553,"['Buch', 'Tasse', 'Flasche', 'Eimer', 'Ring', 'Schlüssel', 'Uhr', 'Schere', 'Kiste', 'Löffel', 'Vase', 'Würfel', 'Brille', 'Telefon', 'Lampe', 'Fahrrad', 'Socke', 'Geige', 'Bürste', 'Hut', 'Kamera', 'Blume', 'Tasche']",266.5917684000451,272.5943136001006,1,272.5945976001676,272.5975236000959,None,272.59763130010106,272.60006960015744,None,,,272.6001747001428,272.60137740010396,272.6013890001923,272.60243840003386,2.5667164002079517,None,,,,,,,,,,,,,,,,,,,,,,,,,,,,,,,,,,,,,,,,,,,,,,,,,1,2023-11-27_13h47.01.558,watkins1,2023.2.3,99.75092193256201,21,2023-11-27 13h47.08.542835 +0000,
,,,,,,,,,,,8,0,8,0,,,,,,,,,,,,,272.6061311000958,,,,,,,,,,272.6027591000311,273.0994233000092,,,[],[],,,,,,,,,,,,None,None,,,,,,,,,,Kiste,glänzend,"['Kiste', 'glänzend']",control,1,,,,,,272.6026936999988,272.60273470007814,"['Buch', 'Tasse', 'Flasche', 'Eimer', 'Ring', 'Schlüssel', 'Uhr', 'Schere', 'Kiste', 'Löffel', 'Vase', 'Würfel', 'Brille', 'Telefon', 'Lampe', 'Fahrrad', 'Socke', 'Geige', 'Bürste', 'Hut', 'Kamera', 'Blume', 'Tasche']",273.0994355001021,279.1046592001803,2,279.1049353000708,279.1077523001004,None,279.10785800009035,279.1104237001855,None,,,279.1105266001541,279.11167890019715,279.1116909000557,279.1129129000474,3.1785856999922544,None,,,,,,,,,,,,,,,,,,,,,,,,,,,,,,,,,,,,,,,,,,,,,,,,,1,2023-11-27_13h47.01.558,watkins1,2023.2.3,99.75092193256201,21,2023-11-27 13h47.08.542835 +0000,
,,,,,,,,,,,9,0,9,0,,,,,,,,,,,,,279.1165244001895,,,,,,,,,,279.11318780016154,279.60979900020175,,,[],[],,,,,,,,,,,,None,None,,,,,,,,,,Löffel,nachhaltig,"['Löffel', 'nachhaltig']",control,1,,,,,,279.1131245000288,279.11316359997727,"['Buch', 'Tasse', 'Flasche', 'Eimer', 'Ring', 'Schlüssel', 'Uhr', 'Schere', 'Kiste', 'Löffel', 'Vase', 'Würfel', 'Brille', 'Telefon', 'Lampe', 'Fahrrad', 'Socke', 'Geige', 'Bürste', 'Hut', 'Kamera', 'Blume', 'Tasche']",279.6098105001729,285.61378590017557,3,285.61406490020454,285.6169435000047,None,285.61704919999465,285.6196714001708,None,,,285.6197751001455,285.62095860019326,285.6209706000518,285.62222950020805,2.1634356998838484,None,,,,,,,,,,,,,,,,,,,,,,,,,,,,,,,,,,,,,,,,,,,,,,,,,1,2023-11-27_13h47.01.558,watkins1,2023.2.3,99.75092193256201,21,2023-11-27 13h47.08.542835 +0000,
,,,,,,,,,,,10,0,10,0,,,,,,,,,,,,,285.6258583001327,,,,,,,,,,285.622501200065,286.1192532000132,,,3,3.8362521999515593,,,,,,,,,,,,None,None,,,,,,,,,,Vase,kaputt,"['Vase', 'kaputt']",restudy_diff,1,,,,,,285.6224378000479,285.6224768999964,"['Buch', 'Tasse', 'Flasche', 'Eimer', 'Ring', 'Schlüssel', 'Uhr', 'Schere', 'Kiste', 'Löffel', 'Vase', 'Würfel', 'Brille', 'Telefon', 'Lampe', 'Fahrrad', 'Socke', 'Geige', 'Bürste', 'Hut', 'Kamera', 'Blume', 'Tasche']",286.1192644000985,286.1207010000944,None,286.120816900162,286.1221419000067,None,286.1222453999799,292.13055040012114,3,3.8362521999515593,None,292.13082880014554,292.1320658000186,292.1320780001115,292.13329260004684,,,,,,,,,,,,,,,,,,,,,,,,,,,,,,,,,,,,,,,,,,,,,,,,,,,1,2023-11-27_13h47.01.558,watkins1,2023.2.3,99.75092193256201,21,2023-11-27 13h47.08.542835 +0000,
,,,,,,,,,,,11,0,11,0,,,,,,,,,,,,,292.1399078001268,,,,,,,,,,292.13356350013055,292.63199540018104,,,1,1.536737599875778,,,,,,,,,,,,None,None,,,,,,,,,,Würfel,schwer,"['Würfel', 'schwer']",restudy_diff,1,,,,,,292.1334993999917,292.13353760004975,"['Buch', 'Tasse', 'Flasche', 'Eimer', 'Ring', 'Schlüssel', 'Uhr', 'Schere', 'Kiste', 'Löffel', 'Vase', 'Würfel', 'Brille', 'Telefon', 'Lampe', 'Fahrrad', 'Socke', 'Geige', 'Bürste', 'Hut', 'Kamera', 'Blume', 'Tasche']",292.6320077001583,292.6347592000384,None,292.63488090015016,292.6374543001875,None,292.6375584001653,298.6424512001686,1,1.536737599875778,None,298.6427364000119,298.6443665002007,298.6443794001825,298.6455747000873,,,,,,,,,,,,,,,,,,,,,,,,,,,,,,,,,,,,,,,,,,,,,,,,,,,1,2023-11-27_13h47.01.558,watkins1,2023.2.3,99.75092193256201,21,2023-11-27 13h47.08.542835 +0000,
,,,,,,,,,,,12,0,12,0,,,,,,,,,,,,,298.6518242000602,,,,,,,,,,298.64585190010257,299.14406160009094,,,2,2.0087663999293,,,,,,,,,,,,None,None,,,,,,,,,,Brille,schmutzig,"['Brille', 'schmutzig']",restudy_diff,1,,,,,,298.64578600018285,298.6458247001283,"['Buch', 'Tasse', 'Flasche', 'Eimer', 'Ring', 'Schlüssel', 'Uhr', 'Schere', 'Kiste', 'Löffel', 'Vase', 'Würfel', 'Brille', 'Telefon', 'Lampe', 'Fahrrad', 'Socke', 'Geige', 'Bürste', 'Hut', 'Kamera', 'Blume', 'Tasche']",299.1440731000621,299.1468114000745,None,299.14693190017715,299.14948890008964,None,299.1495922000613,305.15906070009805,2,2.0087663999293,None,305.1593575000297,305.1607628001366,305.16077519999817,305.1620341001544,,,,,,,,,,,,,,,,,,,,,,,,,,,,,,,,,,,,,,,,,,,,,,,,,,,1,2023-11-27_13h47.01.558,watkins1,2023.2.3,99.75092193256201,21,2023-11-27 13h47.08.542835 +0000,
,,,,,,,,,,,13,0,13,0,,,,,,,,,,,,,305.1683931001462,,,,,,,,,,305.1623061001301,305.66046040016226,,,2,3.028284600004554,,,,,,,,,,,,None,None,,,,,,,,,,Telefon,robust,"['Telefon', 'robust']",restudy_diff,1,,,,,,305.1622423999943,305.1622796000447,"['Buch', 'Tasse', 'Flasche', 'Eimer', 'Ring', 'Schlüssel', 'Uhr', 'Schere', 'Kiste', 'Löffel', 'Vase', 'Würfel', 'Brille', 'Telefon', 'Lampe', 'Fahrrad', 'Socke', 'Geige', 'Bürste', 'Hut', 'Kamera', 'Blume', 'Tasche']",305.6604714000132,305.6632608000655,None,305.6633785001468,305.66607300005853,None,305.66617510002106,311.67504950007424,2,3.028284600004554,None,311.67532710009255,311.6767339000944,311.67674670019187,311.6779267000966,,,,,,,,,,,,,,,,,,,,,,,,,,,,,,,,,,,,,,,,,,,,,,,,,,,1,2023-11-27_13h47.01.558,watkins1,2023.2.3,99.75092193256201,21,2023-11-27 13h47.08.542835 +0000,
,,,,,,,,,,,14,0,14,0,,,,,,,,,,,,,311.6844885000028,,,,,,,,,,311.6781962001696,312.17648860020563,,,3,1.5205472998786718,,,,,,,,,,,,None,None,,,,,,,,,,Lampe,strahlend,"['Lampe', 'strahlend']",restudy_diff,1,,,,,,311.6781321000308,311.6781701000873,"['Buch', 'Tasse', 'Flasche', 'Eimer', 'Ring', 'Schlüssel', 'Uhr', 'Schere', 'Kiste', 'Löffel', 'Vase', 'Würfel', 'Brille', 'Telefon', 'Lampe', 'Fahrrad', 'Socke', 'Geige', 'Bürste', 'Hut', 'Kamera', 'Blume', 'Tasche']",312.17649960005656,312.17914790008217,None,312.17926120013,312.1817741000559,None,312.18187520001084,318.1922821002081,3,1.5205472998786718,None,318.1925812000409,318.19397400016896,318.19398640003055,318.1952515000012,,,,,,,,,,,,,,,,,,,,,,,,,,,,,,,,,,,,,,,,,,,,,,,,,,,1,2023-11-27_13h47.01.558,watkins1,2023.2.3,99.75092193256201,21,2023-11-27 13h47.08.542835 +0000,
,,,,,,,,,,,15,0,15,0,,,,,,,,,,,,,318.2017292000819,,,,,,,,,,318.1955256999936,318.6936341000255,,,[],[],,,,,,,,,,,,None,None,,,,,,,,,,Fahrrad,neu,"['Fahrrad', 'neu']",control,1,,,,,,318.1954621002078,318.19549990003,"['Buch', 'Tasse', 'Flasche', 'Eimer', 'Ring', 'Schlüssel', 'Uhr', 'Schere', 'Kiste', 'Löffel', 'Vase', 'Würfel', 'Brille', 'Telefon', 'Lampe', 'Fahrrad', 'Socke', 'Geige', 'Bürste', 'Hut', 'Kamera', 'Blume', 'Tasche']",318.69364590011537,324.69515980011784,2,324.6954318000935,324.6979772001505,None,324.6980822000187,324.7004627001006,None,,,324.70056480006315,324.70176920015365,324.70178110012785,324.70279790018685,1.8485801999922842,None,,,,,,,,,,,,,,,,,,,,,,,,,,,,,,,,,,,,,,,,,,,,,,,,,1,2023-11-27_13h47.01.558,watkins1,2023.2.3,99.75092193256201,21,2023-11-27 13h47.08.542835 +0000,
,,,,,,,,,,,16,0,16,0,,,,,,,,,,,,,324.7064920000266,,,,,,,,,,324.7030678000301,325.1994496001862,,,1,2.915748099796474,,,,,,,,,,,,None,None,,,,,,,,,,Socke,klobig,"['Socke', 'klobig']",restudy_diff,1,,,,,,324.70300560002215,324.7030436000787,"['Buch', 'Tasse', 'Flasche', 'Eimer', 'Ring', 'Schlüssel', 'Uhr', 'Schere', 'Kiste', 'Löffel', 'Vase', 'Würfel', 'Brille', 'Telefon', 'Lampe', 'Fahrrad', 'Socke', 'Geige', 'Bürste', 'Hut', 'Kamera', 'Blume', 'Tasche']",325.1994607001543,325.20101530011743,None,325.2011295000557,325.20255440007895,None,325.2026617000811,331.20607700012624,1,2.915748099796474,None,331.2063558001537,331.207680700114,331.20769300009124,331.2088771001436,,,,,,,,,,,,,,,,,,,,,,,,,,,,,,,,,,,,,,,,,,,,,,,,,,,1,2023-11-27_13h47.01.558,watkins1,2023.2.3,99.75092193256201,21,2023-11-27 13h47.08.542835 +0000,
,,,,,,,,,,,17,0,17,0,,,,,,,,,,,,,331.21551040001214,,,,,,,,,,331.2091494000051,331.7076056001242,,,2,2.405399699928239,,,,,,,,,,,,None,None,,,,,,,,,,Geige,kurz,"['Geige', 'kurz']",restudy_diff,1,,,,,,331.2090849999804,331.2091230000369,"['Buch', 'Tasse', 'Flasche', 'Eimer', 'Ring', 'Schlüssel', 'Uhr', 'Schere', 'Kiste', 'Löffel', 'Vase', 'Würfel', 'Brille', 'Telefon', 'Lampe', 'Fahrrad', 'Socke', 'Geige', 'Bürste', 'Hut', 'Kamera', 'Blume', 'Tasche']",331.7076165000908,331.7104493000079,None,331.7105673002079,331.7130971001461,None,331.7132045000326,337.71824770001695,2,2.405399699928239,None,337.71852450002916,337.7198137000669,337.7198260000441,337.72086790017784,,,,,,,,,,,,,,,,,,,,,,,,,,,,,,,,,,,,,,,,,,,,,,,,,,,1,2023-11-27_13h47.01.558,watkins1,2023.2.3,99.75092193256201,21,2023-11-27 13h47.08.542835 +0000,
,,,,,,,,,,,18,0,18,0,,,,,,,,,,,,,337.7276357000228,,,,,,,,,,337.72113930014893,338.21988470014185,,,[],[],,,,,,,,,,,,None,None,,,,,,,,,,Bürste,rustikal,"['Bürste', 'rustikal']",control,1,,,,,,337.72107500000857,337.72111340006813,"['Buch', 'Tasse', 'Flasche', 'Eimer', 'Ring', 'Schlüssel', 'Uhr', 'Schere', 'Kiste', 'Löffel', 'Vase', 'Würfel', 'Brille', 'Telefon', 'Lampe', 'Fahrrad', 'Socke', 'Geige', 'Bürste', 'Hut', 'Kamera', 'Blume', 'Tasche']",338.21989760012366,344.22586510004476,2,344.2261418001726,344.22899700002745,None,344.22910160012543,344.23167790006846,None,,,344.23178350017406,344.2329696000088,344.232981499983,344.234206299996,2.185704000061378,None,,,,,,,,,,,,,,,,,,,,,,,,,,,,,,,,,,,,,,,,,,,,,,,,,1,2023-11-27_13h47.01.558,watkins1,2023.2.3,99.75092193256201,21,2023-11-27 13h47.08.542835 +0000,
,,,,,,,,,,,19,0,19,0,,,,,,,,,,,,,344.23780930018984,,,,,,,,,,344.23447860009037,344.7310754000209,,,[],[],,,,,,,,,,,,None,None,,,,,,,,,,Hut,nass,"['Hut', 'nass']",control,1,,,,,,344.23441420006566,344.23445360013284,"['Buch', 'Tasse', 'Flasche', 'Eimer', 'Ring', 'Schlüssel', 'Uhr', 'Schere', 'Kiste', 'Löffel', 'Vase', 'Würfel', 'Brille', 'Telefon', 'Lampe', 'Fahrrad', 'Socke', 'Geige', 'Bürste', 'Hut', 'Kamera', 'Blume', 'Tasche']",344.73108700010926,350.73994350014254,3,350.74021740001626,350.7426773000043,None,350.74278580001555,350.7450261001941,None,,,350.7451285000425,350.74614310008474,350.7461549001746,350.74719530018046,3.739359200000763,None,,,,,,,,,,,,,,,,,,,,,,,,,,,,,,,,,,,,,,,,,,,,,,,,,1,2023-11-27_13h47.01.558,watkins1,2023.2.3,99.75092193256201,21,2023-11-27 13h47.08.542835 +0000,
,,,,,,,,,,,20,0,20,0,,,,,,,,,,,,,350.75090670003556,,,,,,,,,,350.7474669001531,351.24346240004525,,,3,2.5516884999815375,,,,,,,,,,,,None,None,,,,,,,,,,Kamera,lustig,"['Kamera', 'lustig']",restudy_diff,1,,,,,,350.74740380002186,350.74744290020317,"['Buch', 'Tasse', 'Flasche', 'Eimer', 'Ring', 'Schlüssel', 'Uhr', 'Schere', 'Kiste', 'Löffel', 'Vase', 'Würfel', 'Brille', 'Telefon', 'Lampe', 'Fahrrad', 'Socke', 'Geige', 'Bürste', 'Hut', 'Kamera', 'Blume', 'Tasche']",351.24347350001335,351.24504890013486,None,351.24516460020095,351.2466002001893,None,351.24670320004225,357.252589300042,3,2.5516884999815375,None,357.25286450004205,357.2541640000418,357.2541761000175,357.25556670012884,,,,,,,,,,,,,,,,,,,,,,,,,,,,,,,,,,,,,,,,,,,,,,,,,,,1,2023-11-27_13h47.01.558,watkins1,2023.2.3,99.75092193256201,21,2023-11-27 13h47.08.542835 +0000,
,,,,,,,,,,,21,0,21,0,,,,,,,,,,,,,357.2620218000375,,,,,,,,,,357.2558393999934,357.7541001001373,,,3,3.6220406000502408,,,,,,,,,,,,None,None,,,,,,,,,,Blume,groß,"['Blume', 'groß']",restudy_diff,1,,,,,,357.25577490008436,357.2558133001439,"['Buch', 'Tasse', 'Flasche', 'Eimer', 'Ring', 'Schlüssel', 'Uhr', 'Schere', 'Kiste', 'Löffel', 'Vase', 'Würfel', 'Brille', 'Telefon', 'Lampe', 'Fahrrad', 'Socke', 'Geige', 'Bürste', 'Hut', 'Kamera', 'Blume', 'Tasche']",357.7541120001115,357.7568018999882,None,357.75692000007257,357.75943430000916,None,357.7595408000052,363.7658437001519,3,3.6220406000502408,None,363.7661238000728,363.7675330999773,363.7675453000702,363.768599400064,,,,,,,,,,,,,,,,,,,,,,,,,,,,,,,,,,,,,,,,,,,,,,,,,,,1,2023-11-27_13h47.01.558,watkins1,2023.2.3,99.75092193256201,21,2023-11-27 13h47.08.542835 +0000,
,,,,,,,,,,,22,0,22,0,,,,,,,,,,,,,363.77521980018355,,,,,,,,,,363.76886980002746,364.2674775000196,,,2,1.6694622000213712,,,,,,,,,,,,None,None,,,,,,,,,,Tasche,blass,"['Tasche', 'blass']",restudy_diff,1,,,,,,363.7688061001245,363.768844100181,"['Buch', 'Tasse', 'Flasche', 'Eimer', 'Ring', 'Schlüssel', 'Uhr', 'Schere', 'Kiste', 'Löffel', 'Vase', 'Würfel', 'Brille', 'Telefon', 'Lampe', 'Fahrrad', 'Socke', 'Geige', 'Bürste', 'Hut', 'Kamera', 'Blume', 'Tasche']",364.26748919999227,364.2700668000616,None,364.2701861001551,364.27259630011395,None,364.27270080009475,370.27922150003724,2,1.6694622000213712,None,370.2794987000525,370.2808205001056,370.2808324000798,370.28208330017515,,,,,,,,,,,,,,,,,,,,,,,,,,,,,,,,,,,,,,,,,,,,,,,,,,,1,2023-11-27_13h47.01.558,watkins1,2023.2.3,99.75092193256201,21,2023-11-27 13h47.08.542835 +0000,
,,,,,,,,,,,,,,,,,,,,,,,,,,,,,,,,,,,,,,,,,,,,,,,,,,,,,,,,,,,,,,,,,,,,,1,,,,,,,,,,,,,,,,,,,,,,,,,,,,,,,,,,,,,,,,,,,,,,,,,,,,,,,,,,,,,,,,,,,,,,,,,,1,2023-11-27_13h47.01.558,watkins1,2023.2.3,99.75092193256201,21,2023-11-27 13h47.08.542835 +0000,
(9 x 5) - 9 = 36 ,Correct,button_correct,,,,,,,,,,,,,0,0,0,4,,,,,,,,,401.5831027000677,,,,,,,,400.55223980010487,401.55587470019236,,,,,['button_correct'],[6.137959099840373],,,,,,,,,,,,,,,,,,,,,,,,,,distractorTask,1,,,,,,,,,,,,,,,,,,,,,,,,,,401.5717039001174,401.5831027000677,407.7146614000667,[0.3888888888888889],[-0.38796296296296295],[1],[0],[0],[6.137959099840373],['button_correct'],407.7153573001269,408.7185204999987,,,,,,,,,,,,,,,,,,,,,,,,,,,,,,,,,,,,,1,2023-11-27_13h47.01.558,watkins1,2023.2.3,99.75092193256201,21,2023-11-27 13h47.08.542835 +0000,
(7 x 6) + 9 = 48 ,Incorrect,button_incorrect,,,,,,,,,,,,,0,1,1,9,,,,,,,,,408.72850179998204,,,,,,,,,,,,,,['button_incorrect'],[13.543960500042886],,,,,,,,,,,,,,,,,,,,,,,,,,distractorTask,1,,,,,,,,,,,,,,,,,,,,,,,,,,408.7187162002083,408.72850179998204,422.2658051000908,[-0.3055555555555556],[-0.40370370370370373],[1],[0],[0],[13.543960500042886],['button_incorrect'],422.2661971000489,423.2694175001234,,,,,,,,,,,,,,,,,,,,,,,,,,,,,,,,,,,,,1,2023-11-27_13h47.01.558,watkins1,2023.2.3,99.75092193256201,21,2023-11-27 13h47.08.542835 +0000,
(4 : 2) + 4 = 6 ,Correct,button_correct,,,,,,,,,,,,,0,2,2,1,,,,,,,,,423.27936300006695,,,,,,,,,,,,,,['button_correct'],[3.301606999943033],,,,,,,,,,,,,,,,,,,,,,,,,,distractorTask,1,,,,,,,,,,,,,,,,,,,,,,,,,,423.2696097001899,423.27936300006695,426.5736006000079,[0.3277777777777778],[-0.41759259259259257],[1],[0],[0],[3.301606999943033],['button_correct'],426.57399230008014,427.57723410008475,,,,,,,,,,,,,,,,,,,,,,,,,,,,,,,,,,,,,1,2023-11-27_13h47.01.558,watkins1,2023.2.3,99.75092193256201,21,2023-11-27 13h47.08.542835 +0000,
(80 : 10) + 9 = 17 ,Correct,button_correct,,,,,,,,,,,,,0,3,3,3,,,,,,,,,427.58724190015346,,,,,,,,,,,,,,['button_incorrect'],[3.040163799887523],,,,,,,,,,,,,,,,,,,,,,,,,,distractorTask,1,,,,,,,,,,,,,,,,,,,,,,,,,,427.57742940005846,427.58724190015346,430.6204243001994,[-0.3851851851851852],[-0.38055555555555554],[1],[0],[0],[3.040163799887523],['button_incorrect'],430.6208105001133,431.6240068001207,,,,,,,,,,,,,,,,,,,,,,,,,,,,,,,,,,,,,1,2023-11-27_13h47.01.558,watkins1,2023.2.3,99.75092193256201,21,2023-11-27 13h47.08.542835 +0000,
(54 : 6) - 10 = 0 ,Incorrect,button_incorrect,,,,,,,,,,,,,0,4,4,5,,,,,,,,,431.63403980014846,,,,,,,,,,,,,,['button_incorrect'],[7.419161000056192],,,,,,,,,,,,,,,,,,,,,,,,,,distractorTask,1,,,,,,,,,,,,,,,,,,,,,,,,,,431.6242008002009,431.63403980014846,439.0451053001452,[-0.29907407407407405],[-0.38055555555555554],[1],[0],[0],[7.419161000056192],['button_incorrect'],439.0455332000274,440.04883720004,,,,,,,,,,,,,,,,,,,,,,,,,,,,,,,,,,,,,1,2023-11-27_13h47.01.558,watkins1,2023.2.3,99.75092193256201,21,2023-11-27 13h47.08.542835 +0000,
(28 : 7) - 3 = 1 ,Correct,button_correct,,,,,,,,,,,,,0,5,5,0,,,,,,,,,440.05892740003765,,,,,,,,,,,,,,['button_incorrect'],[3.443025700049475],,,,,,,,,,,,,,,,,,,,,,,,,,distractorTask,1,,,,,,,,,,,,,,,,,,,,,,,,,,440.0490335000213,440.05892740003765,443.49376850016415,[-0.30185185185185187],[-0.3907407407407407],[1],[0],[0],[3.443025700049475],['button_incorrect'],443.49416150012985,444.4973832999822,,,,,,,,,,,,,,,,,,,,,,,,,,,,,,,,,,,,,1,2023-11-27_13h47.01.558,watkins1,2023.2.3,99.75092193256201,21,2023-11-27 13h47.08.542835 +0000,
(40 : 5) + 8 = 15 ,Incorrect,button_incorrect,,,,,,,,,,,,,0,6,6,7,,,,,,,,,444.50736510008574,,,,,,,,,,,,,,['button_incorrect'],[6.545661800075322],,,,,,,,,,,,,,,,,,,,,,,,,,distractorTask,1,,,,,,,,,,,,,,,,,,,,,,,,,,444.49757700017653,444.50736510008574,451.0449938001111,[-0.2833333333333333],[-0.3962962962962963],[1],[0],[0],[6.545661800075322],['button_incorrect'],451.04541730019264,452.0487813001964,,,,,,,,,,,,,,,,,,,,,,,,,,,,,,,,,,,,,1,2023-11-27_13h47.01.558,watkins1,2023.2.3,99.75092193256201,21,2023-11-27 13h47.08.542835 +0000,
(6 x 3) + 10 = 27 ,Incorrect,button_incorrect,,,,,,,,,,,,,0,7,7,8,,,,,,,,,452.05876699998043,,,,,,,,,,,,,,['button_incorrect'],[7.150514799868688],,,,,,,,,,,,,,,,,,,,,,,,,,distractorTask,1,,,,,,,,,,,,,,,,,,,,,,,,,,452.04897480015643,452.05876699998043,459.20123280002736,[-0.2777777777777778],[-0.3925925925925926],[1],[0],[0],[7.150514799868688],['button_incorrect'],459.20165430009365,460.2048287000507,,,,,,,,,,,,,,,,,,,,,,,,,,,,,,,,,,,,,1,2023-11-27_13h47.01.558,watkins1,2023.2.3,99.75092193256201,21,2023-11-27 13h47.08.542835 +0000,
(2 x 5) + 3 = 13 ,Correct,button_correct,,,,,,,,,,,,,0,8,8,2,,,,,,,,,460.21481110015884,,,,,,,,,,,,,,['button_correct'],[3.8151066000573337],,,,,,,,,,,,,,,,,,,,,,,,,,distractorTask,1,,,,,,,,,,,,,,,,,,,,,,,,,,460.2050233001355,460.21481110015884,464.0218741002027,[0.412962962962963],[-0.39814814814814814],[1],[0],[0],[3.8151066000573337],['button_correct'],464.02226830017753,465.0255997001659,,,,,,,,,,,,,,,,,,,,,,,,,,,,,,,,,,,,,1,2023-11-27_13h47.01.558,watkins1,2023.2.3,99.75092193256201,21,2023-11-27 13h47.08.542835 +0000,
(25 : 5) + 5 = 9 ,Incorrect,button_incorrect,,,,,,,,,,,,,0,9,9,6,,,,,,,,,465.0355777000077,,,,,,,,,,,,,,['button_incorrect'],[3.8645997000858188],,,,,,,,,,,,,,,,,,,,,,,,,,distractorTask,1,,,,,,,,,,,,,,,,,,,,,,,,,,465.02579490002245,465.0355777000077,468.89211000013165,[-0.3314814814814815],[-0.41388888888888886],[1],[0],[0],[3.8645997000858188],['button_incorrect'],468.89250269997865,469.8958819999825,,,,,,,,,,,,,,,,,,,,,,,,,,,,,,,,,,,,,1,2023-11-27_13h47.01.558,watkins1,2023.2.3,99.75092193256201,21,2023-11-27 13h47.08.542835 +0000,
,,,,,,,,,,,,,,,,,,,,,,,,,,,,,,,,,,,,,,,,,,,,,,,,,,,,,,,,,,,,,,,,,,,,,1,,,,,,,,,,,,,,,,,,,,,,,,,,,,,,,,,,,,,,,,,,,,,,,,,,,,,,,,,,,,,,,,,,,,,,,,,,1,2023-11-27_13h47.01.558,watkins1,2023.2.3,99.75092193256201,21,2023-11-27 13h47.08.542835 +0000,
,,,,,,,,,,,,,,,,,,,0,0,0,0,,,,,495.07011290010996,,,,,,,,,,,,,,Vase,12.228882800089195,,,,,,,,,,,,8.886360500007868,None,,,,,,,,,,,,,freeRecallSub,1,,,,,,,,,,,,,,,,,,,,,,,,,,,,,,,,,,,,,,495.06157260015607,495.07011290010996,495.07011290010996,507.30164790013805,return,12.228882800089195,None,Vase,[0.044444444444444446],[0.03981481481481482],[1],[0],[0],[4.637847800040618],[],,,,,,,,,,,,,,,,,,,,,,1,2023-11-27_13h47.01.558,watkins1,2023.2.3,99.75092193256201,21,2023-11-27 13h47.08.542835 +0000,
,,,,,,,,,,,,,,,,,,,1,0,1,0,,,,,507.31394720007665,,,,,,,,,,,,,,Tasche,14.521049999864772,,,,,,,,,,,,2.833989300066605,9.100943800061941,,,,,,,,,,,,,freeRecallSub,1,,,,,,,,,,,,,,,,,,,,,,,,,,,,,,,,,,,,,,507.30349000007845,507.31394720007665,507.31394720007665,521.8369634000119,return,14.521049999864772,None,Tasche,[],[],[],[],[],[],[],,,,,,,,,,,,,,,,,,,,,,1,2023-11-27_13h47.01.558,watkins1,2023.2.3,99.75092193256201,21,2023-11-27 13h47.08.542835 +0000,
,,,,,,,,,,,,,,,,,,,2,0,2,0,,,,,521.8477362000849,,,,,,,,,,,,,,Ring,8.81931099994108,,,,,,,,,,,,4.78970540012233,None,,,,,,,,,,,,,freeRecallSub,1,,,,,,,,,,,,,,,,,,,,,,,,,,,,,,,,,,,,,,521.8382517001592,521.8477362000849,521.8477362000849,530.674458200112,return,8.81931099994108,None,Ring,[],[],[],[],[],[],[],,,,,,,,,,,,,,,,,,,,,,1,2023-11-27_13h47.01.558,watkins1,2023.2.3,99.75092193256201,21,2023-11-27 13h47.08.542835 +0000,
,,,,,,,,,,,,,,,,,,,3,0,3,0,,,,,530.6850411000196,,,,,,,,,,,,,,Lampe,3.4059763001278043,,,,,,,,,,,,0.8234217001590878,None,,,,,,,,,,,,,freeRecallSub,1,,,,,,,,,,,,,,,,,,,,,,,,,,,,,,,,,,,,,,530.6757518001832,530.6850411000196,530.6850411000196,534.0998784999829,return,3.4059763001278043,None,Lampe,[],[],[],[],[],[],[],,,,,,,,,,,,,,,,,,,,,,1,2023-11-27_13h47.01.558,watkins1,2023.2.3,99.75092193256201,21,2023-11-27 13h47.08.542835 +0000,
,,,,,,,,,,,,,,,,,,,4,0,4,0,,,,,534.1110497000627,,,,,,,,,,,,,,lctrluhr,5.739900599932298,,,,,,,,,,,,4.238058099988848,None,,,,,,,,,,,,,freeRecallSub,1,,,,,,,,,,,,,,,,,,,,,,,,,,,,,,,,,,,,,,534.1011563001666,534.1110497000627,534.1110497000627,539.8557481002063,return,5.739900599932298,None,lctrluhr,[],[],[],[],[],[],[],,,,,,,,,,,,,,,,,,,,,,1,2023-11-27_13h47.01.558,watkins1,2023.2.3,99.75092193256201,21,2023-11-27 13h47.08.542835 +0000,
,,,,,,,,,,,,,,,,,,,5,0,5,0,,,,,539.8672072000336,,,,,,,,,,,,,,,0.10367029998451471,,,,,,,,,,,,0.12168470001779497,None,,,,,,,,,,,,,freeRecallSub,1,,,,,,,,,,,,,,,,,,,,,,,,,,,,,,,,,,,,,,539.8570256000385,539.8672072000336,539.8672072000336,539.9786577001214,return,0.10367029998451471,None,,[],[],[],[],[],[],[],,,,,,,,,,,,,,,,,,,,,,1,2023-11-27_13h47.01.558,watkins1,2023.2.3,99.75092193256201,21,2023-11-27 13h47.08.542835 +0000,
,,,,,,,,,,,,,,,,,,,6,0,6,0,,,,,539.9885667001363,,,,,,,,,,,,,,Uhr,12.254395700059831,,,,,,,,,,,,9.879975500050932,None,,,,,,,,,,,,,freeRecallSub,1,,,,,,,,,,,,,,,,,,,,,,,,,,,,,,,,,,,,,,539.9799291000236,539.9885667001363,539.9885667001363,552.2495358001906,return,12.254395700059831,None,Uhr,"[-0.6027777777777777, -0.6018518518518519, 0.022222222222222223]","[-0.02962962962962963, -0.027777777777777776, 0.04722222222222222]","[1, 1, 1]","[0, 0, 0]","[0, 0, 0]","[4.555457000155002, 4.94710039999336, 6.704528000205755]",[],,,,,,,,,,,,,,,,,,,,,,1,2023-11-27_13h47.01.558,watkins1,2023.2.3,99.75092193256201,21,2023-11-27 13h47.08.542835 +0000,
,,,,,,,,,,,,,,,,,,,7,0,7,0,,,,,552.2609256000724,,,,,,,,,,,,,,Kamera,15.934087799862027,,,,,,,,,,,,11.880291500128806,None,,,,,,,,,,,,,freeRecallSub,1,,,,,,,,,,,,,,,,,,,,,,,,,,,,,,,,,,,,,,552.2508743000217,552.2609256000724,552.2609256000724,568.19816670008,return,15.934087799862027,None,Kamera,[],[],[],[],[],[],[],,,,,,,,,,,,,,,,,,,,,,1,2023-11-27_13h47.01.558,watkins1,2023.2.3,99.75092193256201,21,2023-11-27 13h47.08.542835 +0000,
,,,,,,,,,,,,,,,,,,,8,0,8,0,,,,,568.2098823999986,,,,,,,,,,,,,,Telefon,16.56102339993231,,,,,,,,,,,,13.055694000096992,None,,,,,,,,,,,,,freeRecallSub,1,,,,,,,,,,,,,,,,,,,,,,,,,,,,,,,,,,,,,,568.1994378000963,568.2098823999986,568.2098823999986,584.7797569001559,return,16.56102339993231,None,Telefon,[],[],[],[],[],[],[],,,,,,,,,,,,,,,,,,,,,,1,2023-11-27_13h47.01.558,watkins1,2023.2.3,99.75092193256201,21,2023-11-27 13h47.08.542835 +0000,
,,,,,,,,,,,,,,,,,,,9,0,9,0,,,,,584.791866700165,,,,,,,,,,,,,,Blumen,28.19506399985403,,,,,,,,,,,,24.47366190003231,None,,,,,,,,,,,,,freeRecallSub,1,,,,,,,,,,,,,,,,,,,,,,,,,,,,,,,,,,,,,,584.7810284001753,584.791866700165,584.791866700165,612.9903336002026,return,28.19506399985403,None,Blumen,[],[],[],[],[],[],[],,,,,,,,,,,,,,,,,,,,,,1,2023-11-27_13h47.01.558,watkins1,2023.2.3,99.75092193256201,21,2023-11-27 13h47.08.542835 +0000,
,,,,,,,,,,,,,,,,,,,10,0,10,0,,,,,613.0026432001032,,,,,,,,,,,,,,Hut,4.456235999939963,,,,,,,,,,,,3.0053795999847353,None,,,,,,,,,,,,,freeRecallSub,1,,,,,,,,,,,,,,,,,,,,,,,,,,,,,,,,,,,,,,612.9916477000806,613.0026432001032,613.0026432001032,617.4631376999896,return,4.456235999939963,None,Hut,[],[],[],[],[],[],[],,,,,,,,,,,,,,,,,,,,,,1,2023-11-27_13h47.01.558,watkins1,2023.2.3,99.75092193256201,21,2023-11-27 13h47.08.542835 +0000,
,,,,,,,,,,,,,,,,,,,11,0,11,0,,,,,617.4760449000169,,,,,,,,,,,,,,Buch,6.342834200011566,,,,,,,,,,,,4.814015500014648,None,,,,,,,,,,,,,freeRecallSub,1,,,,,,,,,,,,,,,,,,,,,,,,,,,,,,,,,,,,,,617.4644129001535,617.4760449000169,617.4760449000169,623.8248748001643,return,6.342834200011566,None,Buch,[],[],[],[],[],[],[],,,,,,,,,,,,,,,,,,,,,,1,2023-11-27_13h47.01.558,watkins1,2023.2.3,99.75092193256201,21,2023-11-27 13h47.08.542835 +0000,
,,,,,,,,,,,,,,,,,,,12,0,12,0,,,,,623.8367433000822,,,,,,,,,,,,,,,[],,,,,,,,,,,,None,None,,,,,,,,,,,,,freeRecallSub,1,,,,,,,,,,,,,,,,,,,,,,,,,,,,,,,,,,,,,,623.8261538001243,623.8367433000822,623.8367433000822,701.6724287001416,None,,,,[0.2759259259259259],[-0.40370370370370373],[1],[0],[0],[77.84198540006764],"['button_continue', 'continue_text']",,,,,,,,,,,,,,,,,,,,,,1,2023-11-27_13h47.01.558,watkins1,2023.2.3,99.75092193256201,21,2023-11-27 13h47.08.542835 +0000,
,,,,,,,,,,,,,,,,,,,,,,,,,,,,,,,,,,,,,,,,,,,,,,,,,,,,,,,,,,,,,,,,,,,,,1,,,,,,,,,,,,,,,,,,,,,,,,,,,,,,,,,,,,,,,,,,,,,,,,,,,,,,,,,,,,,,,,,,,,,,,,,,1,2023-11-27_13h47.01.558,watkins1,2023.2.3,99.75092193256201,21,2023-11-27 13h47.08.542835 +0000,
,,,,,,,,,,,,,,,,,,,,,,,0,0,0,0,721.6609308000188,,,,,,,,,,730.491671100026,730.9902231001761,,,,8.821821899851784,,,,,,,,,,,,None,None,,,,,,,,,,Eimer,,,cuedRecallAdj,1,,,,,,,,,,,,,,,,,,,,,,,,,,,,,,,,,,,,,,,,,,,,,,,,,,,,,721.6517605001573,721.6609308000188,0,721.6609308000188,730.4885289000813,schön,return,8.821821899851784,None,730.4889183000196,730.4981339001097,730.4981339001097,730.4915179000236,,None,,,,,,,1,2023-11-27_13h47.01.558,watkins1,2023.2.3,99.75092193256201,21,2023-11-27 13h47.08.542835 +0000,
,,,,,,,,,,,,,,,,,,,,,,,1,0,1,0,731.0001716001425,,,,,,,,,,766.1392819001339,766.6379389001522,,,,35.13051829999313,,,,,,,,,,,,None,None,,,,,,,,,,Kerze,,,cuedRecallAdj,1,,,,,,,,,,,,,,,,,,,,,,,,,,,,,,,,,,,,,,,,,,,,,,,,,,,,,730.9904661001638,731.0001716001425,0,731.0001716001425,766.1362527001183,glatt,return,35.13051829999313,None,766.1365216001868,766.1458082001191,766.1458082001191,766.1391796001699,,None,,,,,,,1,2023-11-27_13h47.01.558,watkins1,2023.2.3,99.75092193256201,21,2023-11-27 13h47.08.542835 +0000,
,,,,,,,,,,,,,,,,,,,,,,,2,0,2,0,766.6478950001765,,,,,,,,,,814.637720500119,815.1290196999907,,,gepunktet,32.80279690003954,,,,,,,,,,,,10.562843599822372,None,,,,,,,,,,Socke,,,cuedRecallAdj,1,,,,,,,,,,,,,,,,,,,,,,,,,,,,,,,,,,,,,,,,,,,,,,,,,,,,,766.6381895001978,766.6478950001765,0,766.6478950001765,799.4548087001313,kratze ,return,32.80279690003954,None,799.4550766001921,799.464316900121,799.464316900121,814.6373464001808,gepunktet,return,15.170280300080776,None,,,,,1,2023-11-27_13h47.01.558,watkins1,2023.2.3,99.75092193256201,21,2023-11-27 13h47.08.542835 +0000,
,,,,,,,,,,,,,,,,,,,,,,,3,0,3,0,815.1389721999876,,,,,,,,,,831.5376403001137,832.0291379999835,,,schön,9.2716157999821,,,,,,,,,,,,3.8853725001681596,None,,,,,,,,,,Schlüssel,,,cuedRecallAdj,1,,,,,,,,,,,,,,,,,,,,,,,,,,,,,,,,,,,,,,,,,,,,,,,,,,,,,815.1292592000682,815.1389721999876,0,815.1389721999876,824.4179088000674,dick,return,9.2716157999821,None,824.4181790000293,824.4276264000218,824.4276264000218,831.5373737001792,schön,return,7.103056300198659,None,,,,,1,2023-11-27_13h47.01.558,watkins1,2023.2.3,99.75092193256201,21,2023-11-27 13h47.08.542835 +0000,
,,,,,,,,,,,,,,,,,,,,,,,4,0,4,0,832.0390928999986,,,,,,,,,,846.3993876001332,846.8908528001048,,,matt,11.331621700199321,,,,,,,,,,,,1.1036892000120133,None,,,,,,,,,,Lampe,,,cuedRecallAdj,1,,,,,,,,,,,,,,,,,,,,,,,,,,,,,,,,,,,,,,,,,,,,,,,,,,,,,832.0293855001219,832.0390928999986,0,832.0390928999986,843.3767222000752,glänzend,return,11.331621700199321,None,843.3769889001269,843.3862523999996,843.3862523999996,846.3991214002017,matt,return,3.008406199980527,None,,,,,1,2023-11-27_13h47.01.558,watkins1,2023.2.3,99.75092193256201,21,2023-11-27 13h47.08.542835 +0000,
,,,,,,,,,,,,,,,,,,,,,,,5,0,5,0,846.9008075001184,,,,,,,,,,852.4577699000947,852.9559753001668,,,,5.549877299927175,,,,,,,,,,,,None,None,,,,,,,,,,Trommel,,,cuedRecallAdj,1,,,,,,,,,,,,,,,,,,,,,,,,,,,,,,,,,,,,,,,,,,,,,,,,,,,,,846.8910972999875,846.9008075001184,0,846.9008075001184,852.4543641000055,flach,return,5.549877299927175,None,852.4546485000756,852.4638901001308,852.4638901001308,852.4576682001352,,None,,,,,,,1,2023-11-27_13h47.01.558,watkins1,2023.2.3,99.75092193256201,21,2023-11-27 13h47.08.542835 +0000,
,,,,,,,,,,,,,,,,,,,,,,,6,0,6,0,852.9659261000343,,,,,,,,,,903.5301993000321,904.0286380001344,,,,50.556594299850985,,,,,,,,,,,,None,None,,,,,,,,,,Schere,,,cuedRecallAdj,1,,,,,,,,,,,,,,,,,,,,,,,,,,,,,,,,,,,,,,,,,,,,,,,,,,,,,852.9562242000829,852.9659261000343,0,852.9659261000343,903.5270530001726,zerbrechlich,return,50.556594299850985,None,903.5273192001041,903.5365906001534,903.5365906001534,903.5300969001837,,None,,,,,,,1,2023-11-27_13h47.01.558,watkins1,2023.2.3,99.75092193256201,21,2023-11-27 13h47.08.542835 +0000,
,,,,,,,,,,,,,,,,,,,,,,,7,0,7,0,904.0385883999988,,,,,,,,,,947.2313729000743,947.7303053000942,,,,43.179959300206974,,,,,,,,,,,,None,None,,,,,,,,,,Hammer,,,cuedRecallAdj,1,,,,,,,,,,,,,,,,,,,,,,,,,,,,,,,,,,,,,,,,,,,,,,,,,,,,,904.0288869000506,904.0385883999988,0,904.0385883999988,947.2284164000303,schön,return,43.179959300206974,None,947.2286867001094,947.2380905000027,947.2380905000027,947.2312716001179,,None,,,,,,,1,2023-11-27_13h47.01.558,watkins1,2023.2.3,99.75092193256201,21,2023-11-27 13h47.08.542835 +0000,
,,,,,,,,,,,,,,,,,,,,,,,8,0,8,0,947.7402541001793,,,,,,,,,,957.222866000142,957.7215095001739,,,,9.470198499970138,,,,,,,,,,,,None,None,,,,,,,,,,Jacke,,,cuedRecallAdj,1,,,,,,,,,,,,,,,,,,,,,,,,,,,,,,,,,,,,,,,,,,,,,,,,,,,,,947.7305521999951,947.7402541001793,0,947.7402541001793,957.2197138001211,dunkel,return,9.470198499970138,None,957.2199795001652,957.2293889001012,957.2293889001012,957.2227639001794,,None,,,,,,,1,2023-11-27_13h47.01.558,watkins1,2023.2.3,99.75092193256201,21,2023-11-27 13h47.08.542835 +0000,
,,,,,,,,,,,,,,,,,,,,,,,9,0,9,0,957.7314063999802,,,,,,,,,,966.1990330000408,966.6903811001685,,,schön,4.662957699969411,,,,,,,,,,,,1.9375685001723468,None,,,,,,,,,,Blume,,,cuedRecallAdj,1,,,,,,,,,,,,,,,,,,,,,,,,,,,,,,,,,,,,,,,,,,,,,,,,,,,,,957.7217583002057,957.7314063999802,0,957.7314063999802,962.4029856000561,groß,return,4.662957699969411,None,962.4032567001414,962.4127886001952,962.4127886001952,966.1987631001975,schön,return,3.781710600014776,None,,,,,1,2023-11-27_13h47.01.558,watkins1,2023.2.3,99.75092193256201,21,2023-11-27 13h47.08.542835 +0000,
,,,,,,,,,,,,,,,,,,,,,,,10,0,10,0,966.7003862001002,,,,,,,,,,976.9766596001573,977.4748874001671,,,,10.270150300115347,,,,,,,,,,,,None,None,,,,,,,,,,Kiste,,,cuedRecallAdj,1,,,,,,,,,,,,,,,,,,,,,,,,,,,,,,,,,,,,,,,,,,,,,,,,,,,,,966.6906270000618,966.7003862001002,0,966.7003862001002,976.9731766001787,glänzend,return,10.270150300115347,None,976.973461400019,976.982819700148,976.982819700148,976.9765563001856,,None,,,,,,,1,2023-11-27_13h47.01.558,watkins1,2023.2.3,99.75092193256201,21,2023-11-27 13h47.08.542835 +0000,
,,,,,,,,,,,,,,,,,,,,,,,11,0,11,0,977.4848282001913,,,,,,,,,,981.1834392000455,981.6821896000765,,,,3.685717500047758,,,,,,,,,,,,None,None,,,,,,,,,,Fahrrad,,,cuedRecallAdj,1,,,,,,,,,,,,,,,,,,,,,,,,,,,,,,,,,,,,,,,,,,,,,,,,,,,,,977.4751292001456,977.4848282001913,0,977.4848282001913,981.1803910001181,neu,return,3.685717500047758,None,981.1806546000298,981.1900617000647,981.1900617000647,981.1833372002002,,None,,,,,,,1,2023-11-27_13h47.01.558,watkins1,2023.2.3,99.75092193256201,21,2023-11-27 13h47.08.542835 +0000,
,,,,,,,,,,,,,,,,,,,,,,,12,0,12,0,981.6920883001294,,,,,,,,,,989.8967829002067,990.388110200176,,,schwer,5.230338399996981,,,,,,,,,,,,1.3247420000843704,None,,,,,,,,,,Flasche,,,cuedRecallAdj,1,,,,,,,,,,,,,,,,,,,,,,,,,,,,,,,,,,,,,,,,,,,,,,,,,,,,,981.6824349001981,981.6920883001294,0,981.6920883001294,986.924262000015,bunt,return,5.230338399996981,None,986.9245304001961,986.9338060000446,986.9338060000446,989.8964973001275,schwer,return,2.956640899879858,None,,,,,1,2023-11-27_13h47.01.558,watkins1,2023.2.3,99.75092193256201,21,2023-11-27 13h47.08.542835 +0000,
,,,,,,,,,,,,,,,,,,,,,,,13,0,13,0,990.3980766001623,,,,,,,,,,998.3516325000674,998.842905000085,,,klein,5.220404800027609,,,,,,,,,,,,0.9933732999488711,None,,,,,,,,,,Geige,,,cuedRecallAdj,1,,,,,,,,,,,,,,,,,,,,,,,,,,,,,,,,,,,,,,,,,,,,,,,,,,,,,990.38835750008,990.3980766001623,0,990.3980766001623,995.6200626001228,groß,return,5.220404800027609,None,995.6203298000619,995.6296249001753,995.6296249001753,998.3513683001511,klein,return,2.716868400108069,None,,,,,1,2023-11-27_13h47.01.558,watkins1,2023.2.3,99.75092193256201,21,2023-11-27 13h47.08.542835 +0000,
,,,,,,,,,,,,,,,,,,,,,,,14,0,14,0,998.8529101000167,,,,,,,,,,1007.1006318000145,1007.5991428000852,,,,8.2375483000651,,,,,,,,,,,,None,None,,,,,,,,,,Tasse,,,cuedRecallAdj,1,,,,,,,,,,,,,,,,,,,,,,,,,,,,,,,,,,,,,,,,,,,,,,,,,,,,,998.8431590001564,998.8529101000167,0,998.8529101000167,1007.0973408999853,bunt,return,8.2375483000651,None,1007.097607600037,1007.107002899982,1007.107002899982,1007.1005303000566,,None,,,,,,,1,2023-11-27_13h47.01.558,watkins1,2023.2.3,99.75092193256201,21,2023-11-27 13h47.08.542835 +0000,
,,,,,,,,,,,,,,,,,,,,,,,15,0,15,0,1007.6090849000029,,,,,,,,,,1044.7847288001794,1045.2761227001902,,,schön,30.489300499903038,,,,,,,,,,,,4.066221300046891,None,,,,,,,,,,Brille,,,cuedRecallAdj,1,,,,,,,,,,,,,,,,,,,,,,,,,,,,,,,,,,,,,,,,,,,,,,,,,,,,,1007.5993890999816,1007.6090849000029,0,1007.6090849000029,1038.106944500003,bunt,return,30.489300499903038,None,1038.1072109001689,1038.1166628000792,1038.1166628000792,1044.784441600088,schön,return,6.661748199956492,None,,,,,1,2023-11-27_13h47.01.558,watkins1,2023.2.3,99.75092193256201,21,2023-11-27 13h47.08.542835 +0000,
,,,,,,,,,,,,,,,,,,,,,,,16,0,16,0,1045.2860296000727,,,,,,,,,,1049.3262230001856,1049.824925100198,,,,4.036463200114667,,,,,,,,,,,,None,None,,,,,,,,,,Hut,,,cuedRecallAdj,1,,,,,,,,,,,,,,,,,,,,,,,,,,,,,,,,,,,,,,,,,,,,,,,,,,,,,1045.2763625001535,1045.2860296000727,0,1045.2860296000727,1049.3232366000302,nass,return,4.036463200114667,None,1049.3234998001717,1049.3327610001434,1049.3327610001434,1049.3261218999978,,None,,,,,,,1,2023-11-27_13h47.01.558,watkins1,2023.2.3,99.75092193256201,21,2023-11-27 13h47.08.542835 +0000,
,,,,,,,,,,,,,,,,,,,,,,,17,0,17,0,1049.8349762000144,,,,,,,,,,1062.156421400141,1062.6477618000936,,,positiv,4.7993930000811815,,,,,,,,,,,,4.618314000079408,None,,,,,,,,,,Telefon,,,cuedRecallAdj,1,,,,,,,,,,,,,,,,,,,,,,,,,,,,,,,,,,,,,,,,,,,,,,,,,,,,,1049.8251716999803,1049.8349762000144,0,1049.8349762000144,1054.6352407999802,robust,return,4.7993930000811815,None,1054.6355271001812,1054.644775400171,1054.644775400171,1062.1561530001927,positiv,return,7.509675899986178,None,,,,,1,2023-11-27_13h47.01.558,watkins1,2023.2.3,99.75092193256201,21,2023-11-27 13h47.08.542835 +0000,
,,,,,,,,,,,,,,,,,,,,,,,18,0,18,0,1062.6578188000713,,,,,,,,,,1069.1587281001266,1069.6572497000452,,,,6.4885541999246925,,,,,,,,,,,,None,None,,,,,,,,,,Bürste,,,cuedRecallAdj,1,,,,,,,,,,,,,,,,,,,,,,,,,,,,,,,,,,,,,,,,,,,,,,,,,,,,,1062.6480070999824,1062.6578188000713,0,1062.6578188000713,1069.1553872001823,rustikal,return,6.4885541999246925,None,1069.1556510000955,1069.1651567001827,1069.1651567001827,1069.1586258001626,,None,,,,,,,1,2023-11-27_13h47.01.558,watkins1,2023.2.3,99.75092193256201,21,2023-11-27 13h47.08.542835 +0000,
,,,,,,,,,,,,,,,,,,,,,,,19,0,19,0,1069.6671913000755,,,,,,,,,,1083.8302794999909,1084.3289654001128,,,,14.151158299995586,,,,,,,,,,,,None,None,,,,,,,,,,Stift,,,cuedRecallAdj,1,,,,,,,,,,,,,,,,,,,,,,,,,,,,,,,,,,,,,,,,,,,,,,,,,,,,,1069.6574982001912,1069.6671913000755,0,1069.6671913000755,1083.8271255001891,gebogen,return,14.151158299995586,None,1083.8273903999943,1083.8369285000954,1083.8369285000954,1083.830177700147,,None,,,,,,,1,2023-11-27_13h47.01.558,watkins1,2023.2.3,99.75092193256201,21,2023-11-27 13h47.08.542835 +0000,
,,,,,,,,,,,,,,,,,,,,,,,20,0,20,0,1084.338867700193,,,,,,,,,,1093.6185416001827,1094.109958200017,,,bunt,4.255548600107431,,,,,,,,,,,,2.2286199000664055,None,,,,,,,,,,Vase,,,cuedRecallAdj,1,,,,,,,,,,,,,,,,,,,,,,,,,,,,,,,,,,,,,,,,,,,,,,,,,,,,,1084.329209299991,1084.338867700193,0,1084.338867700193,1088.597570599988,teuer,return,4.255548600107431,None,1088.5978455001023,1088.6071191001683,1088.6071191001683,1093.6182737001218,bunt,return,5.003182699903846,None,,,,,1,2023-11-27_13h47.01.558,watkins1,2023.2.3,99.75092193256201,21,2023-11-27 13h47.08.542835 +0000,
,,,,,,,,,,,,,,,,,,,,,,,21,0,21,0,1094.1200086001772,,,,,,,,,,1099.7943233000115,1100.2858816999942,,,schwer,3.170341799966991,,,,,,,,,,,,0.3812665001023561,None,,,,,,,,,,Würfel,,,cuedRecallAdj,1,,,,,,,,,,,,,,,,,,,,,,,,,,,,,,,,,,,,,,,,,,,,,,,,,,,,,1094.1101969000883,1094.1200086001772,0,1094.1200086001772,1097.2934657000005,kalt,return,3.170341799966991,None,1097.2937307001557,1097.3030290000606,1097.3030290000606,1099.794053700054,schwer,return,2.4833691001404077,None,,,,,1,2023-11-27_13h47.01.558,watkins1,2023.2.3,99.75092193256201,21,2023-11-27 13h47.08.542835 +0000,
,,,,,,,,,,,,,,,,,,,,,,,22,0,22,0,1100.2957820000593,,,,,,,,,,1104.8988382001407,1105.3970317000058,,,,4.594605100108311,,,,,,,,,,,,None,None,,,,,,,,,,Rucksack,,,cuedRecallAdj,1,,,,,,,,,,,,,,,,,,,,,,,,,,,,,,,,,,,,,,,,,,,,,,,,,,,,,1100.2861228000838,1100.2957820000593,0,1100.2957820000593,1104.8953025001101,bunt,return,4.594605100108311,None,1104.8955672001466,1104.9049563000444,1104.9049563000444,1104.8987319001462,,None,,,,,,,1,2023-11-27_13h47.01.558,watkins1,2023.2.3,99.75092193256201,21,2023-11-27 13h47.08.542835 +0000,
,,,,,,,,,,,,,,,,,,,,,,,23,0,23,0,1105.4069786001928,,,,,,,,,,1119.0240965001285,1119.5159597001038,,,schön,11.099408200010657,,,,,,,,,,,,0.5416043000295758,None,,,,,,,,,,Uhr,,,cuedRecallAdj,1,,,,,,,,,,,,,,,,,,,,,,,,,,,,,,,,,,,,,,,,,,,,,,,,,,,,,1105.3972756001167,1105.4069786001928,0,1105.4069786001928,1116.513382700039,hässlich,return,11.099408200010657,None,1116.5136470000725,1116.523036000086,1116.523036000086,1119.023826800054,schön,return,2.4953991000074893,None,,,,,1,2023-11-27_13h47.01.558,watkins1,2023.2.3,99.75092193256201,21,2023-11-27 13h47.08.542835 +0000,
,,,,,,,,,,,,,,,,,,,,,,,24,0,24,0,1119.525909600081,,,,,,,,,,1125.695417500101,1126.1936055000406,,,,6.1644557998515666,,,,,,,,,,,,None,None,,,,,,,,,,Kette,,,cuedRecallAdj,1,,,,,,,,,,,,,,,,,,,,,,,,,,,,,,,,,,,,,,,,,,,,,,,,,,,,,1119.5162020002026,1119.525909600081,0,1119.525909600081,1125.6918970001861,gepunktet,return,6.1644557998515666,None,1125.692158000078,1125.7015112000518,1125.7015112000518,1125.6953150001355,,None,,,,,,,1,2023-11-27_13h47.01.558,watkins1,2023.2.3,99.75092193256201,21,2023-11-27 13h47.08.542835 +0000,
,,,,,,,,,,,,,,,,,,,,,,,25,0,25,0,1126.2035561001394,,,,,,,,,,1134.1096320000943,1134.608477700036,,,,7.894885200075805,,,,,,,,,,,,None,None,,,,,,,,,,Löffel,,,cuedRecallAdj,1,,,,,,,,,,,,,,,,,,,,,,,,,,,,,,,,,,,,,,,,,,,,,,,,,,,,,1126.193848400144,1126.2035561001394,0,1126.2035561001394,1134.1065267000813,nachhaltig,return,7.894885200075805,None,1134.1067927000113,1134.1161977001466,1134.1161977001466,1134.1095306000207,,None,,,,,,,1,2023-11-27_13h47.01.558,watkins1,2023.2.3,99.75092193256201,21,2023-11-27 13h47.08.542835 +0000,
,,,,,,,,,,,,,,,,,,,,,,,26,0,26,0,1134.6184174001683,,,,,,,,,,1142.4516595001332,1142.942851900123,,,groß,4.007905900012702,,,,,,,,,,,,1.4454429999459535,None,,,,,,,,,,Kamera,,,cuedRecallAdj,1,,,,,,,,,,,,,,,,,,,,,,,,,,,,,,,,,,,,,,,,,,,,,,,,,,,,,1134.6087223000359,1134.6184174001683,0,1134.6184174001683,1138.6352012001444,breit,return,4.007905900012702,None,1138.6354666000698,1138.644870800199,1138.644870800199,1142.4513748001773,groß,return,3.805518100038171,None,,,,,1,2023-11-27_13h47.01.558,watkins1,2023.2.3,99.75092193256201,21,2023-11-27 13h47.08.542835 +0000,
,,,,,,,,,,,,,,,,,,,,,,,27,0,27,0,1142.9528592000715,,,,,,,,,,1152.1018151000608,1152.5931017000694,,,schön,3.5774735000450164,,,,,,,,,,,,3.6845652998890728,None,,,,,,,,,,Buch,,,cuedRecallAdj,1,,,,,,,,,,,,,,,,,,,,,,,,,,,,,,,,,,,,,,,,,,,,,,,,,,,,,1142.9430971001275,1142.9528592000715,0,1142.9528592000715,1146.5380035000853,glatt,return,3.5774735000450164,None,1146.538267099997,1146.5477187000215,1146.5477187000215,1152.1015265001915,schön,return,5.550646500196308,None,,,,,1,2023-11-27_13h47.01.558,watkins1,2023.2.3,99.75092193256201,21,2023-11-27 13h47.08.542835 +0000,
,,,,,,,,,,,,,,,,,,,,,,,28,0,28,0,1152.6030594001058,,,,,,,,,,1165.7880100000184,1166.2793402001262,,,blass,6.9832848000805825,,,,,,,,,,,,3.2124458998441696,None,,,,,,,,,,Tasche,,,cuedRecallAdj,1,,,,,,,,,,,,,,,,,,,,,,,,,,,,,,,,,,,,,,,,,,,,,,,,,,,,,1152.5933458001819,1152.6030594001058,0,1152.6030594001058,1159.5922899001744,bunt ,return,6.9832848000805825,None,1159.5925559001043,1159.6018384001218,1159.6018384001218,1165.78775030002,blass,return,6.184509499929845,None,,,,,1,2023-11-27_13h47.01.558,watkins1,2023.2.3,99.75092193256201,21,2023-11-27 13h47.08.542835 +0000,
,,,,,,,,,,,,,,,,,,,,,,,29,0,29,0,1166.2892951001413,,,,,,,,,,1181.3520627000835,1181.8433974999934,,,dünn,7.1769693999085575,,,,,,,,,,,,6.1444710998330265,None,,,,,,,,,,Ring,,,cuedRecallAdj,1,,,,,,,,,,,,,,,,,,,,,,,,,,,,,,,,,,,,,,,,,,,,,,,,,,,,,1166.2795850001276,1166.2892951001413,0,1166.2892951001413,1173.4694898000453,schmal,return,7.1769693999085575,None,1173.4697577999905,1173.4790311001707,1173.4790311001707,1181.3517781000119,dünn,return,7.867183600086719,None,,,,,1,2023-11-27_13h47.01.558,watkins1,2023.2.3,99.75092193256201,21,2023-11-27 13h47.08.542835 +0000,
,,,,,,,,,,,,,,,,,,,,,,,,,,,,,,,,,,,,,,,,,,,,,,,,,,,,,,,,,,,,,,,,,,,,,1,,,,,,,,,,,,,,,,,,,,,,,,,,,,,,,,,,,,,,,,,,,,,,,,,,,,,,,,,,,,,,,,,,,,,,1181.8600700001698,q,1252.9888677001,None,1,2023-11-27_13h47.01.558,watkins1,2023.2.3,99.75092193256201,21,2023-11-27 13h47.08.542835 +0000,
