Equation,CorrectResponse,Correctbutton,trials_7.thisRepN,trials_7.thisTrialN,trials_7.thisN,trials_7.thisIndex,trials.thisRepN,trials.thisTrialN,trials.thisN,trials.thisIndex,trials_3.thisRepN,trials_3.thisTrialN,trials_3.thisN,trials_3.thisIndex,trials_2.thisRepN,trials_2.thisTrialN,trials_2.thisN,trials_2.thisIndex,trials_4.thisRepN,trials_4.thisTrialN,trials_4.thisN,trials_4.thisIndex,trials_5.thisRepN,trials_5.thisTrialN,trials_5.thisN,trials_5.thisIndex,thisRow.t,notes,list_sub_restudy,list_sub_testsub,code_marius.started,code_marius.stopped,welcome.started,welcome.stopped,instruction_study.started,instruction_study.stopped,fixationcross.started,fixationcross.stopped,blanc.started,blanc.stopped,study_control_probe.started,study_control_probe.stopped,responseKey,responseTime,scale_answer_2.keys,study_control_probe_2.started,study_control_probe_2.stopped,scale_answer_3.keys,scale_answer_3.rt,scale_answer_3.duration,blanc_2.started,blanc_2.stopped,test_attr_probe.started,test_attr_probe.stopped,recalled_attr,firstKeyTime,secondWordTime,blanc_3.started,blanc_3.stopped,test_sub_probe.started,test_sub_probe.stopped,recalled_sub,instruction_probe_end.started,instruction_probe_end.stopped,study.started,study.stopped,substantive,adjective,wordpair,task,condition,liste_sub_phase1,liste_adj_phase1,scale_answer.keys,scale_answer.rt,scale_answer.duration,code_defineWordsInit.started,code_defineWordsInit.stopped,liste_sub_phase2,study_control.started,study_control.stopped,scale_answer_4.keys,restudy_same.started,restudy_same.stopped,scale_answer_5.keys,scale_answer_5.rt,scale_answer_5.duration,restudy_different.started,restudy_different.stopped,scale_answer_6.keys,test_attr.started,test_attr.stopped,test_sub.started,test_sub.stopped,correct,distractortask.started,equation_text.started,distractortask.stopped,mouse_answer.x,mouse_answer.y,mouse_answer.leftButton,mouse_answer.midButton,mouse_answer.rightButton,mouse_answer.time,mouse_answer.clicked_name,feedback_distractortask.started,feedback_distractortask.stopped,free_recall.started,text_enter.started,key_resp.started,free_recall.stopped,key_resp.keys,key_resp.rt,key_resp.duration,free_recalled_sub,mouse_continue.x,mouse_continue.y,mouse_continue.leftButton,mouse_continue.midButton,mouse_continue.rightButton,mouse_continue.time,mouse_continue.clicked_name,cued_recall.started,text_enter_2.started,key_continue.started,cued_recall.stopped,recalled_attr1,key_continue.keys,key_continue.rt,key_continue.duration,cued_recall_2.started,text_enter_3.started,key_continue_2.started,cued_recall_2.stopped,recalled_attr2,key_continue_2.keys,key_resp_8.started,key_resp_8.keys,key_resp_8.rt,key_resp_8.duration,condition,date,expName,psychopyVersion,frameRate,participant,expStart,
,,,,,,,,,,,,,,,,,,,,,,,,,,,,,"['Vase', 'Stift', 'Tasche', 'Jacke', 'Lampe', 'Tasse', 'Rucksack', 'Hut', 'Bürste', 'Telefon', 'Socke', 'Löffel', 'Eimer', 'Uhr', 'Ring']","['Geige', 'Hammer', 'Blume', 'Würfel', 'Schere', 'Kette', 'Kamera', 'Kerze', 'Schlüssel', 'Trommel', 'Kiste', 'Brille', 'Fahrrad', 'Flasche', 'Buch']",0.11400189995765686,0.11409960000310093,0.11410799995064735,3.522243299987167,,,,,,,,,,,,,,,,,,,,,,,,,,,,,,,,,,,,,2,,,,,,,,,,,,,,,,,,,,,,,,,,,,,,,,,,,,,,,,,,,,,,,,,,,,,,,,,,,,,,,,,,,,,,2,2023-12-21_13h01.41.244,watkins1,2023.2.3,99.76156979795192,74,2023-12-21 13h02.10.344991 +0000,
,,,,,,,,,,,,,,,,,,,,,,,,,,,,,,,,,,,3.5222950000315905,42.89476269995794,,,,,,,,,,,,,,,,,,,,,,,,,,,,,,,,,,,2,,,,,,,,,,,,,,,,,,,,,,,,,,,,,,,,,,,,,,,,,,,,,,,,,,,,,,,,,,,,,,,,,,,,,,2,2023-12-21_13h01.41.244,watkins1,2023.2.3,99.76156979795192,74,2023-12-21 13h02.10.344991 +0000,
,,,0,0,0,0,,,,,,,,,,,,,,,,,,,,,43.908745200023986,,,,,,,,,,42.89477999997325,43.89876280003227,50.39221229997929,50.88338650006335,44.390809900010936,50.39203230000567,3,4.092829199973494,None,50.88339770003222,56.8859048000304,3,4.092829199973494,None,56.886202099965885,56.88622750004288,56.886234499979764,56.886318400036544,,1.9230450000613928,3.3891856999835,56.88647959998343,57.37742270005401,57.377434900030494,63.38335789996199,Hund,,,,,,,,,2,,,,,,,,,,,,,,,,,,,,,,,,,,,,,,,,,,,,,,,,,,,,,,,,,,,,,,,,,,,,,,,,,,,,,,2,2023-12-21_13h01.41.244,watkins1,2023.2.3,99.76156979795192,74,2023-12-21 13h02.10.344991 +0000,
,,,,,,,,,,,,,,,,,,,,,,,,,,,,,,,,,,,,,,,,,,,,,,,,,,,,,,,,,,,,,,,63.38351640000474,68.14436599996407,,,,,,,2,,,,,,,,,,,,,,,,,,,,,,,,,,,,,,,,,,,,,,,,,,,,,,,,,,,,,,,,,,,,,,,,,,,,,,2,2023-12-21_13h01.41.244,watkins1,2023.2.3,99.76156979795192,74,2023-12-21 13h02.10.344991 +0000,
,,,,,,,0,0,0,0,,,,,,,,,,,,,,,,,69.15800209995359,,,,,,,,,,68.14438179996796,69.14801799994893,69.14848189998884,69.63995500002056,,,3,4.422050100052729,,,,,,,,,,,,,,,,,,,,,69.63996609998867,75.64114379999228,Ring,kalt,"['Ring', 'kalt']",restudy,2,"['Ring', 'Vase', 'Kamera', 'Telefon', 'Lampe', 'Tasche', 'Bürste', 'Buch', 'Fahrrad', 'Würfel', 'Brille', 'Eimer', 'Geige', 'Rucksack', 'Schlüssel', 'Schere', 'Kette', 'Kiste', 'Jacke', 'Trommel', 'Kerze', 'Stift', 'Blume', 'Löffel', 'Tasse', 'Socke', 'Hut', 'Hammer', 'Flasche', 'Uhr']",['kalt'],3,4.422050100052729,None,,,,,,,,,,,,,,,,,,,,,,,,,,,,,,,,,,,,,,,,,,,,,,,,,,,,,,,,,,,,,,,,,2,2023-12-21_13h01.41.244,watkins1,2023.2.3,99.76156979795192,74,2023-12-21 13h02.10.344991 +0000,
,,,,,,,1,0,1,0,,,,,,,,,,,,,,,,,75.65055959997699,,,,,,,,,,,,75.64179949997924,76.13270009995904,,,1,2.994328200002201,,,,,,,,,,,,,,,,,,,,,76.1327111000428,82.13663009996526,Vase,biegsam,"['Vase', 'biegsam']",restudy,2,"['Ring', 'Vase', 'Kamera', 'Telefon', 'Lampe', 'Tasche', 'Bürste', 'Buch', 'Fahrrad', 'Würfel', 'Brille', 'Eimer', 'Geige', 'Rucksack', 'Schlüssel', 'Schere', 'Kette', 'Kiste', 'Jacke', 'Trommel', 'Kerze', 'Stift', 'Blume', 'Löffel', 'Tasse', 'Socke', 'Hut', 'Hammer', 'Flasche', 'Uhr']","['kalt', 'biegsam']",1,2.994328200002201,None,,,,,,,,,,,,,,,,,,,,,,,,,,,,,,,,,,,,,,,,,,,,,,,,,,,,,,,,,,,,,,,,,2,2023-12-21_13h01.41.244,watkins1,2023.2.3,99.76156979795192,74,2023-12-21 13h02.10.344991 +0000,
,,,,,,,2,0,2,0,,,,,,,,,,,,,,,,,82.1461117999861,,,,,,,,,,,,82.13716299994849,82.62811749998946,,,2,3.178978299954906,,,,,,,,,,,,,,,,,,,,,82.62812859995756,88.63383189996239,Kamera,schlicht,"['Kamera', 'schlicht']",test_sub,2,"['Ring', 'Vase', 'Kamera', 'Telefon', 'Lampe', 'Tasche', 'Bürste', 'Buch', 'Fahrrad', 'Würfel', 'Brille', 'Eimer', 'Geige', 'Rucksack', 'Schlüssel', 'Schere', 'Kette', 'Kiste', 'Jacke', 'Trommel', 'Kerze', 'Stift', 'Blume', 'Löffel', 'Tasse', 'Socke', 'Hut', 'Hammer', 'Flasche', 'Uhr']","['kalt', 'biegsam', 'schlicht']",2,3.178978299954906,None,,,,,,,,,,,,,,,,,,,,,,,,,,,,,,,,,,,,,,,,,,,,,,,,,,,,,,,,,,,,,,,,,2,2023-12-21_13h01.41.244,watkins1,2023.2.3,99.76156979795192,74,2023-12-21 13h02.10.344991 +0000,
,,,,,,,3,0,3,0,,,,,,,,,,,,,,,,,88.64328580000438,,,,,,,,,,,,88.63436430005822,89.1253410000354,,,1,3.1449970999965444,,,,,,,,,,,,,,,,,,,,,89.12535230000503,95.13236140005756,Telefon,verspielt,"['Telefon', 'verspielt']",restudy,2,"['Ring', 'Vase', 'Kamera', 'Telefon', 'Lampe', 'Tasche', 'Bürste', 'Buch', 'Fahrrad', 'Würfel', 'Brille', 'Eimer', 'Geige', 'Rucksack', 'Schlüssel', 'Schere', 'Kette', 'Kiste', 'Jacke', 'Trommel', 'Kerze', 'Stift', 'Blume', 'Löffel', 'Tasse', 'Socke', 'Hut', 'Hammer', 'Flasche', 'Uhr']","['kalt', 'biegsam', 'schlicht', 'verspielt']",1,3.1449970999965444,None,,,,,,,,,,,,,,,,,,,,,,,,,,,,,,,,,,,,,,,,,,,,,,,,,,,,,,,,,,,,,,,,,2,2023-12-21_13h01.41.244,watkins1,2023.2.3,99.76156979795192,74,2023-12-21 13h02.10.344991 +0000,
,,,,,,,4,0,4,0,,,,,,,,,,,,,,,,,95.1417572000064,,,,,,,,,,,,95.13299119996373,95.623850199976,,,1,2.7681694000493735,,,,,,,,,,,,,,,,,,,,,95.62386100005824,101.62620209995657,Lampe,hohl,"['Lampe', 'hohl']",restudy,2,"['Ring', 'Vase', 'Kamera', 'Telefon', 'Lampe', 'Tasche', 'Bürste', 'Buch', 'Fahrrad', 'Würfel', 'Brille', 'Eimer', 'Geige', 'Rucksack', 'Schlüssel', 'Schere', 'Kette', 'Kiste', 'Jacke', 'Trommel', 'Kerze', 'Stift', 'Blume', 'Löffel', 'Tasse', 'Socke', 'Hut', 'Hammer', 'Flasche', 'Uhr']","['kalt', 'biegsam', 'schlicht', 'verspielt', 'hohl']",1,2.7681694000493735,None,,,,,,,,,,,,,,,,,,,,,,,,,,,,,,,,,,,,,,,,,,,,,,,,,,,,,,,,,,,,,,,,,2,2023-12-21_13h01.41.244,watkins1,2023.2.3,99.76156979795192,74,2023-12-21 13h02.10.344991 +0000,
,,,,,,,5,0,5,0,,,,,,,,,,,,,,,,,101.63567200000398,,,,,,,,,,,,101.62672990001738,102.11804860003758,,,2,1.4651563999941573,,,,,,,,,,,,,,,,,,,,,102.11806000000797,108.12402620003559,Tasche,glänzend,"['Tasche', 'glänzend']",restudy,2,"['Ring', 'Vase', 'Kamera', 'Telefon', 'Lampe', 'Tasche', 'Bürste', 'Buch', 'Fahrrad', 'Würfel', 'Brille', 'Eimer', 'Geige', 'Rucksack', 'Schlüssel', 'Schere', 'Kette', 'Kiste', 'Jacke', 'Trommel', 'Kerze', 'Stift', 'Blume', 'Löffel', 'Tasse', 'Socke', 'Hut', 'Hammer', 'Flasche', 'Uhr']","['kalt', 'biegsam', 'schlicht', 'verspielt', 'hohl', 'glänzend']",2,1.4651563999941573,None,,,,,,,,,,,,,,,,,,,,,,,,,,,,,,,,,,,,,,,,,,,,,,,,,,,,,,,,,,,,,,,,,2,2023-12-21_13h01.41.244,watkins1,2023.2.3,99.76156979795192,74,2023-12-21 13h02.10.344991 +0000,
,,,,,,,6,0,6,0,,,,,,,,,,,,,,,,,108.13339970004745,,,,,,,,,,,,108.12455429998226,108.6154631000245,,,3,1.9680320000043139,,,,,,,,,,,,,,,,,,,,,108.61547459999565,114.62502409995068,Bürste,gut,"['Bürste', 'gut']",restudy,2,"['Ring', 'Vase', 'Kamera', 'Telefon', 'Lampe', 'Tasche', 'Bürste', 'Buch', 'Fahrrad', 'Würfel', 'Brille', 'Eimer', 'Geige', 'Rucksack', 'Schlüssel', 'Schere', 'Kette', 'Kiste', 'Jacke', 'Trommel', 'Kerze', 'Stift', 'Blume', 'Löffel', 'Tasse', 'Socke', 'Hut', 'Hammer', 'Flasche', 'Uhr']","['kalt', 'biegsam', 'schlicht', 'verspielt', 'hohl', 'glänzend', 'gut']",3,1.9680320000043139,None,,,,,,,,,,,,,,,,,,,,,,,,,,,,,,,,,,,,,,,,,,,,,,,,,,,,,,,,,,,,,,,,,2,2023-12-21_13h01.41.244,watkins1,2023.2.3,99.76156979795192,74,2023-12-21 13h02.10.344991 +0000,
,,,,,,,7,0,7,0,,,,,,,,,,,,,,,,,114.6344434999628,,,,,,,,,,,,114.62554819998331,115.11703039996792,,,1,4.916036900016479,,,,,,,,,,,,,,,,,,,,,115.11704150005244,121.12760060001165,Buch,rustikal,"['Buch', 'rustikal']",test_sub,2,"['Ring', 'Vase', 'Kamera', 'Telefon', 'Lampe', 'Tasche', 'Bürste', 'Buch', 'Fahrrad', 'Würfel', 'Brille', 'Eimer', 'Geige', 'Rucksack', 'Schlüssel', 'Schere', 'Kette', 'Kiste', 'Jacke', 'Trommel', 'Kerze', 'Stift', 'Blume', 'Löffel', 'Tasse', 'Socke', 'Hut', 'Hammer', 'Flasche', 'Uhr']","['kalt', 'biegsam', 'schlicht', 'verspielt', 'hohl', 'glänzend', 'gut', 'rustikal']",1,4.916036900016479,None,,,,,,,,,,,,,,,,,,,,,,,,,,,,,,,,,,,,,,,,,,,,,,,,,,,,,,,,,,,,,,,,,2,2023-12-21_13h01.41.244,watkins1,2023.2.3,99.76156979795192,74,2023-12-21 13h02.10.344991 +0000,
,,,,,,,8,0,8,0,,,,,,,,,,,,,,,,,121.13696979999077,,,,,,,,,,,,121.12812949996442,121.61901889997534,,,1,3.6926088000182062,,,,,,,,,,,,,,,,,,,,,121.61903069994878,127.62178619997576,Fahrrad,lang,"['Fahrrad', 'lang']",test_sub,2,"['Ring', 'Vase', 'Kamera', 'Telefon', 'Lampe', 'Tasche', 'Bürste', 'Buch', 'Fahrrad', 'Würfel', 'Brille', 'Eimer', 'Geige', 'Rucksack', 'Schlüssel', 'Schere', 'Kette', 'Kiste', 'Jacke', 'Trommel', 'Kerze', 'Stift', 'Blume', 'Löffel', 'Tasse', 'Socke', 'Hut', 'Hammer', 'Flasche', 'Uhr']","['kalt', 'biegsam', 'schlicht', 'verspielt', 'hohl', 'glänzend', 'gut', 'rustikal', 'lang']",1,3.6926088000182062,None,,,,,,,,,,,,,,,,,,,,,,,,,,,,,,,,,,,,,,,,,,,,,,,,,,,,,,,,,,,,,,,,,2,2023-12-21_13h01.41.244,watkins1,2023.2.3,99.76156979795192,74,2023-12-21 13h02.10.344991 +0000,
,,,,,,,9,0,9,0,,,,,,,,,,,,,,,,,127.63115519995335,,,,,,,,,,,,127.622313400032,128.11323899996933,,,1,3.990531299961731,,,,,,,,,,,,,,,,,,,,,128.11324980005156,134.12383940001018,Würfel,dick,"['Würfel', 'dick']",test_sub,2,"['Ring', 'Vase', 'Kamera', 'Telefon', 'Lampe', 'Tasche', 'Bürste', 'Buch', 'Fahrrad', 'Würfel', 'Brille', 'Eimer', 'Geige', 'Rucksack', 'Schlüssel', 'Schere', 'Kette', 'Kiste', 'Jacke', 'Trommel', 'Kerze', 'Stift', 'Blume', 'Löffel', 'Tasse', 'Socke', 'Hut', 'Hammer', 'Flasche', 'Uhr']","['kalt', 'biegsam', 'schlicht', 'verspielt', 'hohl', 'glänzend', 'gut', 'rustikal', 'lang', 'dick']",1,3.990531299961731,None,,,,,,,,,,,,,,,,,,,,,,,,,,,,,,,,,,,,,,,,,,,,,,,,,,,,,,,,,,,,,,,,,2,2023-12-21_13h01.41.244,watkins1,2023.2.3,99.76156979795192,74,2023-12-21 13h02.10.344991 +0000,
,,,,,,,10,0,10,0,,,,,,,,,,,,,,,,,134.13318010000512,,,,,,,,,,,,134.12437510001473,134.61553309997544,,,3,3.8010301999747753,,,,,,,,,,,,,,,,,,,,,134.61554370005615,140.6191070000641,Brille,teuer,"['Brille', 'teuer']",test_sub,2,"['Ring', 'Vase', 'Kamera', 'Telefon', 'Lampe', 'Tasche', 'Bürste', 'Buch', 'Fahrrad', 'Würfel', 'Brille', 'Eimer', 'Geige', 'Rucksack', 'Schlüssel', 'Schere', 'Kette', 'Kiste', 'Jacke', 'Trommel', 'Kerze', 'Stift', 'Blume', 'Löffel', 'Tasse', 'Socke', 'Hut', 'Hammer', 'Flasche', 'Uhr']","['kalt', 'biegsam', 'schlicht', 'verspielt', 'hohl', 'glänzend', 'gut', 'rustikal', 'lang', 'dick', 'teuer']",3,3.8010301999747753,None,,,,,,,,,,,,,,,,,,,,,,,,,,,,,,,,,,,,,,,,,,,,,,,,,,,,,,,,,,,,,,,,,2,2023-12-21_13h01.41.244,watkins1,2023.2.3,99.76156979795192,74,2023-12-21 13h02.10.344991 +0000,
,,,,,,,11,0,11,0,,,,,,,,,,,,,,,,,140.6285248999484,,,,,,,,,,,,140.6196321999887,141.11049380002078,,,2,3.0731341999489814,,,,,,,,,,,,,,,,,,,,,141.11050469998736,147.1156957000494,Eimer,breit,"['Eimer', 'breit']",restudy,2,"['Ring', 'Vase', 'Kamera', 'Telefon', 'Lampe', 'Tasche', 'Bürste', 'Buch', 'Fahrrad', 'Würfel', 'Brille', 'Eimer', 'Geige', 'Rucksack', 'Schlüssel', 'Schere', 'Kette', 'Kiste', 'Jacke', 'Trommel', 'Kerze', 'Stift', 'Blume', 'Löffel', 'Tasse', 'Socke', 'Hut', 'Hammer', 'Flasche', 'Uhr']","['kalt', 'biegsam', 'schlicht', 'verspielt', 'hohl', 'glänzend', 'gut', 'rustikal', 'lang', 'dick', 'teuer', 'breit']",2,3.0731341999489814,None,,,,,,,,,,,,,,,,,,,,,,,,,,,,,,,,,,,,,,,,,,,,,,,,,,,,,,,,,,,,,,,,,2,2023-12-21_13h01.41.244,watkins1,2023.2.3,99.76156979795192,74,2023-12-21 13h02.10.344991 +0000,
,,,,,,,12,0,12,0,,,,,,,,,,,,,,,,,147.1249599000439,,,,,,,,,,,,147.11622379999608,147.60701519995928,,,1,3.8162168000126258,,,,,,,,,,,,,,,,,,,,,147.60702610004228,153.60917720000725,Geige,kurz,"['Geige', 'kurz']",test_sub,2,"['Ring', 'Vase', 'Kamera', 'Telefon', 'Lampe', 'Tasche', 'Bürste', 'Buch', 'Fahrrad', 'Würfel', 'Brille', 'Eimer', 'Geige', 'Rucksack', 'Schlüssel', 'Schere', 'Kette', 'Kiste', 'Jacke', 'Trommel', 'Kerze', 'Stift', 'Blume', 'Löffel', 'Tasse', 'Socke', 'Hut', 'Hammer', 'Flasche', 'Uhr']","['kalt', 'biegsam', 'schlicht', 'verspielt', 'hohl', 'glänzend', 'gut', 'rustikal', 'lang', 'dick', 'teuer', 'breit', 'kurz']",1,3.8162168000126258,None,,,,,,,,,,,,,,,,,,,,,,,,,,,,,,,,,,,,,,,,,,,,,,,,,,,,,,,,,,,,,,,,,2,2023-12-21_13h01.41.244,watkins1,2023.2.3,99.76156979795192,74,2023-12-21 13h02.10.344991 +0000,
,,,,,,,13,0,13,0,,,,,,,,,,,,,,,,,153.61865900002886,,,,,,,,,,,,153.60970090003684,154.10071939998306,,,3,2.347476299968548,,,,,,,,,,,,,,,,,,,,,154.10073000006378,160.10283690004144,Rucksack,robust,"['Rucksack', 'robust']",restudy,2,"['Ring', 'Vase', 'Kamera', 'Telefon', 'Lampe', 'Tasche', 'Bürste', 'Buch', 'Fahrrad', 'Würfel', 'Brille', 'Eimer', 'Geige', 'Rucksack', 'Schlüssel', 'Schere', 'Kette', 'Kiste', 'Jacke', 'Trommel', 'Kerze', 'Stift', 'Blume', 'Löffel', 'Tasse', 'Socke', 'Hut', 'Hammer', 'Flasche', 'Uhr']","['kalt', 'biegsam', 'schlicht', 'verspielt', 'hohl', 'glänzend', 'gut', 'rustikal', 'lang', 'dick', 'teuer', 'breit', 'kurz', 'robust']",3,2.347476299968548,None,,,,,,,,,,,,,,,,,,,,,,,,,,,,,,,,,,,,,,,,,,,,,,,,,,,,,,,,,,,,,,,,,2,2023-12-21_13h01.41.244,watkins1,2023.2.3,99.76156979795192,74,2023-12-21 13h02.10.344991 +0000,
,,,,,,,14,0,14,0,,,,,,,,,,,,,,,,,160.11227260006126,,,,,,,,,,,,160.1033642999828,160.59438889997546,,,1,2.493252699961886,,,,,,,,,,,,,,,,,,,,,160.5943994000554,166.5961580000585,Schlüssel,gepunktet,"['Schlüssel', 'gepunktet']",test_sub,2,"['Ring', 'Vase', 'Kamera', 'Telefon', 'Lampe', 'Tasche', 'Bürste', 'Buch', 'Fahrrad', 'Würfel', 'Brille', 'Eimer', 'Geige', 'Rucksack', 'Schlüssel', 'Schere', 'Kette', 'Kiste', 'Jacke', 'Trommel', 'Kerze', 'Stift', 'Blume', 'Löffel', 'Tasse', 'Socke', 'Hut', 'Hammer', 'Flasche', 'Uhr']","['kalt', 'biegsam', 'schlicht', 'verspielt', 'hohl', 'glänzend', 'gut', 'rustikal', 'lang', 'dick', 'teuer', 'breit', 'kurz', 'robust', 'gepunktet']",1,2.493252699961886,None,,,,,,,,,,,,,,,,,,,,,,,,,,,,,,,,,,,,,,,,,,,,,,,,,,,,,,,,,,,,,,,,,2,2023-12-21_13h01.41.244,watkins1,2023.2.3,99.76156979795192,74,2023-12-21 13h02.10.344991 +0000,
,,,,,,,15,0,15,0,,,,,,,,,,,,,,,,,166.60565299994778,,,,,,,,,,,,166.5966833999846,167.08774300001096,,,1,2.3123234000522643,,,,,,,,,,,,,,,,,,,,,167.08775409997907,173.09303190000355,Schere,schmutzig,"['Schere', 'schmutzig']",test_sub,2,"['Ring', 'Vase', 'Kamera', 'Telefon', 'Lampe', 'Tasche', 'Bürste', 'Buch', 'Fahrrad', 'Würfel', 'Brille', 'Eimer', 'Geige', 'Rucksack', 'Schlüssel', 'Schere', 'Kette', 'Kiste', 'Jacke', 'Trommel', 'Kerze', 'Stift', 'Blume', 'Löffel', 'Tasse', 'Socke', 'Hut', 'Hammer', 'Flasche', 'Uhr']","['kalt', 'biegsam', 'schlicht', 'verspielt', 'hohl', 'glänzend', 'gut', 'rustikal', 'lang', 'dick', 'teuer', 'breit', 'kurz', 'robust', 'gepunktet', 'schmutzig']",1,2.3123234000522643,None,,,,,,,,,,,,,,,,,,,,,,,,,,,,,,,,,,,,,,,,,,,,,,,,,,,,,,,,,,,,,,,,,2,2023-12-21_13h01.41.244,watkins1,2023.2.3,99.76156979795192,74,2023-12-21 13h02.10.344991 +0000,
,,,,,,,16,0,16,0,,,,,,,,,,,,,,,,,173.1031079000095,,,,,,,,,,,,173.09356169996317,173.5850308999652,,,2,3.2072063999949023,,,,,,,,,,,,,,,,,,,,,173.585042300052,179.5896938999649,Kette,matt,"['Kette', 'matt']",test_sub,2,"['Ring', 'Vase', 'Kamera', 'Telefon', 'Lampe', 'Tasche', 'Bürste', 'Buch', 'Fahrrad', 'Würfel', 'Brille', 'Eimer', 'Geige', 'Rucksack', 'Schlüssel', 'Schere', 'Kette', 'Kiste', 'Jacke', 'Trommel', 'Kerze', 'Stift', 'Blume', 'Löffel', 'Tasse', 'Socke', 'Hut', 'Hammer', 'Flasche', 'Uhr']","['kalt', 'biegsam', 'schlicht', 'verspielt', 'hohl', 'glänzend', 'gut', 'rustikal', 'lang', 'dick', 'teuer', 'breit', 'kurz', 'robust', 'gepunktet', 'schmutzig', 'matt']",2,3.2072063999949023,None,,,,,,,,,,,,,,,,,,,,,,,,,,,,,,,,,,,,,,,,,,,,,,,,,,,,,,,,,,,,,,,,,2,2023-12-21_13h01.41.244,watkins1,2023.2.3,99.76156979795192,74,2023-12-21 13h02.10.344991 +0000,
,,,,,,,17,0,17,0,,,,,,,,,,,,,,,,,179.59910969994962,,,,,,,,,,,,179.59022779995576,180.08115109999198,,,1,1.791028100065887,,,,,,,,,,,,,,,,,,,,,180.0811618999578,186.08927080000285,Kiste,flauschig,"['Kiste', 'flauschig']",test_sub,2,"['Ring', 'Vase', 'Kamera', 'Telefon', 'Lampe', 'Tasche', 'Bürste', 'Buch', 'Fahrrad', 'Würfel', 'Brille', 'Eimer', 'Geige', 'Rucksack', 'Schlüssel', 'Schere', 'Kette', 'Kiste', 'Jacke', 'Trommel', 'Kerze', 'Stift', 'Blume', 'Löffel', 'Tasse', 'Socke', 'Hut', 'Hammer', 'Flasche', 'Uhr']","['kalt', 'biegsam', 'schlicht', 'verspielt', 'hohl', 'glänzend', 'gut', 'rustikal', 'lang', 'dick', 'teuer', 'breit', 'kurz', 'robust', 'gepunktet', 'schmutzig', 'matt', 'flauschig']",1,1.791028100065887,None,,,,,,,,,,,,,,,,,,,,,,,,,,,,,,,,,,,,,,,,,,,,,,,,,,,,,,,,,,,,,,,,,2,2023-12-21_13h01.41.244,watkins1,2023.2.3,99.76156979795192,74,2023-12-21 13h02.10.344991 +0000,
,,,,,,,18,0,18,0,,,,,,,,,,,,,,,,,186.09869030001573,,,,,,,,,,,,186.0897994999541,186.58070739998948,,,2,2.1386424000374973,,,,,,,,,,,,,,,,,,,,,186.58071809995454,192.58303570002317,Jacke,kaputt,"['Jacke', 'kaputt']",restudy,2,"['Ring', 'Vase', 'Kamera', 'Telefon', 'Lampe', 'Tasche', 'Bürste', 'Buch', 'Fahrrad', 'Würfel', 'Brille', 'Eimer', 'Geige', 'Rucksack', 'Schlüssel', 'Schere', 'Kette', 'Kiste', 'Jacke', 'Trommel', 'Kerze', 'Stift', 'Blume', 'Löffel', 'Tasse', 'Socke', 'Hut', 'Hammer', 'Flasche', 'Uhr']","['kalt', 'biegsam', 'schlicht', 'verspielt', 'hohl', 'glänzend', 'gut', 'rustikal', 'lang', 'dick', 'teuer', 'breit', 'kurz', 'robust', 'gepunktet', 'schmutzig', 'matt', 'flauschig', 'kaputt']",2,2.1386424000374973,None,,,,,,,,,,,,,,,,,,,,,,,,,,,,,,,,,,,,,,,,,,,,,,,,,,,,,,,,,,,,,,,,,2,2023-12-21_13h01.41.244,watkins1,2023.2.3,99.76156979795192,74,2023-12-21 13h02.10.344991 +0000,
,,,,,,,19,0,19,0,,,,,,,,,,,,,,,,,192.5923469000263,,,,,,,,,,,,192.58357989997603,193.07447989995126,,,1,1.9978747999994084,,,,,,,,,,,,,,,,,,,,,193.07449080003425,199.07940659997985,Trommel,elegant,"['Trommel', 'elegant']",test_sub,2,"['Ring', 'Vase', 'Kamera', 'Telefon', 'Lampe', 'Tasche', 'Bürste', 'Buch', 'Fahrrad', 'Würfel', 'Brille', 'Eimer', 'Geige', 'Rucksack', 'Schlüssel', 'Schere', 'Kette', 'Kiste', 'Jacke', 'Trommel', 'Kerze', 'Stift', 'Blume', 'Löffel', 'Tasse', 'Socke', 'Hut', 'Hammer', 'Flasche', 'Uhr']","['kalt', 'biegsam', 'schlicht', 'verspielt', 'hohl', 'glänzend', 'gut', 'rustikal', 'lang', 'dick', 'teuer', 'breit', 'kurz', 'robust', 'gepunktet', 'schmutzig', 'matt', 'flauschig', 'kaputt', 'elegant']",1,1.9978747999994084,None,,,,,,,,,,,,,,,,,,,,,,,,,,,,,,,,,,,,,,,,,,,,,,,,,,,,,,,,,,,,,,,,,2,2023-12-21_13h01.41.244,watkins1,2023.2.3,99.76156979795192,74,2023-12-21 13h02.10.344991 +0000,
,,,,,,,20,0,20,0,,,,,,,,,,,,,,,,,199.0888721999945,,,,,,,,,,,,199.07993769994937,199.57091230002698,,,3,1.997079300112091,,,,,,,,,,,,,,,,,,,,,199.57092379999813,205.57291900005657,Kerze,strahlend,"['Kerze', 'strahlend']",test_sub,2,"['Ring', 'Vase', 'Kamera', 'Telefon', 'Lampe', 'Tasche', 'Bürste', 'Buch', 'Fahrrad', 'Würfel', 'Brille', 'Eimer', 'Geige', 'Rucksack', 'Schlüssel', 'Schere', 'Kette', 'Kiste', 'Jacke', 'Trommel', 'Kerze', 'Stift', 'Blume', 'Löffel', 'Tasse', 'Socke', 'Hut', 'Hammer', 'Flasche', 'Uhr']","['kalt', 'biegsam', 'schlicht', 'verspielt', 'hohl', 'glänzend', 'gut', 'rustikal', 'lang', 'dick', 'teuer', 'breit', 'kurz', 'robust', 'gepunktet', 'schmutzig', 'matt', 'flauschig', 'kaputt', 'elegant', 'strahlend']",3,1.997079300112091,None,,,,,,,,,,,,,,,,,,,,,,,,,,,,,,,,,,,,,,,,,,,,,,,,,,,,,,,,,,,,,,,,,2,2023-12-21_13h01.41.244,watkins1,2023.2.3,99.76156979795192,74,2023-12-21 13h02.10.344991 +0000,
,,,,,,,21,0,21,0,,,,,,,,,,,,,,,,,205.58241899998393,,,,,,,,,,,,205.57344790000934,206.06453650002368,,,1,1.5598831999814138,,,,,,,,,,,,,,,,,,,,,206.0645472999895,212.0722095000092,Stift,lustig,"['Stift', 'lustig']",restudy,2,"['Ring', 'Vase', 'Kamera', 'Telefon', 'Lampe', 'Tasche', 'Bürste', 'Buch', 'Fahrrad', 'Würfel', 'Brille', 'Eimer', 'Geige', 'Rucksack', 'Schlüssel', 'Schere', 'Kette', 'Kiste', 'Jacke', 'Trommel', 'Kerze', 'Stift', 'Blume', 'Löffel', 'Tasse', 'Socke', 'Hut', 'Hammer', 'Flasche', 'Uhr']","['kalt', 'biegsam', 'schlicht', 'verspielt', 'hohl', 'glänzend', 'gut', 'rustikal', 'lang', 'dick', 'teuer', 'breit', 'kurz', 'robust', 'gepunktet', 'schmutzig', 'matt', 'flauschig', 'kaputt', 'elegant', 'strahlend', 'lustig']",1,1.5598831999814138,None,,,,,,,,,,,,,,,,,,,,,,,,,,,,,,,,,,,,,,,,,,,,,,,,,,,,,,,,,,,,,,,,,2,2023-12-21_13h01.41.244,watkins1,2023.2.3,99.76156979795192,74,2023-12-21 13h02.10.344991 +0000,
,,,,,,,22,0,22,0,,,,,,,,,,,,,,,,,212.08154599997215,,,,,,,,,,,,212.07273570005782,212.56349079997744,,,2,1.5782678999239579,,,,,,,,,,,,,,,,,,,,,212.56350150005892,218.56470089999493,Blume,groß,"['Blume', 'groß']",test_sub,2,"['Ring', 'Vase', 'Kamera', 'Telefon', 'Lampe', 'Tasche', 'Bürste', 'Buch', 'Fahrrad', 'Würfel', 'Brille', 'Eimer', 'Geige', 'Rucksack', 'Schlüssel', 'Schere', 'Kette', 'Kiste', 'Jacke', 'Trommel', 'Kerze', 'Stift', 'Blume', 'Löffel', 'Tasse', 'Socke', 'Hut', 'Hammer', 'Flasche', 'Uhr']","['kalt', 'biegsam', 'schlicht', 'verspielt', 'hohl', 'glänzend', 'gut', 'rustikal', 'lang', 'dick', 'teuer', 'breit', 'kurz', 'robust', 'gepunktet', 'schmutzig', 'matt', 'flauschig', 'kaputt', 'elegant', 'strahlend', 'lustig', 'groß']",2,1.5782678999239579,None,,,,,,,,,,,,,,,,,,,,,,,,,,,,,,,,,,,,,,,,,,,,,,,,,,,,,,,,,,,,,,,,,2,2023-12-21_13h01.41.244,watkins1,2023.2.3,99.76156979795192,74,2023-12-21 13h02.10.344991 +0000,
,,,,,,,23,0,23,0,,,,,,,,,,,,,,,,,218.57412140001543,,,,,,,,,,,,218.56522210000549,219.05621259997133,,,1,2.351224699988961,,,,,,,,,,,,,,,,,,,,,219.0562233000528,225.06569990003482,Löffel,kratzig,"['Löffel', 'kratzig']",restudy,2,"['Ring', 'Vase', 'Kamera', 'Telefon', 'Lampe', 'Tasche', 'Bürste', 'Buch', 'Fahrrad', 'Würfel', 'Brille', 'Eimer', 'Geige', 'Rucksack', 'Schlüssel', 'Schere', 'Kette', 'Kiste', 'Jacke', 'Trommel', 'Kerze', 'Stift', 'Blume', 'Löffel', 'Tasse', 'Socke', 'Hut', 'Hammer', 'Flasche', 'Uhr']","['kalt', 'biegsam', 'schlicht', 'verspielt', 'hohl', 'glänzend', 'gut', 'rustikal', 'lang', 'dick', 'teuer', 'breit', 'kurz', 'robust', 'gepunktet', 'schmutzig', 'matt', 'flauschig', 'kaputt', 'elegant', 'strahlend', 'lustig', 'groß', 'kratzig']",1,2.351224699988961,None,,,,,,,,,,,,,,,,,,,,,,,,,,,,,,,,,,,,,,,,,,,,,,,,,,,,,,,,,,,,,,,,,2,2023-12-21_13h01.41.244,watkins1,2023.2.3,99.76156979795192,74,2023-12-21 13h02.10.344991 +0000,
,,,,,,,24,0,24,0,,,,,,,,,,,,,,,,,225.07514700002503,,,,,,,,,,,,225.0662321000127,225.55722359998617,,,3,2.4270295999012887,,,,,,,,,,,,,,,,,,,,,225.55723429995123,231.5590341000352,Tasse,glatt,"['Tasse', 'glatt']",restudy,2,"['Ring', 'Vase', 'Kamera', 'Telefon', 'Lampe', 'Tasche', 'Bürste', 'Buch', 'Fahrrad', 'Würfel', 'Brille', 'Eimer', 'Geige', 'Rucksack', 'Schlüssel', 'Schere', 'Kette', 'Kiste', 'Jacke', 'Trommel', 'Kerze', 'Stift', 'Blume', 'Löffel', 'Tasse', 'Socke', 'Hut', 'Hammer', 'Flasche', 'Uhr']","['kalt', 'biegsam', 'schlicht', 'verspielt', 'hohl', 'glänzend', 'gut', 'rustikal', 'lang', 'dick', 'teuer', 'breit', 'kurz', 'robust', 'gepunktet', 'schmutzig', 'matt', 'flauschig', 'kaputt', 'elegant', 'strahlend', 'lustig', 'groß', 'kratzig', 'glatt']",3,2.4270295999012887,None,,,,,,,,,,,,,,,,,,,,,,,,,,,,,,,,,,,,,,,,,,,,,,,,,,,,,,,,,,,,,,,,,2,2023-12-21_13h01.41.244,watkins1,2023.2.3,99.76156979795192,74,2023-12-21 13h02.10.344991 +0000,
,,,,,,,25,0,25,0,,,,,,,,,,,,,,,,,231.56843039998785,,,,,,,,,,,,231.5595623999834,232.05071159999352,,,1,1.5418689000653103,,,,,,,,,,,,,,,,,,,,,232.05072269996163,238.059309400036,Socke,blass,"['Socke', 'blass']",restudy,2,"['Ring', 'Vase', 'Kamera', 'Telefon', 'Lampe', 'Tasche', 'Bürste', 'Buch', 'Fahrrad', 'Würfel', 'Brille', 'Eimer', 'Geige', 'Rucksack', 'Schlüssel', 'Schere', 'Kette', 'Kiste', 'Jacke', 'Trommel', 'Kerze', 'Stift', 'Blume', 'Löffel', 'Tasse', 'Socke', 'Hut', 'Hammer', 'Flasche', 'Uhr']","['kalt', 'biegsam', 'schlicht', 'verspielt', 'hohl', 'glänzend', 'gut', 'rustikal', 'lang', 'dick', 'teuer', 'breit', 'kurz', 'robust', 'gepunktet', 'schmutzig', 'matt', 'flauschig', 'kaputt', 'elegant', 'strahlend', 'lustig', 'groß', 'kratzig', 'glatt', 'blass']",1,1.5418689000653103,None,,,,,,,,,,,,,,,,,,,,,,,,,,,,,,,,,,,,,,,,,,,,,,,,,,,,,,,,,,,,,,,,,2,2023-12-21_13h01.41.244,watkins1,2023.2.3,99.76156979795192,74,2023-12-21 13h02.10.344991 +0000,
,,,,,,,26,0,26,0,,,,,,,,,,,,,,,,,238.06871260004118,,,,,,,,,,,,238.05983909999486,238.55078869999852,,,1,2.169687299989164,,,,,,,,,,,,,,,,,,,,,238.55079979996663,244.55245529999956,Hut,sportlich,"['Hut', 'sportlich']",restudy,2,"['Ring', 'Vase', 'Kamera', 'Telefon', 'Lampe', 'Tasche', 'Bürste', 'Buch', 'Fahrrad', 'Würfel', 'Brille', 'Eimer', 'Geige', 'Rucksack', 'Schlüssel', 'Schere', 'Kette', 'Kiste', 'Jacke', 'Trommel', 'Kerze', 'Stift', 'Blume', 'Löffel', 'Tasse', 'Socke', 'Hut', 'Hammer', 'Flasche', 'Uhr']","['kalt', 'biegsam', 'schlicht', 'verspielt', 'hohl', 'glänzend', 'gut', 'rustikal', 'lang', 'dick', 'teuer', 'breit', 'kurz', 'robust', 'gepunktet', 'schmutzig', 'matt', 'flauschig', 'kaputt', 'elegant', 'strahlend', 'lustig', 'groß', 'kratzig', 'glatt', 'blass', 'sportlich']",1,2.169687299989164,None,,,,,,,,,,,,,,,,,,,,,,,,,,,,,,,,,,,,,,,,,,,,,,,,,,,,,,,,,,,,,,,,,2,2023-12-21_13h01.41.244,watkins1,2023.2.3,99.76156979795192,74,2023-12-21 13h02.10.344991 +0000,
,,,,,,,27,0,27,0,,,,,,,,,,,,,,,,,244.57770669995807,,,,,,,,,,,,244.55301340005826,245.0468136999989,,,2,4.289931999985129,,,,,,,,,,,,,,,,,,,,,245.04682489996776,251.05663530004676,Hammer,sauber,"['Hammer', 'sauber']",test_sub,2,"['Ring', 'Vase', 'Kamera', 'Telefon', 'Lampe', 'Tasche', 'Bürste', 'Buch', 'Fahrrad', 'Würfel', 'Brille', 'Eimer', 'Geige', 'Rucksack', 'Schlüssel', 'Schere', 'Kette', 'Kiste', 'Jacke', 'Trommel', 'Kerze', 'Stift', 'Blume', 'Löffel', 'Tasse', 'Socke', 'Hut', 'Hammer', 'Flasche', 'Uhr']","['kalt', 'biegsam', 'schlicht', 'verspielt', 'hohl', 'glänzend', 'gut', 'rustikal', 'lang', 'dick', 'teuer', 'breit', 'kurz', 'robust', 'gepunktet', 'schmutzig', 'matt', 'flauschig', 'kaputt', 'elegant', 'strahlend', 'lustig', 'groß', 'kratzig', 'glatt', 'blass', 'sportlich', 'sauber']",2,4.289931999985129,None,,,,,,,,,,,,,,,,,,,,,,,,,,,,,,,,,,,,,,,,,,,,,,,,,,,,,,,,,,,,,,,,,2,2023-12-21_13h01.41.244,watkins1,2023.2.3,99.76156979795192,74,2023-12-21 13h02.10.344991 +0000,
,,,,,,,28,0,28,0,,,,,,,,,,,,,,,,,251.06609730003402,,,,,,,,,,,,251.05715899995994,251.5480595000554,,,1,2.2922967999475077,,,,,,,,,,,,,,,,,,,,,251.5480706000235,257.5550949999597,Flasche,krumm,"['Flasche', 'krumm']",test_sub,2,"['Ring', 'Vase', 'Kamera', 'Telefon', 'Lampe', 'Tasche', 'Bürste', 'Buch', 'Fahrrad', 'Würfel', 'Brille', 'Eimer', 'Geige', 'Rucksack', 'Schlüssel', 'Schere', 'Kette', 'Kiste', 'Jacke', 'Trommel', 'Kerze', 'Stift', 'Blume', 'Löffel', 'Tasse', 'Socke', 'Hut', 'Hammer', 'Flasche', 'Uhr']","['kalt', 'biegsam', 'schlicht', 'verspielt', 'hohl', 'glänzend', 'gut', 'rustikal', 'lang', 'dick', 'teuer', 'breit', 'kurz', 'robust', 'gepunktet', 'schmutzig', 'matt', 'flauschig', 'kaputt', 'elegant', 'strahlend', 'lustig', 'groß', 'kratzig', 'glatt', 'blass', 'sportlich', 'sauber', 'krumm']",1,2.2922967999475077,None,,,,,,,,,,,,,,,,,,,,,,,,,,,,,,,,,,,,,,,,,,,,,,,,,,,,,,,,,,,,,,,,,2,2023-12-21_13h01.41.244,watkins1,2023.2.3,99.76156979795192,74,2023-12-21 13h02.10.344991 +0000,
,,,,,,,29,0,29,0,,,,,,,,,,,,,,,,,257.56448119995184,,,,,,,,,,,,257.55562660004944,258.0465283000376,,,1,1.5212281999411061,,,,,,,,,,,,,,,,,,,,,258.04653930000495,264.0486509000184,Uhr,zart,"['Uhr', 'zart']",restudy,2,"['Ring', 'Vase', 'Kamera', 'Telefon', 'Lampe', 'Tasche', 'Bürste', 'Buch', 'Fahrrad', 'Würfel', 'Brille', 'Eimer', 'Geige', 'Rucksack', 'Schlüssel', 'Schere', 'Kette', 'Kiste', 'Jacke', 'Trommel', 'Kerze', 'Stift', 'Blume', 'Löffel', 'Tasse', 'Socke', 'Hut', 'Hammer', 'Flasche', 'Uhr']","['kalt', 'biegsam', 'schlicht', 'verspielt', 'hohl', 'glänzend', 'gut', 'rustikal', 'lang', 'dick', 'teuer', 'breit', 'kurz', 'robust', 'gepunktet', 'schmutzig', 'matt', 'flauschig', 'kaputt', 'elegant', 'strahlend', 'lustig', 'groß', 'kratzig', 'glatt', 'blass', 'sportlich', 'sauber', 'krumm', 'zart']",1,1.5212281999411061,None,,,,,,,,,,,,,,,,,,,,,,,,,,,,,,,,,,,,,,,,,,,,,,,,,,,,,,,,,,,,,,,,,2,2023-12-21_13h01.41.244,watkins1,2023.2.3,99.76156979795192,74,2023-12-21 13h02.10.344991 +0000,
,,,,,,,,,,,0,0,0,0,,,,,,,,,,,,,264.05811009998433,,,,,,,,,,,,264.04950329998974,264.5402136000339,,,[],[],,,,,,,,,,,,None,None,,,,,,,,,,Eimer,breit,"['Eimer', 'breit']",restudy,2,,,,,,264.0494273999939,264.0494760000147,"['Eimer', 'Buch', 'Kette', 'Kerze', 'Lampe', 'Hut', 'Schlüssel', 'Bürste', 'Uhr', 'Würfel', 'Vase', 'Kiste', 'Hammer', 'Kamera', 'Fahrrad', 'Telefon', 'Trommel', 'Geige', 'Jacke', 'Stift', 'Rucksack', 'Blume', 'Tasche', 'Tasse', 'Brille', 'Ring', 'Schere', 'Flasche', 'Socke', 'Löffel']",264.54022530000657,264.54288399999496,None,264.54318719997536,270.54896639997605,2,4.10488059988711,None,270.5495968000032,270.5523667000234,None,270.55263569997624,270.5538095999509,270.5538218000438,270.55498929996975,,,,,,,,,,,,,,,,,,,,,,,,,,,,,,,,,,,,,,,,,,,,,,,2,2023-12-21_13h01.41.244,watkins1,2023.2.3,99.76156979795192,74,2023-12-21 13h02.10.344991 +0000,
,,,,,,,,,,,1,0,1,0,,,,,,,,,,,,,270.5584341000067,,,,,,,,,,,,270.5552759000566,271.05058629997075,,,[],[],,,,,,,,,,,,None,None,,,,,,,,,,Buch,rustikal,"['Buch', 'rustikal']",test_sub,2,,,,,,270.5552096000174,270.55524879996665,"['Eimer', 'Buch', 'Kette', 'Kerze', 'Lampe', 'Hut', 'Schlüssel', 'Bürste', 'Uhr', 'Würfel', 'Vase', 'Kiste', 'Hammer', 'Kamera', 'Fahrrad', 'Telefon', 'Trommel', 'Geige', 'Jacke', 'Stift', 'Rucksack', 'Blume', 'Tasche', 'Tasse', 'Brille', 'Ring', 'Schere', 'Flasche', 'Socke', 'Löffel']",271.05059740005527,271.0534928999841,None,271.0536218000343,271.05492539994884,None,,,271.0550359999761,271.0563291000435,None,271.05643840006087,271.0574661999708,271.0574804999633,277.06244010000955,0,,,,,,,,,,,,,,,,,,,,,,,,,,,,,,,,,,,,,,,,,,,,,,2,2023-12-21_13h01.41.244,watkins1,2023.2.3,99.76156979795192,74,2023-12-21 13h02.10.344991 +0000,
,,,,,,,,,,,2,0,2,0,,,,,,,,,,,,,277.07227020000573,,,,,,,,,,,,277.0627213000553,277.55439659999683,,,[],[],,,,,,,,,,,,2.92236419999972,None,,,,,Kette,,,,,Kette,matt,"['Kette', 'matt']",test_sub,2,,,,,,277.06265670002904,277.0626924999524,"['Eimer', 'Buch', 'Kette', 'Kerze', 'Lampe', 'Hut', 'Schlüssel', 'Bürste', 'Uhr', 'Würfel', 'Vase', 'Kiste', 'Hammer', 'Kamera', 'Fahrrad', 'Telefon', 'Trommel', 'Geige', 'Jacke', 'Stift', 'Rucksack', 'Blume', 'Tasche', 'Tasse', 'Brille', 'Ring', 'Schere', 'Flasche', 'Socke', 'Löffel']",277.55440719996113,277.5571527000284,None,277.55727650003973,277.55983270006254,None,,,277.5599450999871,277.5624986999901,None,277.5626081000082,277.56375179998577,277.563764099963,283.5691834000172,1,,,,,,,,,,,,,,,,,,,,,,,,,,,,,,,,,,,,,,,,,,,,,,2,2023-12-21_13h01.41.244,watkins1,2023.2.3,99.76156979795192,74,2023-12-21 13h02.10.344991 +0000,
,,,,,,,,,,,3,0,3,0,,,,,,,,,,,,,283.57901670003776,,,,,,,,,,,,283.56946320005227,284.0611135000363,,,[],[],,,,,,,,,,,,1.7681121999630705,None,,,,,Kerze,,,,,Kerze,strahlend,"['Kerze', 'strahlend']",test_sub,2,,,,,,283.56939670001157,283.56943400006276,"['Eimer', 'Buch', 'Kette', 'Kerze', 'Lampe', 'Hut', 'Schlüssel', 'Bürste', 'Uhr', 'Würfel', 'Vase', 'Kiste', 'Hammer', 'Kamera', 'Fahrrad', 'Telefon', 'Trommel', 'Geige', 'Jacke', 'Stift', 'Rucksack', 'Blume', 'Tasche', 'Tasse', 'Brille', 'Ring', 'Schere', 'Flasche', 'Socke', 'Löffel']",284.06112450000364,284.0636506000301,None,284.06377949996386,284.0661184999626,None,,,284.06622499995865,284.0685647999635,None,284.06867259996943,284.06980549998116,284.06981789995916,290.0777889000019,1,,,,,,,,,,,,,,,,,,,,,,,,,,,,,,,,,,,,,,,,,,,,,,2,2023-12-21_13h01.41.244,watkins1,2023.2.3,99.76156979795192,74,2023-12-21 13h02.10.344991 +0000,
,,,,,,,,,,,4,0,4,0,,,,,,,,,,,,,290.0875629000366,,,,,,,,,,,,290.07807190006133,290.569589599967,,,[],[],,,,,,,,,,,,None,None,,,,,,,,,,Lampe,hohl,"['Lampe', 'hohl']",restudy,2,,,,,,290.0780032000039,290.0780410000589,"['Eimer', 'Buch', 'Kette', 'Kerze', 'Lampe', 'Hut', 'Schlüssel', 'Bürste', 'Uhr', 'Würfel', 'Vase', 'Kiste', 'Hammer', 'Kamera', 'Fahrrad', 'Telefon', 'Trommel', 'Geige', 'Jacke', 'Stift', 'Rucksack', 'Blume', 'Tasche', 'Tasse', 'Brille', 'Ring', 'Schere', 'Flasche', 'Socke', 'Löffel']",290.56960040004924,290.5724981999956,None,290.57262620003894,296.5783253000118,1,5.7242289000423625,None,296.5786323000211,296.58124560001306,None,296.5813613999635,296.58250639995094,296.5825184000423,296.5838442000095,,,,,,,,,,,,,,,,,,,,,,,,,,,,,,,,,,,,,,,,,,,,,,,2,2023-12-21_13h01.41.244,watkins1,2023.2.3,99.76156979795192,74,2023-12-21 13h02.10.344991 +0000,
,,,,,,,,,,,5,0,5,0,,,,,,,,,,,,,296.5877554999897,,,,,,,,,,,,296.58412470004987,297.07992980000563,,,[],[],,,,,,,,,,,,None,None,,,,,,,,,,Hut,sportlich,"['Hut', 'sportlich']",restudy,2,,,,,,296.58405950001907,296.58409729995765,"['Eimer', 'Buch', 'Kette', 'Kerze', 'Lampe', 'Hut', 'Schlüssel', 'Bürste', 'Uhr', 'Würfel', 'Vase', 'Kiste', 'Hammer', 'Kamera', 'Fahrrad', 'Telefon', 'Trommel', 'Geige', 'Jacke', 'Stift', 'Rucksack', 'Blume', 'Tasche', 'Tasse', 'Brille', 'Ring', 'Schere', 'Flasche', 'Socke', 'Löffel']",297.07994109997526,297.0823424999835,None,297.08246910001617,303.0854592999676,1,3.19826259999536,None,303.0857529999921,303.0884226000635,None,303.0885356999934,303.08953959995415,303.0895512000425,303.09078229998704,,,,,,,,,,,,,,,,,,,,,,,,,,,,,,,,,,,,,,,,,,,,,,,2,2023-12-21_13h01.41.244,watkins1,2023.2.3,99.76156979795192,74,2023-12-21 13h02.10.344991 +0000,
,,,,,,,,,,,6,0,6,0,,,,,,,,,,,,,303.0948629999766,,,,,,,,,,,,303.0910670000594,303.58705299999565,,,[],[],,,,,,,,,,,,2.4188364999135956,None,,,,,Schlüssel,,,,,Schlüssel,gepunktet,"['Schlüssel', 'gepunktet']",test_sub,2,,,,,,303.0910011000233,303.09103969996795,"['Eimer', 'Buch', 'Kette', 'Kerze', 'Lampe', 'Hut', 'Schlüssel', 'Bürste', 'Uhr', 'Würfel', 'Vase', 'Kiste', 'Hammer', 'Kamera', 'Fahrrad', 'Telefon', 'Trommel', 'Geige', 'Jacke', 'Stift', 'Rucksack', 'Blume', 'Tasche', 'Tasse', 'Brille', 'Ring', 'Schere', 'Flasche', 'Socke', 'Löffel']",303.5870634999592,303.5898593000602,None,303.58998379996046,303.5914727000054,None,,,303.5915835000342,303.593073099968,None,303.593181299977,303.594403599971,303.594416399952,309.59845200006384,1,,,,,,,,,,,,,,,,,,,,,,,,,,,,,,,,,,,,,,,,,,,,,,2,2023-12-21_13h01.41.244,watkins1,2023.2.3,99.76156979795192,74,2023-12-21 13h02.10.344991 +0000,
,,,,,,,,,,,7,0,7,0,,,,,,,,,,,,,309.6082887999946,,,,,,,,,,,,309.59873189998325,310.09045240003616,,,[],[],,,,,,,,,,,,None,None,,,,,,,,,,Bürste,gut,"['Bürste', 'gut']",restudy,2,,,,,,309.59866490005516,309.5987027999945,"['Eimer', 'Buch', 'Kette', 'Kerze', 'Lampe', 'Hut', 'Schlüssel', 'Bürste', 'Uhr', 'Würfel', 'Vase', 'Kiste', 'Hammer', 'Kamera', 'Fahrrad', 'Telefon', 'Trommel', 'Geige', 'Jacke', 'Stift', 'Rucksack', 'Blume', 'Tasche', 'Tasse', 'Brille', 'Ring', 'Schere', 'Flasche', 'Socke', 'Löffel']",310.09046410000883,310.0932833000552,None,310.09341149998363,316.0993784000166,3,2.6832794001093134,None,316.0996768999612,316.1022075000219,None,316.1023210999556,316.1035068000201,316.10351859999355,316.1048472999828,,,,,,,,,,,,,,,,,,,,,,,,,,,,,,,,,,,,,,,,,,,,,,,2,2023-12-21_13h01.41.244,watkins1,2023.2.3,99.76156979795192,74,2023-12-21 13h02.10.344991 +0000,
,,,,,,,,,,,8,0,8,0,,,,,,,,,,,,,316.10877309995703,,,,,,,,,,,,316.10513020004146,316.60095800005365,,,[],[],,,,,,,,,,,,None,None,,,,,,,,,,Uhr,zart,"['Uhr', 'zart']",restudy,2,,,,,,316.1050649000099,316.10510279994924,"['Eimer', 'Buch', 'Kette', 'Kerze', 'Lampe', 'Hut', 'Schlüssel', 'Bürste', 'Uhr', 'Würfel', 'Vase', 'Kiste', 'Hammer', 'Kamera', 'Fahrrad', 'Telefon', 'Trommel', 'Geige', 'Jacke', 'Stift', 'Rucksack', 'Blume', 'Tasche', 'Tasse', 'Brille', 'Ring', 'Schere', 'Flasche', 'Socke', 'Löffel']",316.60096940002404,316.6034107999876,None,316.603537100018,322.61334609996993,1,1.9093204999808222,None,322.6136481000576,322.6160471000476,None,322.6161634000018,322.61719540006015,322.6172075000359,322.6183960000053,,,,,,,,,,,,,,,,,,,,,,,,,,,,,,,,,,,,,,,,,,,,,,,2,2023-12-21_13h01.41.244,watkins1,2023.2.3,99.76156979795192,74,2023-12-21 13h02.10.344991 +0000,
,,,,,,,,,,,9,0,9,0,,,,,,,,,,,,,322.6226995000616,,,,,,,,,,,,322.6186823999742,323.11516929999925,,,[],[],,,,,,,,,,,,None,None,,,,,,,,,,Würfel,dick,"['Würfel', 'dick']",test_sub,2,,,,,,322.61861690005753,322.6186553000007,"['Eimer', 'Buch', 'Kette', 'Kerze', 'Lampe', 'Hut', 'Schlüssel', 'Bürste', 'Uhr', 'Würfel', 'Vase', 'Kiste', 'Hammer', 'Kamera', 'Fahrrad', 'Telefon', 'Trommel', 'Geige', 'Jacke', 'Stift', 'Rucksack', 'Blume', 'Tasche', 'Tasse', 'Brille', 'Ring', 'Schere', 'Flasche', 'Socke', 'Löffel']",323.1151804999681,323.1177244000137,None,323.1178539999528,323.119290899951,None,,,323.1194019999821,323.1208520999644,None,323.12096189998556,323.1222826000303,323.12229540001135,329.12575610005297,0,,,,,,,,,,,,,,,,,,,,,,,,,,,,,,,,,,,,,,,,,,,,,,2,2023-12-21_13h01.41.244,watkins1,2023.2.3,99.76156979795192,74,2023-12-21 13h02.10.344991 +0000,
,,,,,,,,,,,10,0,10,0,,,,,,,,,,,,,329.13555250002537,,,,,,,,,,,,329.1260358999716,329.6174738999689,,,[],[],,,,,,,,,,,,None,None,,,,,,,,,,Vase,biegsam,"['Vase', 'biegsam']",restudy,2,,,,,,329.12597189994995,329.1260074999882,"['Eimer', 'Buch', 'Kette', 'Kerze', 'Lampe', 'Hut', 'Schlüssel', 'Bürste', 'Uhr', 'Würfel', 'Vase', 'Kiste', 'Hammer', 'Kamera', 'Fahrrad', 'Telefon', 'Trommel', 'Geige', 'Jacke', 'Stift', 'Rucksack', 'Blume', 'Tasche', 'Tasse', 'Brille', 'Ring', 'Schere', 'Flasche', 'Socke', 'Löffel']",329.6174845000496,329.6200124999741,None,329.6201379999984,335.62307159998454,1,2.2844187000300735,None,335.62337100005243,335.6259758999804,None,335.6260888000252,335.6271299000364,335.62714190001134,335.6286869000178,,,,,,,,,,,,,,,,,,,,,,,,,,,,,,,,,,,,,,,,,,,,,,,2,2023-12-21_13h01.41.244,watkins1,2023.2.3,99.76156979795192,74,2023-12-21 13h02.10.344991 +0000,
,,,,,,,,,,,11,0,11,0,,,,,,,,,,,,,335.6323787999572,,,,,,,,,,,,335.62897570000496,336.12455049995333,,,[],[],,,,,,,,,,,,3.7946109999902546,None,,,,,Hund,,,,,Kiste,flauschig,"['Kiste', 'flauschig']",test_sub,2,,,,,,335.6289090999635,335.6289482000284,"['Eimer', 'Buch', 'Kette', 'Kerze', 'Lampe', 'Hut', 'Schlüssel', 'Bürste', 'Uhr', 'Würfel', 'Vase', 'Kiste', 'Hammer', 'Kamera', 'Fahrrad', 'Telefon', 'Trommel', 'Geige', 'Jacke', 'Stift', 'Rucksack', 'Blume', 'Tasche', 'Tasse', 'Brille', 'Ring', 'Schere', 'Flasche', 'Socke', 'Löffel']",336.1245615000371,336.12722909997683,None,336.1273514999775,336.12875839998014,None,,,336.1288671999937,336.13026190001983,None,336.13036850001663,336.13150480005424,336.1315196000505,342.13556630001403,0,,,,,,,,,,,,,,,,,,,,,,,,,,,,,,,,,,,,,,,,,,,,,,2,2023-12-21_13h01.41.244,watkins1,2023.2.3,99.76156979795192,74,2023-12-21 13h02.10.344991 +0000,
,,,,,,,,,,,12,0,12,0,,,,,,,,,,,,,342.14541959995404,,,,,,,,,,,,342.13584700005595,342.6273788999533,,,[],[],,,,,,,,,,,,None,None,,,,,,,,,,Hammer,sauber,"['Hammer', 'sauber']",test_sub,2,,,,,,342.1357812000206,342.1358185999561,"['Eimer', 'Buch', 'Kette', 'Kerze', 'Lampe', 'Hut', 'Schlüssel', 'Bürste', 'Uhr', 'Würfel', 'Vase', 'Kiste', 'Hammer', 'Kamera', 'Fahrrad', 'Telefon', 'Trommel', 'Geige', 'Jacke', 'Stift', 'Rucksack', 'Blume', 'Tasche', 'Tasse', 'Brille', 'Ring', 'Schere', 'Flasche', 'Socke', 'Löffel']",342.6273904000409,342.6302007000195,None,342.6303288000636,342.63294639997184,None,,,342.6330575000029,342.6356682999758,None,342.6357791000046,342.63703610002995,342.63704880001023,348.6441076999763,0,,,,,,,,,,,,,,,,,,,,,,,,,,,,,,,,,,,,,,,,,,,,,,2,2023-12-21_13h01.41.244,watkins1,2023.2.3,99.76156979795192,74,2023-12-21 13h02.10.344991 +0000,
,,,,,,,,,,,13,0,13,0,,,,,,,,,,,,,348.65388750005513,,,,,,,,,,,,348.6443793999497,349.1361522000516,,,[],[],,,,,,,,,,,,None,None,,,,,,,,,,Kamera,schlicht,"['Kamera', 'schlicht']",test_sub,2,,,,,,348.64431510004215,348.64435129996855,"['Eimer', 'Buch', 'Kette', 'Kerze', 'Lampe', 'Hut', 'Schlüssel', 'Bürste', 'Uhr', 'Würfel', 'Vase', 'Kiste', 'Hammer', 'Kamera', 'Fahrrad', 'Telefon', 'Trommel', 'Geige', 'Jacke', 'Stift', 'Rucksack', 'Blume', 'Tasche', 'Tasse', 'Brille', 'Ring', 'Schere', 'Flasche', 'Socke', 'Löffel']",349.13616340002045,349.1389782000333,None,349.1391082999762,349.1416433999548,None,,,349.1417542999843,349.14427859999705,None,349.14438910002355,349.14555260003544,349.14556530001573,355.151734199957,0,,,,,,,,,,,,,,,,,,,,,,,,,,,,,,,,,,,,,,,,,,,,,,2,2023-12-21_13h01.41.244,watkins1,2023.2.3,99.76156979795192,74,2023-12-21 13h02.10.344991 +0000,
,,,,,,,,,,,14,0,14,0,,,,,,,,,,,,,355.16153459995985,,,,,,,,,,,,355.1520162000088,355.64360049995594,,,[],[],,,,,,,,,,,,3.4649209999479353,4.077503599924967,,,,,Geie,,,,,Fahrrad,lang,"['Fahrrad', 'lang']",test_sub,2,,,,,,355.15194899996277,355.1519864000147,"['Eimer', 'Buch', 'Kette', 'Kerze', 'Lampe', 'Hut', 'Schlüssel', 'Bürste', 'Uhr', 'Würfel', 'Vase', 'Kiste', 'Hammer', 'Kamera', 'Fahrrad', 'Telefon', 'Trommel', 'Geige', 'Jacke', 'Stift', 'Rucksack', 'Blume', 'Tasche', 'Tasse', 'Brille', 'Ring', 'Schere', 'Flasche', 'Socke', 'Löffel']",355.6436113000382,355.64642530004494,None,355.64655149995815,355.64914320001844,None,,,355.6492540000472,355.6518458999926,None,355.65195550001226,355.65314229996875,355.6531548999483,361.6588618999813,0,,,,,,,,,,,,,,,,,,,,,,,,,,,,,,,,,,,,,,,,,,,,,,2,2023-12-21_13h01.41.244,watkins1,2023.2.3,99.76156979795192,74,2023-12-21 13h02.10.344991 +0000,
,,,,,,,,,,,15,0,15,0,,,,,,,,,,,,,361.66862550005317,,,,,,,,,,,,361.65914450003766,362.1505739999702,,,[],[],,,,,,,,,,,,None,None,,,,,,,,,,Telefon,verspielt,"['Telefon', 'verspielt']",restudy,2,,,,,,361.6590772999916,361.6591154000489,"['Eimer', 'Buch', 'Kette', 'Kerze', 'Lampe', 'Hut', 'Schlüssel', 'Bürste', 'Uhr', 'Würfel', 'Vase', 'Kiste', 'Hammer', 'Kamera', 'Fahrrad', 'Telefon', 'Trommel', 'Geige', 'Jacke', 'Stift', 'Rucksack', 'Blume', 'Tasche', 'Tasse', 'Brille', 'Ring', 'Schere', 'Flasche', 'Socke', 'Löffel']",362.1505849000532,362.15320860000793,None,362.15333610004745,368.157074799994,1,1.7669173000613227,None,368.1573719000444,368.16020289994776,None,368.1603152999887,368.1615466000512,368.1615588000277,368.1633358000545,,,,,,,,,,,,,,,,,,,,,,,,,,,,,,,,,,,,,,,,,,,,,,,2,2023-12-21_13h01.41.244,watkins1,2023.2.3,99.76156979795192,74,2023-12-21 13h02.10.344991 +0000,
,,,,,,,,,,,16,0,16,0,,,,,,,,,,,,,368.16654120001476,,,,,,,,,,,,368.16362050001044,368.6586093000369,,,[],[],,,,,,,,,,,,None,None,,,,,,,,,,Trommel,elegant,"['Trommel', 'elegant']",test_sub,2,,,,,,368.1635548999766,368.1635932000354,"['Eimer', 'Buch', 'Kette', 'Kerze', 'Lampe', 'Hut', 'Schlüssel', 'Bürste', 'Uhr', 'Würfel', 'Vase', 'Kiste', 'Hammer', 'Kamera', 'Fahrrad', 'Telefon', 'Trommel', 'Geige', 'Jacke', 'Stift', 'Rucksack', 'Blume', 'Tasche', 'Tasse', 'Brille', 'Ring', 'Schere', 'Flasche', 'Socke', 'Löffel']",368.65862060000654,368.66140009998344,None,368.66152920003515,368.6629927000031,None,,,368.663104700041,368.66472810006235,None,368.66483649995644,368.66601960000116,368.6660323999822,374.6700967999641,0,,,,,,,,,,,,,,,,,,,,,,,,,,,,,,,,,,,,,,,,,,,,,,2,2023-12-21_13h01.41.244,watkins1,2023.2.3,99.76156979795192,74,2023-12-21 13h02.10.344991 +0000,
,,,,,,,,,,,17,0,17,0,,,,,,,,,,,,,374.6799280999694,,,,,,,,,,,,374.6703750999877,375.1619696000125,,,[],[],,,,,,,,,,,,1.1149878998985514,None,,,,,Geige,,,,,Geige,kurz,"['Geige', 'kurz']",test_sub,2,,,,,,374.6703094999539,374.6703458999982,"['Eimer', 'Buch', 'Kette', 'Kerze', 'Lampe', 'Hut', 'Schlüssel', 'Bürste', 'Uhr', 'Würfel', 'Vase', 'Kiste', 'Hammer', 'Kamera', 'Fahrrad', 'Telefon', 'Trommel', 'Geige', 'Jacke', 'Stift', 'Rucksack', 'Blume', 'Tasche', 'Tasse', 'Brille', 'Ring', 'Schere', 'Flasche', 'Socke', 'Löffel']",375.1619802999776,375.16469570004847,None,375.16482399997767,375.16735829995014,None,,,375.16746869997587,375.17001440003514,None,375.170123900054,375.1712764999829,375.17128909996245,381.1769496999914,1,,,,,,,,,,,,,,,,,,,,,,,,,,,,,,,,,,,,,,,,,,,,,,2,2023-12-21_13h01.41.244,watkins1,2023.2.3,99.76156979795192,74,2023-12-21 13h02.10.344991 +0000,
,,,,,,,,,,,18,0,18,0,,,,,,,,,,,,,381.1867328999797,,,,,,,,,,,,381.17722379998304,381.66879679996055,,,[],[],,,,,,,,,,,,None,None,,,,,,,,,,Jacke,kaputt,"['Jacke', 'kaputt']",restudy,2,,,,,,381.17715909995604,381.1771957000019,"['Eimer', 'Buch', 'Kette', 'Kerze', 'Lampe', 'Hut', 'Schlüssel', 'Bürste', 'Uhr', 'Würfel', 'Vase', 'Kiste', 'Hammer', 'Kamera', 'Fahrrad', 'Telefon', 'Trommel', 'Geige', 'Jacke', 'Stift', 'Rucksack', 'Blume', 'Tasche', 'Tasse', 'Brille', 'Ring', 'Schere', 'Flasche', 'Socke', 'Löffel']",381.6688078000443,381.67132690001745,None,381.67145210003946,387.6733740000054,2,2.1453354000113904,None,387.67367249995004,387.6763323000632,None,387.6764458999969,387.67760459997226,387.67761660006363,387.67909079999663,,,,,,,,,,,,,,,,,,,,,,,,,,,,,,,,,,,,,,,,,,,,,,,2,2023-12-21_13h01.41.244,watkins1,2023.2.3,99.76156979795192,74,2023-12-21 13h02.10.344991 +0000,
,,,,,,,,,,,19,0,19,0,,,,,,,,,,,,,387.6827859999612,,,,,,,,,,,,387.67937509994954,388.17491750000045,,,[],[],,,,,,,,,,,,None,None,,,,,,,,,,Stift,lustig,"['Stift', 'lustig']",restudy,2,,,,,,387.67930960003287,387.6793477999745,"['Eimer', 'Buch', 'Kette', 'Kerze', 'Lampe', 'Hut', 'Schlüssel', 'Bürste', 'Uhr', 'Würfel', 'Vase', 'Kiste', 'Hammer', 'Kamera', 'Fahrrad', 'Telefon', 'Trommel', 'Geige', 'Jacke', 'Stift', 'Rucksack', 'Blume', 'Tasche', 'Tasse', 'Brille', 'Ring', 'Schere', 'Flasche', 'Socke', 'Löffel']",388.1749309999868,388.1776120000286,None,388.17773989995476,394.18168300006073,1,1.7587886999826878,None,394.18198880006094,394.1846726000076,None,394.18478510004934,394.18594899994787,394.1859608000377,394.18713510001544,,,,,,,,,,,,,,,,,,,,,,,,,,,,,,,,,,,,,,,,,,,,,,,2,2023-12-21_13h01.41.244,watkins1,2023.2.3,99.76156979795192,74,2023-12-21 13h02.10.344991 +0000,
,,,,,,,,,,,20,0,20,0,,,,,,,,,,,,,394.19108120002784,,,,,,,,,,,,394.18741839996073,394.6830219000112,,,[],[],,,,,,,,,,,,None,None,,,,,,,,,,Rucksack,robust,"['Rucksack', 'robust']",restudy,2,,,,,,394.18735220003873,394.1873907999834,"['Eimer', 'Buch', 'Kette', 'Kerze', 'Lampe', 'Hut', 'Schlüssel', 'Bürste', 'Uhr', 'Würfel', 'Vase', 'Kiste', 'Hammer', 'Kamera', 'Fahrrad', 'Telefon', 'Trommel', 'Geige', 'Jacke', 'Stift', 'Rucksack', 'Blume', 'Tasche', 'Tasse', 'Brille', 'Ring', 'Schere', 'Flasche', 'Socke', 'Löffel']",394.6830337999854,394.68595710000955,None,394.68608360004146,400.6887884000316,None,,,400.688934899983,400.69184149999637,None,400.69195749994833,400.6931604000274,400.6931723000016,400.69432789995335,,,,,,,,,,,,,,,,,,,,,,,,,,,,,,,,,,,,,,,,,,,,,,,2,2023-12-21_13h01.41.244,watkins1,2023.2.3,99.76156979795192,74,2023-12-21 13h02.10.344991 +0000,
,,,,,,,,,,,21,0,21,0,,,,,,,,,,,,,400.6982063000323,,,,,,,,,,,,400.69461170001887,401.19077510002535,,,[],[],,,,,,,,,,,,None,None,,,,,,,,,,Blume,groß,"['Blume', 'groß']",test_sub,2,,,,,,400.6945468999911,400.69458480004687,"['Eimer', 'Buch', 'Kette', 'Kerze', 'Lampe', 'Hut', 'Schlüssel', 'Bürste', 'Uhr', 'Würfel', 'Vase', 'Kiste', 'Hammer', 'Kamera', 'Fahrrad', 'Telefon', 'Trommel', 'Geige', 'Jacke', 'Stift', 'Rucksack', 'Blume', 'Tasche', 'Tasse', 'Brille', 'Ring', 'Schere', 'Flasche', 'Socke', 'Löffel']",401.1907857999904,401.1937878000317,None,401.19391499995254,401.195326999994,None,,,401.19543760002125,401.1968397999881,None,401.19694970001,401.1981000000378,401.1981151000364,407.20214219996706,0,,,,,,,,,,,,,,,,,,,,,,,,,,,,,,,,,,,,,,,,,,,,,,2,2023-12-21_13h01.41.244,watkins1,2023.2.3,99.76156979795192,74,2023-12-21 13h02.10.344991 +0000,
,,,,,,,,,,,22,0,22,0,,,,,,,,,,,,,407.21192929998506,,,,,,,,,,,,407.20241260004696,407.693759100046,,,[],[],,,,,,,,,,,,None,None,,,,,,,,,,Tasche,glänzend,"['Tasche', 'glänzend']",restudy,2,,,,,,407.20234900002833,407.20238420006353,"['Eimer', 'Buch', 'Kette', 'Kerze', 'Lampe', 'Hut', 'Schlüssel', 'Bürste', 'Uhr', 'Würfel', 'Vase', 'Kiste', 'Hammer', 'Kamera', 'Fahrrad', 'Telefon', 'Trommel', 'Geige', 'Jacke', 'Stift', 'Rucksack', 'Blume', 'Tasche', 'Tasse', 'Brille', 'Ring', 'Schere', 'Flasche', 'Socke', 'Löffel']",407.69377010001335,407.6963610999519,None,407.69648649997544,413.6986992000602,2,2.743942999979481,None,413.69899399997666,413.70177070004866,None,413.7018937000539,413.7030499000102,413.7030615999829,413.7042432000162,,,,,,,,,,,,,,,,,,,,,,,,,,,,,,,,,,,,,,,,,,,,,,,2,2023-12-21_13h01.41.244,watkins1,2023.2.3,99.76156979795192,74,2023-12-21 13h02.10.344991 +0000,
,,,,,,,,,,,23,0,23,0,,,,,,,,,,,,,413.70814750005957,,,,,,,,,,,,413.7045240000589,414.2002878000494,,,[],[],,,,,,,,,,,,None,None,,,,,,,,,,Tasse,glatt,"['Tasse', 'glatt']",restudy,2,,,,,,413.70445890002884,413.7044967999682,"['Eimer', 'Buch', 'Kette', 'Kerze', 'Lampe', 'Hut', 'Schlüssel', 'Bürste', 'Uhr', 'Würfel', 'Vase', 'Kiste', 'Hammer', 'Kamera', 'Fahrrad', 'Telefon', 'Trommel', 'Geige', 'Jacke', 'Stift', 'Rucksack', 'Blume', 'Tasche', 'Tasse', 'Brille', 'Ring', 'Schere', 'Flasche', 'Socke', 'Löffel']",414.2002992000198,414.2029615000356,None,414.2030865000561,420.2082890999736,2,2.0616875999839976,None,420.2085762999486,420.21122399996966,None,420.2113340999931,420.2124458999606,420.2124576000497,420.2135584000498,,,,,,,,,,,,,,,,,,,,,,,,,,,,,,,,,,,,,,,,,,,,,,,2,2023-12-21_13h01.41.244,watkins1,2023.2.3,99.76156979795192,74,2023-12-21 13h02.10.344991 +0000,
,,,,,,,,,,,24,0,24,0,,,,,,,,,,,,,420.2177169000497,,,,,,,,,,,,420.2138326000422,420.7104366000276,,,[],[],,,,,,,,,,,,None,None,,,,,,,,,,Brille,teuer,"['Brille', 'teuer']",test_sub,2,,,,,,420.2137690000236,420.21380559995305,"['Eimer', 'Buch', 'Kette', 'Kerze', 'Lampe', 'Hut', 'Schlüssel', 'Bürste', 'Uhr', 'Würfel', 'Vase', 'Kiste', 'Hammer', 'Kamera', 'Fahrrad', 'Telefon', 'Trommel', 'Geige', 'Jacke', 'Stift', 'Rucksack', 'Blume', 'Tasche', 'Tasse', 'Brille', 'Ring', 'Schere', 'Flasche', 'Socke', 'Löffel']",420.7104481999995,420.71338750002906,None,420.71351789997425,420.7149644000456,None,,,420.715077699977,420.7165168999927,None,420.71662650001235,420.71779769996647,420.71781069994904,426.72180699999444,0,,,,,,,,,,,,,,,,,,,,,,,,,,,,,,,,,,,,,,,,,,,,,,2,2023-12-21_13h01.41.244,watkins1,2023.2.3,99.76156979795192,74,2023-12-21 13h02.10.344991 +0000,
,,,,,,,,,,,25,0,25,0,,,,,,,,,,,,,426.7315304999938,,,,,,,,,,,,426.7220868000295,427.21371609997004,,,[],[],,,,,,,,,,,,None,None,,,,,,,,,,Ring,kalt,"['Ring', 'kalt']",restudy,2,,,,,,426.72202089999337,426.7220573000377,"['Eimer', 'Buch', 'Kette', 'Kerze', 'Lampe', 'Hut', 'Schlüssel', 'Bürste', 'Uhr', 'Würfel', 'Vase', 'Kiste', 'Hammer', 'Kamera', 'Fahrrad', 'Telefon', 'Trommel', 'Geige', 'Jacke', 'Stift', 'Rucksack', 'Blume', 'Tasche', 'Tasse', 'Brille', 'Ring', 'Schere', 'Flasche', 'Socke', 'Löffel']",427.2137276000576,427.21626869996544,None,427.21639750001486,433.2201525999699,1,3.136215499951504,None,433.22045330004767,433.22286600002553,None,433.22298029996455,433.22402530000545,433.2240369999781,433.22506049997173,,,,,,,,,,,,,,,,,,,,,,,,,,,,,,,,,,,,,,,,,,,,,,,2,2023-12-21_13h01.41.244,watkins1,2023.2.3,99.76156979795192,74,2023-12-21 13h02.10.344991 +0000,
,,,,,,,,,,,26,0,26,0,,,,,,,,,,,,,433.2295691999607,,,,,,,,,,,,433.2253450000426,433.72192260005977,,,[],[],,,,,,,,,,,,None,None,,,,,,,,,,Schere,schmutzig,"['Schere', 'schmutzig']",test_sub,2,,,,,,433.2252802000148,433.2253179999534,"['Eimer', 'Buch', 'Kette', 'Kerze', 'Lampe', 'Hut', 'Schlüssel', 'Bürste', 'Uhr', 'Würfel', 'Vase', 'Kiste', 'Hammer', 'Kamera', 'Fahrrad', 'Telefon', 'Trommel', 'Geige', 'Jacke', 'Stift', 'Rucksack', 'Blume', 'Tasche', 'Tasse', 'Brille', 'Ring', 'Schere', 'Flasche', 'Socke', 'Löffel']",433.7219341000309,433.72460329998285,None,433.72472960001323,433.7261558000464,None,,,433.7262677999679,433.72768210002687,None,433.72779190004803,433.72894990001805,433.7289626999991,439.7327924000565,0,,,,,,,,,,,,,,,,,,,,,,,,,,,,,,,,,,,,,,,,,,,,,,2,2023-12-21_13h01.41.244,watkins1,2023.2.3,99.76156979795192,74,2023-12-21 13h02.10.344991 +0000,
,,,,,,,,,,,27,0,27,0,,,,,,,,,,,,,439.742645899998,,,,,,,,,,,,439.7330679000588,440.2245962000452,,,[],[],,,,,,,,,,,,2.3808037999551743,3.555896500009112,,,,,Vase,,,,,Flasche,krumm,"['Flasche', 'krumm']",test_sub,2,,,,,,439.73300290002953,439.7330385999521,"['Eimer', 'Buch', 'Kette', 'Kerze', 'Lampe', 'Hut', 'Schlüssel', 'Bürste', 'Uhr', 'Würfel', 'Vase', 'Kiste', 'Hammer', 'Kamera', 'Fahrrad', 'Telefon', 'Trommel', 'Geige', 'Jacke', 'Stift', 'Rucksack', 'Blume', 'Tasche', 'Tasse', 'Brille', 'Ring', 'Schere', 'Flasche', 'Socke', 'Löffel']",440.224607000011,440.227396100061,None,440.2275207999628,440.2301181999501,None,,,440.2302285999758,440.2329551000148,None,440.2330654000398,440.23424550006166,440.2342581000412,446.2405163999647,0,,,,,,,,,,,,,,,,,,,,,,,,,,,,,,,,,,,,,,,,,,,,,,2,2023-12-21_13h01.41.244,watkins1,2023.2.3,99.76156979795192,74,2023-12-21 13h02.10.344991 +0000,
,,,,,,,,,,,28,0,28,0,,,,,,,,,,,,,446.2504276999971,,,,,,,,,,,,446.24079910002183,446.7324108000612,,,[],[],,,,,,,,,,,,None,None,,,,,,,,,,Socke,blass,"['Socke', 'blass']",restudy,2,,,,,,446.2407315999735,446.2407699000323,"['Eimer', 'Buch', 'Kette', 'Kerze', 'Lampe', 'Hut', 'Schlüssel', 'Bürste', 'Uhr', 'Würfel', 'Vase', 'Kiste', 'Hammer', 'Kamera', 'Fahrrad', 'Telefon', 'Trommel', 'Geige', 'Jacke', 'Stift', 'Rucksack', 'Blume', 'Tasche', 'Tasse', 'Brille', 'Ring', 'Schere', 'Flasche', 'Socke', 'Löffel']",446.732421600027,446.73508530005347,None,446.73521079996135,452.74534849997144,1,1.641293999971822,None,452.7456446000142,452.7483340000035,None,452.74844730005134,452.74959569994826,452.7496075000381,452.75104670005385,,,,,,,,,,,,,,,,,,,,,,,,,,,,,,,,,,,,,,,,,,,,,,,2,2023-12-21_13h01.41.244,watkins1,2023.2.3,99.76156979795192,74,2023-12-21 13h02.10.344991 +0000,
,,,,,,,,,,,29,0,29,0,,,,,,,,,,,,,452.7547540999949,,,,,,,,,,,,452.75133020000067,453.2467145000119,,,[],[],,,,,,,,,,,,None,None,,,,,,,,,,Löffel,kratzig,"['Löffel', 'kratzig']",restudy,2,,,,,,452.7512625999516,452.7513030000264,"['Eimer', 'Buch', 'Kette', 'Kerze', 'Lampe', 'Hut', 'Schlüssel', 'Bürste', 'Uhr', 'Würfel', 'Vase', 'Kiste', 'Hammer', 'Kamera', 'Fahrrad', 'Telefon', 'Trommel', 'Geige', 'Jacke', 'Stift', 'Rucksack', 'Blume', 'Tasche', 'Tasse', 'Brille', 'Ring', 'Schere', 'Flasche', 'Socke', 'Löffel']",453.24672539997846,453.2494200000074,None,453.24954810005147,459.2525441000471,1,2.654804600053467,None,459.252833000035,459.25616660004016,None,459.25628169998527,459.25751410005614,459.25752600003034,459.2586986999959,,,,,,,,,,,,,,,,,,,,,,,,,,,,,,,,,,,,,,,,,,,,,,,2,2023-12-21_13h01.41.244,watkins1,2023.2.3,99.76156979795192,74,2023-12-21 13h02.10.344991 +0000,
,,,,,,,,,,,,,,,,,,,,,,,,,,,,,,,,,,,,,,,,,,,,,,,,,,,,,,,,,,,,,,,,,,,,,,,2,,,,,,,,,,,,,,,,,,,,,,,,,,,,,,,,,,,,,,,,,,,,,,,,,,,,,,,,,,,,,,,,,,,,,,2,2023-12-21_13h01.41.244,watkins1,2023.2.3,99.76156979795192,74,2023-12-21 13h02.10.344991 +0000,
(54 : 6) - 10 = 0 ,Incorrect,button_incorrect,,,,,,,,,,,,,0,0,0,5,,,,,,,,,476.14077960001305,,,,,,,,,,475.0940045999596,476.0976735999575,,,,,['button_incorrect'],[13.545646000071429],,,,,,,,,,,,,,,,,,,,,,,,,,distractorTask,2,,,,,,,,,,,,,,,,,,,,,,,,,476.12569020001683,476.14077960001305,489.6801120999735,[-0.3731481481481482],[-0.37592592592592594],[1],[0],[0],[13.545646000071429],['button_incorrect'],489.6808078000322,490.683842599974,,,,,,,,,,,,,,,,,,,,,,,,,,,,,,,,,,2,2023-12-21_13h01.41.244,watkins1,2023.2.3,99.76156979795192,74,2023-12-21 13h02.10.344991 +0000,
(40 : 5) + 8 = 15 ,Incorrect,button_incorrect,,,,,,,,,,,,,0,1,1,7,,,,,,,,,490.69383060000837,,,,,,,,,,,,,,,,['button_incorrect'],[10.18008690001443],,,,,,,,,,,,,,,,,,,,,,,,,,distractorTask,2,,,,,,,,,,,,,,,,,,,,,,,,,490.68404409999494,490.69383060000837,500.8670285999542,[-0.2953703703703704],[-0.387037037037037],[1],[0],[0],[10.18008690001443],['button_incorrect'],500.867420900031,501.8706993999658,,,,,,,,,,,,,,,,,,,,,,,,,,,,,,,,,,2,2023-12-21_13h01.41.244,watkins1,2023.2.3,99.76156979795192,74,2023-12-21 13h02.10.344991 +0000,
(9 x 5) - 9 = 36 ,Correct,button_correct,,,,,,,,,,,,,0,2,2,4,,,,,,,,,501.88069799996447,,,,,,,,,,,,,,,,['button_correct'],[18.796362299937755],,,,,,,,,,,,,,,,,,,,,,,,,,distractorTask,2,,,,,,,,,,,,,,,,,,,,,,,,,501.8708933000453,501.88069799996447,520.6710549000418,[0.39351851851851855],[-0.3925925925925926],[1],[0],[0],[18.796362299937755],['button_correct'],520.6714662000304,521.6747843000339,,,,,,,,,,,,,,,,,,,,,,,,,,,,,,,,,,2,2023-12-21_13h01.41.244,watkins1,2023.2.3,99.76156979795192,74,2023-12-21 13h02.10.344991 +0000,
(28 : 7) - 3 = 1 ,Correct,button_correct,,,,,,,,,,,,,0,3,3,0,,,,,,,,,521.684762799996,,,,,,,,,,,,,,,,['button_correct'],[11.988131599966437],,,,,,,,,,,,,,,,,,,,,,,,,,distractorTask,2,,,,,,,,,,,,,,,,,,,,,,,,,521.6749768999871,521.684762799996,533.6655691000633,[0.31574074074074077],[-0.38055555555555554],[1],[0],[0],[11.988131599966437],['button_correct'],533.6659544999711,534.6691410000203,,,,,,,,,,,,,,,,,,,,,,,,,,,,,,,,,,2,2023-12-21_13h01.41.244,watkins1,2023.2.3,99.76156979795192,74,2023-12-21 13h02.10.344991 +0000,
(25 : 5) + 5 = 9 ,Incorrect,button_incorrect,,,,,,,,,,,,,0,4,4,6,,,,,,,,,534.6792254999746,,,,,,,,,,,,,,,,['button_incorrect'],[4.608398899901658],,,,,,,,,,,,,,,,,,,,,,,,,,distractorTask,2,,,,,,,,,,,,,,,,,,,,,,,,,534.6693291000556,534.6792254999746,539.2795402000193,[-0.28703703703703703],[-0.3990740740740741],[1],[0],[0],[4.608398899901658],['button_incorrect'],539.279923700029,540.2831753999926,,,,,,,,,,,,,,,,,,,,,,,,,,,,,,,,,,2,2023-12-21_13h01.41.244,watkins1,2023.2.3,99.76156979795192,74,2023-12-21 13h02.10.344991 +0000,
(6 x 3) + 10 = 27 ,Incorrect,button_incorrect,,,,,,,,,,,,,0,5,5,8,,,,,,,,,540.2932032999815,,,,,,,,,,,,,,,,['button_incorrect'],[4.0962128000101075],,,,,,,,,,,,,,,,,,,,,,,,,,distractorTask,2,,,,,,,,,,,,,,,,,,,,,,,,,540.2833653000416,540.2932032999815,544.381322799949,[-0.375],[-0.38055555555555554],[1],[0],[0],[4.0962128000101075],['button_incorrect'],544.38170300005,545.3850216000574,,,,,,,,,,,,,,,,,,,,,,,,,,,,,,,,,,2,2023-12-21_13h01.41.244,watkins1,2023.2.3,99.76156979795192,74,2023-12-21 13h02.10.344991 +0000,
(7 x 6) + 9 = 48 ,Incorrect,button_incorrect,,,,,,,,,,,,,0,6,6,9,,,,,,,,,545.394977799966,,,,,,,,,,,,,,,,['button_incorrect'],[15.975319899967872],,,,,,,,,,,,,,,,,,,,,,,,,,distractorTask,2,,,,,,,,,,,,,,,,,,,,,,,,,545.3852100999793,545.394977799966,561.3623752000276,[-0.33240740740740743],[-0.39351851851851855],[1],[0],[0],[15.975319899967872],['button_incorrect'],561.3627571000252,562.3660769000417,,,,,,,,,,,,,,,,,,,,,,,,,,,,,,,,,,2,2023-12-21_13h01.41.244,watkins1,2023.2.3,99.76156979795192,74,2023-12-21 13h02.10.344991 +0000,
(4 : 2) + 4 = 6 ,Correct,button_correct,,,,,,,,,,,,,0,7,7,1,,,,,,,,,562.3760611000471,,,,,,,,,,,,,,,,['button_correct'],"[2.930889999959618, 3.262395199970342, 4.065787700004876]",,,,,,,,,,,,,,,,,,,,,,,,,,distractorTask,2,,,,,,,,,,,,,,,,,,,,,,,,,562.3662648999598,562.3760611000471,566.4337600000435,"[0.38796296296296295, 0.3925925925925926, 0.337037037037037]","[-0.4361111111111111, -0.42592592592592593, -0.40555555555555556]","[1, 1, 1]","[0, 0, 0]","[0, 0, 0]","[2.930889999959618, 3.262395199970342, 4.065787700004876]",['button_correct'],566.4341832000064,567.4373625000007,,,,,,,,,,,,,,,,,,,,,,,,,,,,,,,,,,2,2023-12-21_13h01.41.244,watkins1,2023.2.3,99.76156979795192,74,2023-12-21 13h02.10.344991 +0000,
(2 x 5) + 3 = 13 ,Correct,button_correct,,,,,,,,,,,,,0,8,8,2,,,,,,,,,567.4474429000402,,,,,,,,,,,,,,,,['button_correct'],[3.1827035000314936],,,,,,,,,,,,,,,,,,,,,,,,,,distractorTask,2,,,,,,,,,,,,,,,,,,,,,,,,,567.4375547999516,567.4474429000402,570.6219627000391,[0.3314814814814815],[-0.4009259259259259],[1],[0],[0],[3.1827035000314936],['button_correct'],570.6223395999987,571.6252571999794,,,,,,,,,,,,,,,,,,,,,,,,,,,,,,,,,,2,2023-12-21_13h01.41.244,watkins1,2023.2.3,99.76156979795192,74,2023-12-21 13h02.10.344991 +0000,
(80 : 10) + 9 = 17 ,Correct,button_correct,,,,,,,,,,,,,0,9,9,3,,,,,,,,,571.6352344000479,,,,,,,,,,,,,,,,['button_correct'],"[3.563187799998559, 4.396816599997692]",,,,,,,,,,,,,,,,,,,,,,,,,,distractorTask,2,,,,,,,,,,,,,,,,,,,,,,,,,571.6254428999964,571.6352344000479,576.0242349000182,"[0.34074074074074073, 0.35185185185185186]","[-0.42777777777777776, -0.4148148148148148]","[1, 1]","[0, 0]","[0, 0]","[3.563187799998559, 4.396816599997692]",['button_correct'],576.0246397999581,577.0277149999747,,,,,,,,,,,,,,,,,,,,,,,,,,,,,,,,,,2,2023-12-21_13h01.41.244,watkins1,2023.2.3,99.76156979795192,74,2023-12-21 13h02.10.344991 +0000,
,,,,,,,,,,,,,,,,,,,,,,,,,,,,,,,,,,,,,,,,,,,,,,,,,,,,,,,,,,,,,,,,,,,,,,,2,,,,,,,,,,,,,,,,,,,,,,,,,,,,,,,,,,,,,,,,,,,,,,,,,,,,,,,,,,,,,,,,,,,,,,2,2023-12-21_13h01.41.244,watkins1,2023.2.3,99.76156979795192,74,2023-12-21 13h02.10.344991 +0000,
,,,,,,,,,,,,,,,,,,,0,0,0,0,,,,,586.305834800005,,,,,,,,,,,,,,,,Vase,10.843311500037089,,,,,,,,,,,,5.753698299988173,None,,,,,,,,,,,,,freeRecallSub,2,,,,,,,,,,,,,,,,,,,,,,,,,,,,,,,,,,,,,586.297285299981,586.305834800005,586.305834800005,597.1515622000443,return,10.843311500037089,None,Vase,"[0.04537037037037037, 0.05555555555555555]","[0.032407407407407406, 0.049074074074074076]","[1, 1]","[0, 0]","[0, 0]","[3.8046301000285894, 4.13617269997485]",[],,,,,,,,,,,,,,,,,,,2,2023-12-21_13h01.41.244,watkins1,2023.2.3,99.76156979795192,74,2023-12-21 13h02.10.344991 +0000,
,,,,,,,,,,,,,,,,,,,1,0,1,0,,,,,597.1636004999746,,,,,,,,,,,,,,,,Hund,5.073582099983469,,,,,,,,,,,,4.008465299964882,None,,,,,,,,,,,,,freeRecallSub,2,,,,,,,,,,,,,,,,,,,,,,,,,,,,,,,,,,,,,597.1533946000272,597.1636004999746,597.1636004999746,602.24630540004,return,5.073582099983469,None,Hund,[],[],[],[],[],[],[],,,,,,,,,,,,,,,,,,,2,2023-12-21_13h01.41.244,watkins1,2023.2.3,99.76156979795192,74,2023-12-21 13h02.10.344991 +0000,
,,,,,,,,,,,,,,,,,,,2,0,2,0,,,,,602.26607709995,,,,,,,,,,,,,,,,Katze,1.2991855000145733,,,,,,,,,,,,0.27866099996026605,None,,,,,,,,,,,,,freeRecallSub,2,,,,,,,,,,,,,,,,,,,,,,,,,,,,,,,,,,,,,602.2475554000121,602.26607709995,602.26607709995,603.5705537999747,return,1.2991855000145733,None,Katze,[],[],[],[],[],[],[],,,,,,,,,,,,,,,,,,,2,2023-12-21_13h01.41.244,watkins1,2023.2.3,99.76156979795192,74,2023-12-21 13h02.10.344991 +0000,
,,,,,,,,,,,,,,,,,,,3,0,3,0,,,,,603.5812276999932,,,,,,,,,,,,,,,,Rucksack,4.271930000046268,,,,,,,,,,,,2.540239099995233,None,,,,,,,,,,,,,freeRecallSub,2,,,,,,,,,,,,,,,,,,,,,,,,,,,,,,,,,,,,,603.571799700032,603.5812276999932,603.5812276999932,607.8593910000054,return,4.271930000046268,None,Rucksack,[],[],[],[],[],[],[],,,,,,,,,,,,,,,,,,,2,2023-12-21_13h01.41.244,watkins1,2023.2.3,99.76156979795192,74,2023-12-21 13h02.10.344991 +0000,
,,,,,,,,,,,,,,,,,,,4,0,4,0,,,,,607.8706840999657,,,,,,,,,,,,,,,,Schlüssel,13.31050890008919,,,,,,,,,,,,1.9287782000610605,6.970539800007828,,,,,,,,,,,,,freeRecallSub,2,,,,,,,,,,,,,,,,,,,,,,,,,,,,,,,,,,,,,607.8606431999942,607.8706840999657,607.8706840999657,621.1875658000354,return,13.31050890008919,None,Schlüssel,[0.05555555555555555],[0.04814814814814815],[1],[0],[0],[5.280360499978997],[],,,,,,,,,,,,,,,,,,,2,2023-12-21_13h01.41.244,watkins1,2023.2.3,99.76156979795192,74,2023-12-21 13h02.10.344991 +0000,
,,,,,,,,,,,,,,,,,,,5,0,5,0,,,,,621.1993140999693,,,,,,,,,,,,,,,,Ring,5.397892500041053,,,,,,,,,,,,3.908067399985157,None,,,,,,,,,,,,,freeRecallSub,2,,,,,,,,,,,,,,,,,,,,,,,,,,,,,,,,,,,,,621.1888640000252,621.1993140999693,621.1993140999693,626.6032133999979,return,5.397892500041053,None,Ring,[],[],[],[],[],[],[],,,,,,,,,,,,,,,,,,,2,2023-12-21_13h01.41.244,watkins1,2023.2.3,99.76156979795192,74,2023-12-21 13h02.10.344991 +0000,
,,,,,,,,,,,,,,,,,,,6,0,6,0,,,,,626.614978400059,,,,,,,,,,,,,,,,Kette,22.294214399997145,,,,,,,,,,,,18.007527800044045,None,,,,,,,,,,,,,freeRecallSub,2,,,,,,,,,,,,,,,,,,,,,,,,,,,,,,,,,,,,,626.6044462999562,626.614978400059,626.614978400059,648.9140196000226,return,22.294214399997145,None,Kette,[0.0712962962962963],[0.03796296296296296],[1],[0],[0],[20.4847305000294],[],,,,,,,,,,,,,,,,,,,2,2023-12-21_13h01.41.244,watkins1,2023.2.3,99.76156979795192,74,2023-12-21 13h02.10.344991 +0000,
,,,,,,,,,,,,,,,,,,,7,0,7,0,,,,,648.92573300004,,,,,,,,,,,,,,,,Geige,10.53549399995245,,,,,,,,,,,,9.211280299932696,None,,,,,,,,,,,,,freeRecallSub,2,,,,,,,,,,,,,,,,,,,,,,,,,,,,,,,,,,,,,648.9153426999692,648.92573300004,648.92573300004,659.4621582999825,return,10.53549399995245,None,Geige,[],[],[],[],[],[],[],,,,,,,,,,,,,,,,,,,2,2023-12-21_13h01.41.244,watkins1,2023.2.3,99.76156979795192,74,2023-12-21 13h02.10.344991 +0000,
,,,,,,,,,,,,,,,,,,,8,0,8,0,,,,,659.4740586000262,,,,,,,,,,,,,,,,biegsam,12.211163299973123,,,,,,,,,,,,11.138722199946642,None,,,,,,,,,,,,,freeRecallSub,2,,,,,,,,,,,,,,,,,,,,,,,,,,,,,,,,,,,,,659.463437300059,659.4740586000262,659.4740586000262,671.6866803000448,return,12.211163299973123,None,biegsam,[],[],[],[],[],[],[],,,,,,,,,,,,,,,,,,,2,2023-12-21_13h01.41.244,watkins1,2023.2.3,99.76156979795192,74,2023-12-21 13h02.10.344991 +0000,
,,,,,,,,,,,,,,,,,,,9,0,9,0,,,,,671.6989282000577,,,,,,,,,,,,,,,,kalt,1.066227399976924,,,,,,,,,,,,0.46462099999189377,None,,,,,,,,,,,,,freeRecallSub,2,,,,,,,,,,,,,,,,,,,,,,,,,,,,,,,,,,,,,671.6879441000056,671.6989282000577,671.6989282000577,672.7750860999804,return,1.066227399976924,None,kalt,[],[],[],[],[],[],[],,,,,,,,,,,,,,,,,,,2,2023-12-21_13h01.41.244,watkins1,2023.2.3,99.76156979795192,74,2023-12-21 13h02.10.344991 +0000,
,,,,,,,,,,,,,,,,,,,10,0,10,0,,,,,672.7870118999854,,,,,,,,,,,,,,,,dreckig,3.9781551000196487,,,,,,,,,,,,2.562581400037743,None,,,,,,,,,,,,,freeRecallSub,2,,,,,,,,,,,,,,,,,,,,,,,,,,,,,,,,,,,,,672.7763697999762,672.7870118999854,672.7870118999854,676.7747349999845,return,3.9781551000196487,None,dreckig,[],[],[],[],[],[],[],,,,,,,,,,,,,,,,,,,2,2023-12-21_13h01.41.244,watkins1,2023.2.3,99.76156979795192,74,2023-12-21 13h02.10.344991 +0000,
,,,,,,,,,,,,,,,,,,,11,0,11,0,,,,,676.787179499981,,,,,,,,,,,,,,,,strahlend,3.594003500067629,,,,,,,,,,,,1.7803027000045404,None,,,,,,,,,,,,,freeRecallSub,2,,,,,,,,,,,,,,,,,,,,,,,,,,,,,,,,,,,,,676.775997400051,676.787179499981,676.787179499981,680.384160400019,return,3.594003500067629,None,strahlend,[],[],[],[],[],[],[],,,,,,,,,,,,,,,,,,,2,2023-12-21_13h01.41.244,watkins1,2023.2.3,99.76156979795192,74,2023-12-21 13h02.10.344991 +0000,
,,,,,,,,,,,,,,,,,,,12,0,12,0,,,,,680.3964884000598,,,,,,,,,,,,,,,,Kerze,1.104675699956715,,,,,,,,,,,,0.284270100062713,None,,,,,,,,,,,,,freeRecallSub,2,,,,,,,,,,,,,,,,,,,,,,,,,,,,,,,,,,,,,680.3853811000008,680.3964884000598,680.3964884000598,681.5032338000601,return,1.104675699956715,None,Kerze,[],[],[],[],[],[],[],,,,,,,,,,,,,,,,,,,2,2023-12-21_13h01.41.244,watkins1,2023.2.3,99.76156979795192,74,2023-12-21 13h02.10.344991 +0000,
,,,,,,,,,,,,,,,,,,,13,0,13,0,,,,,681.5159617000027,,,,,,,,,,,,,,,,dick,11.001243700040504,,,,,,,,,,,,10.356881100102328,None,,,,,,,,,,,,,freeRecallSub,2,,,,,,,,,,,,,,,,,,,,,,,,,,,,,,,,,,,,,681.504453200032,681.5159617000027,681.5159617000027,692.5241495999508,return,11.001243700040504,None,dick,[],[],[],[],[],[],[],,,,,,,,,,,,,,,,,,,2,2023-12-21_13h01.41.244,watkins1,2023.2.3,99.76156979795192,74,2023-12-21 13h02.10.344991 +0000,
,,,,,,,,,,,,,,,,,,,14,0,14,0,,,,,692.5371370000066,,,,,,,,,,,,,,,,robust,21.44408360007219,,,,,,,,,,,,20.31894240004476,None,,,,,,,,,,,,,freeRecallSub,2,,,,,,,,,,,,,,,,,,,,,,,,,,,,,,,,,,,,,692.5254204999655,692.5371370000066,692.5371370000066,713.9893409999786,return,21.44408360007219,None,robust,[],[],[],[],[],[],[],,,,,,,,,,,,,,,,,,,2,2023-12-21_13h01.41.244,watkins1,2023.2.3,99.76156979795192,74,2023-12-21 13h02.10.344991 +0000,
,,,,,,,,,,,,,,,,,,,15,0,15,0,,,,,714.0028749000048,,,,,,,,,,,,,,,,flauschig,34.08234960003756,,,,,,,,,,,,31.937280799960718,None,,,,,,,,,,,,,freeRecallSub,2,,,,,,,,,,,,,,,,,,,,,,,,,,,,,,,,,,,,,713.9905970999971,714.0028749000048,714.0028749000048,748.0869145999895,return,34.08234960003756,None,flauschig,[],[],[],[],[],[],[],,,,,,,,,,,,,,,,,,,2,2023-12-21_13h01.41.244,watkins1,2023.2.3,99.76156979795192,74,2023-12-21 13h02.10.344991 +0000,
,,,,,,,,,,,,,,,,,,,16,0,16,0,,,,,748.1016036999645,,,,,,,,,,,,,,,,sauber,10.599507199949585,,,,,,,,,,,,8.8442434000317,9.758007999975234,,,,,,,,,,,,,freeRecallSub,2,,,,,,,,,,,,,,,,,,,,,,,,,,,,,,,,,,,,,748.0881930000614,748.1016036999645,748.1016036999645,758.7097556999652,return,10.599507199949585,None,sauber,[],[],[],[],[],[],[],,,,,,,,,,,,,,,,,,,2,2023-12-21_13h01.41.244,watkins1,2023.2.3,99.76156979795192,74,2023-12-21 13h02.10.344991 +0000,
,,,,,,,,,,,,,,,,,,,17,0,17,0,,,,,758.7234827999491,,,,,,,,,,,,,,,,dreckig,9.657834699959494,,,,,,,,,,,,6.542459000018425,None,,,,,,,,,,,,,freeRecallSub,2,,,,,,,,,,,,,,,,,,,,,,,,,,,,,,,,,,,,,758.7110174000263,758.7234827999491,758.7234827999491,768.3874686999479,return,9.657834699959494,None,dreckig,[],[],[],[],[],[],[],,,,,,,,,,,,,,,,,,,2,2023-12-21_13h01.41.244,watkins1,2023.2.3,99.76156979795192,74,2023-12-21 13h02.10.344991 +0000,
,,,,,,,,,,,,,,,,,,,18,0,18,0,,,,,768.4016041000141,,,,,,,,,,,,,,,,,[],,,,,,,,,,,,None,None,,,,,,,,,,,,,freeRecallSub,2,,,,,,,,,,,,,,,,,,,,,,,,,,,,,,,,,,,,,768.3887207000516,768.4016041000141,768.4016041000141,786.0097237000009,None,,,,[0.22407407407407406],[-0.4046296296296296],[1],[0],[0],[17.614581699948758],"['button_continue', 'continue_text']",,,,,,,,,,,,,,,,,,,2,2023-12-21_13h01.41.244,watkins1,2023.2.3,99.76156979795192,74,2023-12-21 13h02.10.344991 +0000,
,,,,,,,,,,,,,,,,,,,,,,,,,,,,,,,,,,,,,,,,,,,,,,,,,,,,,,,,,,,,,,,,,,,,,,,2,,,,,,,,,,,,,,,,,,,,,,,,,,,,,,,,,,,,,,,,,,,,,,,,,,,,,,,,,,,,,,,,,,,,,,2,2023-12-21_13h01.41.244,watkins1,2023.2.3,99.76156979795192,74,2023-12-21 13h02.10.344991 +0000,
,,,,,,,,,,,,,,,,,,,,,,,0,0,0,0,791.6642817000393,,,,,,,,,,,,800.9768661999842,801.4750824000221,,,,9.309052199940197,,,,,,,,,,,,None,None,,,,,,,,,,Hut,,,cuedRecallAdj,2,,,,,,,,,,,,,,,,,,,,,,,,0,,,,,,,,,,,,,,,,,,,,,,,,,,,,791.6552384999814,791.6642817000393,791.6642817000393,800.9737266000593,dreckig,return,9.309052199940197,None,800.974129899987,800.9830375000602,800.9830375000602,800.9766977999825,,None,,,,,2,2023-12-21_13h01.41.244,watkins1,2023.2.3,99.76156979795192,74,2023-12-21 13h02.10.344991 +0000,
,,,,,,,,,,,,,,,,,,,,,,,1,0,1,0,801.485129000037,,,,,,,,,,,,804.1287100999616,804.6182694999734,,,,2.6399724000366405,,,,,,,,,,,,None,None,,,,,,,,,,Trommel,,,cuedRecallAdj,2,,,,,,,,,,,,,,,,,,,,,,,,0,,,,,,,,,,,,,,,,,,,,,,,,,,,,801.4753236999968,801.485129000037,801.485129000037,804.1264426000416,,return,2.6399724000366405,None,804.1267084999708,804.1360444000456,804.1360444000456,804.1286086000036,,None,,,,,2,2023-12-21_13h01.41.244,watkins1,2023.2.3,99.76156979795192,74,2023-12-21 13h02.10.344991 +0000,
,,,,,,,,,,,,,,,,,,,,,,,2,0,2,0,804.6282289000228,,,,,,,,,,,,808.3471049000509,808.8458789000288,,,,3.7129235999891534,,,,,,,,,,,,None,None,,,,,,,,,,Fahrrad,,,cuedRecallAdj,2,,,,,,,,,,,,,,,,,,,,,,,,0,,,,,,,,,,,,,,,,,,,,,,,,,,,,804.6185113999527,804.6282289000228,804.6282289000228,808.3442629999481,lang,return,3.7129235999891534,None,808.34452709998,808.3538086999906,808.3538086999906,808.3470015999628,,None,,,,,2,2023-12-21_13h01.41.244,watkins1,2023.2.3,99.76156979795192,74,2023-12-21 13h02.10.344991 +0000,
,,,,,,,,,,,,,,,,,,,,,,,3,0,3,0,808.8558256999822,,,,,,,,,,,,810.0637042999733,810.5528881000355,,,,1.1973293999908492,,,,,,,,,,,,None,None,,,,,,,,,,Schere,,,cuedRecallAdj,2,,,,,,,,,,,,,,,,,,,,,,,,0,,,,,,,,,,,,,,,,,,,,,,,,,,,,808.8461252000416,808.8558256999822,808.8558256999822,810.0611865000101,,return,1.1973293999908492,None,810.0614443999948,810.0708730999613,810.0708730999613,810.063605900039,,None,,,,,2,2023-12-21_13h01.41.244,watkins1,2023.2.3,99.76156979795192,74,2023-12-21 13h02.10.344991 +0000,
,,,,,,,,,,,,,,,,,,,,,,,4,0,4,0,810.5629365999484,,,,,,,,,,,,813.7002632999793,814.198975999956,,,,3.1302660999353975,,,,,,,,,,,,None,None,,,,,,,,,,Kerze,,,cuedRecallAdj,2,,,,,,,,,,,,,,,,,,,,,,,,0,,,,,,,,,,,,,,,,,,,,,,,,,,,,810.5531332000392,810.5629365999484,810.5629365999484,813.6973027000204,strahlend,return,3.1302660999353975,None,813.6975609000074,813.7068559000036,813.7068559000036,813.7001597000053,,None,,,,,2,2023-12-21_13h01.41.244,watkins1,2023.2.3,99.76156979795192,74,2023-12-21 13h02.10.344991 +0000,
,,,,,,,,,,,,,,,,,,,,,,,5,0,5,0,814.2089176999871,,,,,,,,,,,,815.5374066999648,816.0265880000079,,,,1.3242090999847278,,,,,,,,,,,,None,None,,,,,,,,,,Blume,,,cuedRecallAdj,2,,,,,,,,,,,,,,,,,,,,,,,,0,,,,,,,,,,,,,,,,,,,,,,,,,,,,814.1992176000495,814.2089176999871,814.2089176999871,815.5350441000191,,return,1.3242090999847278,None,815.5353140999796,815.5445559000364,815.5445559000364,815.5373048000038,,None,,,,,2,2023-12-21_13h01.41.244,watkins1,2023.2.3,99.76156979795192,74,2023-12-21 13h02.10.344991 +0000,
,,,,,,,,,,,,,,,,,,,,,,,6,0,6,0,816.0366210000357,,,,,,,,,,,,817.7563578999834,818.2458455000306,,,,1.7126258999342099,,,,,,,,,,,,None,None,,,,,,,,,,Flasche,,,cuedRecallAdj,2,,,,,,,,,,,,,,,,,,,,,,,,0,,,,,,,,,,,,,,,,,,,,,,,,,,,,816.0268358000321,816.0366210000357,816.0366210000357,817.7543044000631,,return,1.7126258999342099,None,817.7545891000191,817.7638651999878,817.7638651999878,817.756248199963,,None,,,,,2,2023-12-21_13h01.41.244,watkins1,2023.2.3,99.76156979795192,74,2023-12-21 13h02.10.344991 +0000,
,,,,,,,,,,,,,,,,,,,,,,,7,0,7,0,818.2557762999786,,,,,,,,,,,,827.2868097999599,827.7857545999577,,,,9.021390400012024,,,,,,,,,,,,None,None,,,,,,,,,,Hammer,,,cuedRecallAdj,2,,,,,,,,,,,,,,,,,,,,,,,,0,,,,,,,,,,,,,,,,,,,,,,,,,,,,818.246089000022,818.2557762999786,818.2557762999786,827.2840432999656,hart,return,9.021390400012024,None,827.2843035999686,827.2936036000028,827.2936036000028,827.2867088000057,,None,,,,,2,2023-12-21_13h01.41.244,watkins1,2023.2.3,99.76156979795192,74,2023-12-21 13h02.10.344991 +0000,
,,,,,,,,,,,,,,,,,,,,,,,8,0,8,0,827.7956587000517,,,,,,,,,,,,829.5756060000276,830.0653002000181,,,,1.769442499964498,,,,,,,,,,,,None,None,,,,,,,,,,Stift,,,cuedRecallAdj,2,,,,,,,,,,,,,,,,,,,,,,,,0,,,,,,,,,,,,,,,,,,,,,,,,,,,,827.7859954000451,827.7956587000517,827.7956587000517,829.5733176999493,,return,1.769442499964498,None,829.5735835999949,829.5829864999978,829.5829864999978,829.5755024000537,,None,,,,,2,2023-12-21_13h01.41.244,watkins1,2023.2.3,99.76156979795192,74,2023-12-21 13h02.10.344991 +0000,
,,,,,,,,,,,,,,,,,,,,,,,9,0,9,0,830.075337999966,,,,,,,,,,,,832.5288687000284,833.0276239999803,,,,2.4498807000927627,,,,,,,,,,,,None,None,,,,,,,,,,Lampe,,,cuedRecallAdj,2,,,,,,,,,,,,,,,,,,,,,,,,0,,,,,,,,,,,,,,,,,,,,,,,,,,,,830.0655488000484,830.075337999966,830.075337999966,832.5260209999979,hohl,return,2.4498807000927627,None,832.5262839000206,832.5355000999989,832.5355000999989,832.5287628000369,,None,,,,,2,2023-12-21_13h01.41.244,watkins1,2023.2.3,99.76156979795192,74,2023-12-21 13h02.10.344991 +0000,
,,,,,,,,,,,,,,,,,,,,,,,10,0,10,0,833.0376984999748,,,,,,,,,,,,835.1697918999707,835.668790500029,,,,2.1194846999133006,,,,,,,,,,,,None,None,,,,,,,,,,Eimer,,,cuedRecallAdj,2,,,,,,,,,,,,,,,,,,,,,,,,0,,,,,,,,,,,,,,,,,,,,,,,,,,,,833.0278702999931,833.0376984999748,833.0376984999748,835.166814199998,breit,return,2.1194846999133006,None,835.1670827000635,835.1764826000435,835.1764826000435,835.1696898000082,,None,,,,,2,2023-12-21_13h01.41.244,watkins1,2023.2.3,99.76156979795192,74,2023-12-21 13h02.10.344991 +0000,
,,,,,,,,,,,,,,,,,,,,,,,11,0,11,0,835.6786907999776,,,,,,,,,,,,837.0872307999525,837.5766927000368,,,,1.398612300050445,,,,,,,,,,,,None,None,,,,,,,,,,Telefon,,,cuedRecallAdj,2,,,,,,,,,,,,,,,,,,,,,,,,0,,,,,,,,,,,,,,,,,,,,,,,,,,,,835.6690404999536,835.6786907999776,835.6786907999776,837.0849702999694,,return,1.398612300050445,None,837.085237500025,837.0946981000016,837.0946981000016,837.0871296999976,,None,,,,,2,2023-12-21_13h01.41.244,watkins1,2023.2.3,99.76156979795192,74,2023-12-21 13h02.10.344991 +0000,
,,,,,,,,,,,,,,,,,,,,,,,12,0,12,0,837.5866430000169,,,,,,,,,,,,843.183396999957,843.682093200041,,,,5.58661740005482,,,,,,,,,,,,None,None,,,,,,,,,,Tasche,,,cuedRecallAdj,2,,,,,,,,,,,,,,,,,,,,,,,,0,,,,,,,,,,,,,,,,,,,,,,,,,,,,837.5769345000153,837.5866430000169,837.5866430000169,843.1803720999742,glänzend,return,5.58661740005482,None,843.1806509000016,843.1900887000374,843.1900887000374,843.1832951999968,,None,,,,,2,2023-12-21_13h01.41.244,watkins1,2023.2.3,99.76156979795192,74,2023-12-21 13h02.10.344991 +0000,
,,,,,,,,,,,,,,,,,,,,,,,13,0,13,0,843.692096099956,,,,,,,,,,,,844.809446600033,845.2988613999914,,,,1.11317019991111,,,,,,,,,,,,None,None,,,,,,,,,,Würfel,,,cuedRecallAdj,2,,,,,,,,,,,,,,,,,,,,,,,,0,,,,,,,,,,,,,,,,,,,,,,,,,,,,843.6823336000089,843.692096099956,843.692096099956,844.8072055999655,,return,1.11317019991111,None,844.807472400018,844.8167800999945,844.8167800999945,844.8093446999555,,None,,,,,2,2023-12-21_13h01.41.244,watkins1,2023.2.3,99.76156979795192,74,2023-12-21 13h02.10.344991 +0000,
,,,,,,,,,,,,,,,,,,,,,,,14,0,14,0,845.308802900021,,,,,,,,,,,,851.367342100013,851.8661962000187,,,,6.048474699957296,,,,,,,,,,,,None,None,,,,,,,,,,Rucksack,,,cuedRecallAdj,2,,,,,,,,,,,,,,,,,,,,,,,,0,,,,,,,,,,,,,,,,,,,,,,,,,,,,845.2991063999943,845.308802900021,845.308802900021,851.3643419999862,robust,return,6.048474699957296,None,851.3646064000204,851.374118900043,851.374118900043,851.3672396000475,,None,,,,,2,2023-12-21_13h01.41.244,watkins1,2023.2.3,99.76156979795192,74,2023-12-21 13h02.10.344991 +0000,
,,,,,,,,,,,,,,,,,,,,,,,15,0,15,0,851.8761470000027,,,,,,,,,,,,852.9332924999762,853.4225116999587,,,,1.049118799972348,,,,,,,,,,,,None,None,,,,,,,,,,Löffel,,,cuedRecallAdj,2,,,,,,,,,,,,,,,,,,,,,,,,0,,,,,,,,,,,,,,,,,,,,,,,,,,,,851.8664414000232,851.8761470000027,851.8761470000027,852.9310404000571,,return,1.049118799972348,None,852.9313093000092,852.9405893000076,852.9405893000076,852.9331901000114,,None,,,,,2,2023-12-21_13h01.41.244,watkins1,2023.2.3,99.76156979795192,74,2023-12-21 13h02.10.344991 +0000,
,,,,,,,,,,,,,,,,,,,,,,,16,0,16,0,853.4324408000102,,,,,,,,,,,,861.3679965999909,861.857794099953,,,,7.924683999968693,,,,,,,,,,,,None,None,,,,,,,,,,Schlüssel,,,cuedRecallAdj,2,,,,,,,,,,,,,,,,,,,,,,,,0,,,,,,,,,,,,,,,,,,,,,,,,,,,,853.4227557999548,853.4324408000102,853.4324408000102,861.3658192000585,,return,7.924683999968693,None,861.3660887000151,861.375494100037,861.375494100037,861.3678936000215,,None,,,,,2,2023-12-21_13h01.41.244,watkins1,2023.2.3,99.76156979795192,74,2023-12-21 13h02.10.344991 +0000,
,,,,,,,,,,,,,,,,,,,,,,,17,0,17,0,861.8678517000517,,,,,,,,,,,,863.8584763000254,864.3481589000439,,,,1.985268999938853,,,,,,,,,,,,None,None,,,,,,,,,,Socke,,,cuedRecallAdj,2,,,,,,,,,,,,,,,,,,,,,,,,0,,,,,,,,,,,,,,,,,,,,,,,,,,,,861.8580340000335,861.8678517000517,861.8678517000517,863.8565757999895,,return,1.985268999938853,None,863.8568473999621,863.866158699966,863.866158699966,863.8583739000605,,None,,,,,2,2023-12-21_13h01.41.244,watkins1,2023.2.3,99.76156979795192,74,2023-12-21 13h02.10.344991 +0000,
,,,,,,,,,,,,,,,,,,,,,,,18,0,18,0,864.3581870000344,,,,,,,,,,,,865.3748655000236,865.8642991000088,,,,1.0069663999602199,,,,,,,,,,,,None,None,,,,,,,,,,Kiste,,,cuedRecallAdj,2,,,,,,,,,,,,,,,,,,,,,,,,0,,,,,,,,,,,,,,,,,,,,,,,,,,,,864.3484046000522,864.3581870000344,864.3581870000344,865.3728284999961,,return,1.0069663999602199,None,865.373092600028,865.3825553000206,865.3825553000206,865.3747643999523,,None,,,,,2,2023-12-21_13h01.41.244,watkins1,2023.2.3,99.76156979795192,74,2023-12-21 13h02.10.344991 +0000,
,,,,,,,,,,,,,,,,,,,,,,,19,0,19,0,865.8742114000488,,,,,,,,,,,,867.232529800036,867.722327800002,,,,1.354982400080189,,,,,,,,,,,,None,None,,,,,,,,,,Buch,,,cuedRecallAdj,2,,,,,,,,,,,,,,,,,,,,,,,,0,,,,,,,,,,,,,,,,,,,,,,,,,,,,865.8645470000338,865.8742114000488,865.8742114000488,867.2307609999552,,return,1.354982400080189,None,867.2310308000306,867.2403335999697,867.2403335999697,867.2324277999578,,None,,,,,2,2023-12-21_13h01.41.244,watkins1,2023.2.3,99.76156979795192,74,2023-12-21 13h02.10.344991 +0000,
,,,,,,,,,,,,,,,,,,,,,,,20,0,20,0,867.732281500008,,,,,,,,,,,,868.8089892000426,869.2988878999604,,,,1.072936899960041,,,,,,,,,,,,None,None,,,,,,,,,,Brille,,,cuedRecallAdj,2,,,,,,,,,,,,,,,,,,,,,,,,0,,,,,,,,,,,,,,,,,,,,,,,,,,,,867.7225719999988,867.732281500008,867.732281500008,868.8070778000401,,return,1.072936899960041,None,868.8073441999732,868.8165697000222,868.8165697000222,868.808888199972,,None,,,,,2,2023-12-21_13h01.41.244,watkins1,2023.2.3,99.76156979795192,74,2023-12-21 13h02.10.344991 +0000,
,,,,,,,,,,,,,,,,,,,,,,,21,0,21,0,869.308844299987,,,,,,,,,,,,872.14276409999,872.6327177999774,,,,2.8243610999779776,,,,,,,,,,,,None,None,,,,,,,,,,Jacke,,,cuedRecallAdj,2,,,,,,,,,,,,,,,,,,,,,,,,0,,,,,,,,,,,,,,,,,,,,,,,,,,,,869.2991315999534,869.308844299987,869.308844299987,872.1408583000302,,return,2.8243610999779776,None,872.1411260999739,872.1504947999492,872.1504947999492,872.1426607000176,,None,,,,,2,2023-12-21_13h01.41.244,watkins1,2023.2.3,99.76156979795192,74,2023-12-21 13h02.10.344991 +0000,
,,,,,,,,,,,,,,,,,,,,,,,22,0,22,0,872.6426316000288,,,,,,,,,,,,877.5365718000103,878.0354463000549,,,,4.882568500004709,,,,,,,,,,,,None,None,,,,,,,,,,Tasse,,,cuedRecallAdj,2,,,,,,,,,,,,,,,,,,,,,,,,0,,,,,,,,,,,,,,,,,,,,,,,,,,,,872.6329609999666,872.6426316000288,872.6426316000288,877.5336496999953,glatt,return,4.882568500004709,None,877.5339175000554,877.5434186999919,877.5434186999919,877.536467900034,,None,,,,,2,2023-12-21_13h01.41.244,watkins1,2023.2.3,99.76156979795192,74,2023-12-21 13h02.10.344991 +0000,
,,,,,,,,,,,,,,,,,,,,,,,23,0,23,0,878.0454014999559,,,,,,,,,,,,880.5288507000078,881.0277323999908,,,,2.479839799925685,,,,,,,,,,,,None,None,,,,,,,,,,Kette,,,cuedRecallAdj,2,,,,,,,,,,,,,,,,,,,,,,,,0,,,,,,,,,,,,,,,,,,,,,,,,,,,,878.0356882000342,878.0454014999559,878.0454014999559,880.5260124000488,matt,return,2.479839799925685,None,880.5262777999742,880.535679499968,880.535679499968,880.5287488000467,,None,,,,,2,2023-12-21_13h01.41.244,watkins1,2023.2.3,99.76156979795192,74,2023-12-21 13h02.10.344991 +0000,
,,,,,,,,,,,,,,,,,,,,,,,24,0,24,0,881.0377720999531,,,,,,,,,,,,883.9933998000342,884.4921582000097,,,,2.951450999942608,,,,,,,,,,,,None,None,,,,,,,,,,Vase,,,cuedRecallAdj,2,,,,,,,,,,,,,,,,,,,,,,,,0,,,,,,,,,,,,,,,,,,,,,,,,,,,,881.0279816000257,881.0377720999531,881.0377720999531,883.9905811999924,biegsam,return,2.951450999942608,None,883.9908393999794,884.0001344999764,884.0001344999764,883.9932993999682,,None,,,,,2,2023-12-21_13h01.41.244,watkins1,2023.2.3,99.76156979795192,74,2023-12-21 13h02.10.344991 +0000,
,,,,,,,,,,,,,,,,,,,,,,,25,0,25,0,884.5022162999958,,,,,,,,,,,,889.0849863999756,889.5839003999718,,,,4.574982900056057,,,,,,,,,,,,None,None,,,,,,,,,,Ring,,,cuedRecallAdj,2,,,,,,,,,,,,,,,,,,,,,,,,0,,,,,,,,,,,,,,,,,,,,,,,,,,,,884.4923978999723,884.5022162999958,884.5022162999958,889.0822717000265,kalt,return,4.574982900056057,None,889.0825381999603,889.0918387999991,889.0918387999991,889.0848836000077,,None,,,,,2,2023-12-21_13h01.41.244,watkins1,2023.2.3,99.76156979795192,74,2023-12-21 13h02.10.344991 +0000,
,,,,,,,,,,,,,,,,,,,,,,,26,0,26,0,889.5938119000057,,,,,,,,,,,,890.3194372999715,890.8088269999716,,,,0.7154115999583155,,,,,,,,,,,,None,None,,,,,,,,,,Kamera,,,cuedRecallAdj,2,,,,,,,,,,,,,,,,,,,,,,,,0,,,,,,,,,,,,,,,,,,,,,,,,,,,,889.5841469999868,889.5938119000057,889.5938119000057,890.3171823000303,,return,0.7154115999583155,None,890.3174495999701,890.3269515000284,890.3269515000284,890.3193353000097,,None,,,,,2,2023-12-21_13h01.41.244,watkins1,2023.2.3,99.76156979795192,74,2023-12-21 13h02.10.344991 +0000,
,,,,,,,,,,,,,,,,,,,,,,,27,0,27,0,890.8187797999708,,,,,,,,,,,,891.8260245999554,892.3158899999689,,,,1.0024298999924213,,,,,,,,,,,,None,None,,,,,,,,,,Uhr,,,cuedRecallAdj,2,,,,,,,,,,,,,,,,,,,,,,,,0,,,,,,,,,,,,,,,,,,,,,,,,,,,,890.809076000005,890.8187797999708,890.8187797999708,891.8242755000247,,return,1.0024298999924213,None,891.8245389000513,891.8338394999737,891.8338394999737,891.8259226999944,,None,,,,,2,2023-12-21_13h01.41.244,watkins1,2023.2.3,99.76156979795192,74,2023-12-21 13h02.10.344991 +0000,
,,,,,,,,,,,,,,,,,,,,,,,28,0,28,0,892.3258583999705,,,,,,,,,,,,893.412734100013,893.9026267000008,,,,1.0793530000373721,,,,,,,,,,,,None,None,,,,,,,,,,Bürste,,,cuedRecallAdj,2,,,,,,,,,,,,,,,,,,,,,,,,0,,,,,,,,,,,,,,,,,,,,,,,,,,,,892.3161308000563,892.3258583999705,892.3258583999705,893.4108130000532,,return,1.0793530000373721,None,893.4110782999778,893.4203370000469,893.4203370000469,893.4126316000475,,None,,,,,2,2023-12-21_13h01.41.244,watkins1,2023.2.3,99.76156979795192,74,2023-12-21 13h02.10.344991 +0000,
,,,,,,,,,,,,,,,,,,,,,,,29,0,29,0,893.9125473999884,,,,,,,,,,,,895.9342292000074,896.4330591000617,,,,2.0126966999378055,,,,,,,,,,,,None,None,,,,,,,,,,Geige,,,cuedRecallAdj,2,,,,,,,,,,,,,,,,,,,,,,,,0,,,,,,,,,,,,,,,,,,,,,,,,,,,,893.9029041000176,893.9125473999884,893.9125473999884,895.9313983999891,kurz,return,2.0126966999378055,None,895.9316629000241,895.9408782999963,895.9408782999963,895.934125800035,,None,,,,,2,2023-12-21_13h01.41.244,watkins1,2023.2.3,99.76156979795192,74,2023-12-21 13h02.10.344991 +0000,
,,,,,,,,,,,,,,,,,,,,,,,,,,,,,,,,,,,,,,,,,,,,,,,,,,,,,,,,,,,,,,,,,,,,,,,2,,,,,,,,,,,,,,,,,,,,,,,,,,,,,,,,,,,,,,,,,,,,,,,,,,,,,,,,,,,,,,,,,,896.450050399988,q,2705.3554323000135,None,2,2023-12-21_13h01.41.244,watkins1,2023.2.3,99.76156979795192,74,2023-12-21 13h02.10.344991 +0000,
