Equation,CorrectResponse,Correctbutton,trials_7.thisRepN,trials_7.thisTrialN,trials_7.thisN,trials_7.thisIndex,trials.thisRepN,trials.thisTrialN,trials.thisN,trials.thisIndex,trials_3.thisRepN,trials_3.thisTrialN,trials_3.thisN,trials_3.thisIndex,trials_2.thisRepN,trials_2.thisTrialN,trials_2.thisN,trials_2.thisIndex,trials_4.thisRepN,trials_4.thisTrialN,trials_4.thisN,trials_4.thisIndex,trials_5.thisRepN,trials_5.thisTrialN,trials_5.thisN,trials_5.thisIndex,thisRow.t,notes,code_marius.started,code_marius.stopped,welcome.started,welcome.stopped,instruction_study.started,instruction_study.stopped,fixationcross.started,fixationcross.stopped,blanc.started,blanc.stopped,study_control_probe.started,study_control_probe.stopped,responseKey,responseTime,scale_answer_2.keys,study_control_probe_2.started,study_control_probe_2.stopped,scale_answer_3.keys,scale_answer_3.rt,scale_answer_3.duration,blanc_2.started,blanc_2.stopped,test_attr_probe.started,test_attr_probe.stopped,recalled_attr,firstKeyTime,secondWordTime,blanc_3.started,blanc_3.stopped,test_sub_probe.started,test_sub_probe.stopped,recalled_sub,instruction_probe_end.started,instruction_probe_end.stopped,study.started,study.stopped,substantive,adjective,wordpair,task,condition,liste_sub_phase1,liste_adj_phase1,scale_answer.keys,scale_answer.rt,scale_answer.duration,code_defineWordsInit.started,code_defineWordsInit.stopped,liste_sub_phase2,study_control.started,study_control.stopped,scale_answer_4.keys,restudy_same.started,restudy_same.stopped,scale_answer_5.keys,restudy_different.started,restudy_different.stopped,scale_answer_6.keys,scale_answer_6.rt,scale_answer_6.duration,test_attr.started,test_attr.stopped,test_sub.started,test_sub.stopped,scale_answer_4.rt,scale_answer_4.duration,distractortask.started,equation_text.started,distractortask.stopped,mouse_answer.x,mouse_answer.y,mouse_answer.leftButton,mouse_answer.midButton,mouse_answer.rightButton,mouse_answer.time,mouse_answer.clicked_name,feedback_distractortask.started,feedback_distractortask.stopped,free_recall.started,text_enter.started,key_resp.started,free_recall.stopped,key_resp.keys,key_resp.rt,key_resp.duration,free_recalled_sub,mouse_continue.x,mouse_continue.y,mouse_continue.leftButton,mouse_continue.midButton,mouse_continue.rightButton,mouse_continue.time,mouse_continue.clicked_name,cued_recall.started,text_enter_2.started,correct,key_continue.started,cued_recall.stopped,recalled_attr1,key_continue.keys,key_continue.rt,key_continue.duration,cued_recall_2.started,text_enter_3.started,key_continue_2.started,cued_recall_2.stopped,recalled_attr2,key_continue_2.keys,key_continue_2.rt,key_continue_2.duration,key_resp_8.started,key_resp_8.keys,key_resp_8.rt,key_resp_8.duration,condition,date,expName,psychopyVersion,frameRate,participant,expStart,
,,,,,,,,,,,,,,,,,,,,,,,,,,,,,0.11647649999940768,0.11654350004391745,0.11655190004967153,14.968092600000091,,,,,,,,,,,,,,,,,,,,,,,,,,,,,,,,,,,,,1,,,,,,,,,,,,,,,,,,,,,,,,,,,,,,,,,,,,,,,,,,,,,,,,,,,,,,,,,,,,,,,,,,,,,,,,,,1,2024-01-22_11h34.31.902,watkins1,2023.2.3,99.73341261321482,96,2024-01-22 11h35.15.315403 +0000,
,,,,,,,,,,,,,,,,,,,,,,,,,,,,,,,,,14.96814050001558,41.8280448000296,,,,,,,,,,,,,,,,,,,,,,,,,,,,,,,,,,,1,,,,,,,,,,,,,,,,,,,,,,,,,,,,,,,,,,,,,,,,,,,,,,,,,,,,,,,,,,,,,,,,,,,,,,,,,,1,2024-01-22_11h34.31.902,watkins1,2023.2.3,99.73341261321482,96,2024-01-22 11h35.15.315403 +0000,
,,,0,0,0,0,,,,,,,,,,,,,,,,,,,,,42.84155690000625,,,,,,,,41.82806040003197,42.831576200027484,49.33409010001924,49.82616130000679,43.32372820004821,49.33392870001262,2,1.7965697000036016,None,49.82617220003158,55.83630170003744,2,1.7965697000036016,None,55.83659429999534,55.83661840000423,55.836625800002366,55.83670530002564,,None,None,55.836866400029976,55.836886600009166,55.8368935000035,55.83696470002178,,,,,,,,,,1,,,,,,,,,,,,,,,,,,,,,,,,,,,,,,,,,,,,,,,,,,,,,,,,,,,,,,,,,,,,,,,,,,,,,,,,,,1,2024-01-22_11h34.31.902,watkins1,2023.2.3,99.73341261321482,96,2024-01-22 11h35.15.315403 +0000,
,,,,,,,,,,,,,,,,,,,,,,,,,,,,,,,,,,,,,,,,,,,,,,,,,,,,,,,,,,,,,55.837075100047514,58.47293390001869,,,,,,,1,,,,,,,,,,,,,,,,,,,,,,,,,,,,,,,,,,,,,,,,,,,,,,,,,,,,,,,,,,,,,,,,,,,,,,,,,,1,2024-01-22_11h34.31.902,watkins1,2023.2.3,99.73341261321482,96,2024-01-22 11h35.15.315403 +0000,
,,,,,,,0,0,0,0,,,,,,,,,,,,,,,,,59.48662640003022,,,,,,,,58.472950000024866,59.47668080002768,59.47715250001056,59.96864520001691,,,1,2.405442699964624,,,,,,,,,,,,,,,,,,,,,59.96865600004094,65.97143730003154,Kerze,sauber,"['Kerze', 'sauber']",restudy_diff,1,"['Kerze', 'Vase', 'Buch', 'Rucksack', 'Schlüssel', 'Würfel', 'Stift', 'Blume', 'Tasche', 'Uhr', 'Tasse', 'Flasche', 'Lampe', 'Kamera', 'Bürste', 'Jacke', 'Hammer', 'Löffel', 'Geige', 'Trommel', 'Eimer', 'Brille']",['sauber'],1,2.405442699964624,None,,,,,,,,,,,,,,,,,,,,,,,,,,,,,,,,,,,,,,,,,,,,,,,,,,,,,,,,,,,,,,,,,,,,,1,2024-01-22_11h34.31.902,watkins1,2023.2.3,99.73341261321482,96,2024-01-22 11h35.15.315403 +0000,
,,,,,,,1,0,1,0,,,,,,,,,,,,,,,,,65.9809055000078,,,,,,,,,,65.97210569999879,66.46304610004881,,,3,1.9159435000037774,,,,,,,,,,,,,,,,,,,,,66.46305710001616,72.4651492999983,Vase,zart,"['Vase', 'zart']",restudy_diff,1,"['Kerze', 'Vase', 'Buch', 'Rucksack', 'Schlüssel', 'Würfel', 'Stift', 'Blume', 'Tasche', 'Uhr', 'Tasse', 'Flasche', 'Lampe', 'Kamera', 'Bürste', 'Jacke', 'Hammer', 'Löffel', 'Geige', 'Trommel', 'Eimer', 'Brille']","['sauber', 'zart']",3,1.9159435000037774,None,,,,,,,,,,,,,,,,,,,,,,,,,,,,,,,,,,,,,,,,,,,,,,,,,,,,,,,,,,,,,,,,,,,,,1,2024-01-22_11h34.31.902,watkins1,2023.2.3,99.73341261321482,96,2024-01-22 11h35.15.315403 +0000,
,,,,,,,2,0,2,0,,,,,,,,,,,,,,,,,72.47455830004765,,,,,,,,,,72.46562760003144,72.95683880004799,,,1,2.21404099999927,,,,,,,,,,,,,,,,,,,,,72.95685080002295,78.95872170000803,Buch,hohl,"['Buch', 'hohl']",restudy_diff,1,"['Kerze', 'Vase', 'Buch', 'Rucksack', 'Schlüssel', 'Würfel', 'Stift', 'Blume', 'Tasche', 'Uhr', 'Tasse', 'Flasche', 'Lampe', 'Kamera', 'Bürste', 'Jacke', 'Hammer', 'Löffel', 'Geige', 'Trommel', 'Eimer', 'Brille']","['sauber', 'zart', 'hohl']",1,2.21404099999927,None,,,,,,,,,,,,,,,,,,,,,,,,,,,,,,,,,,,,,,,,,,,,,,,,,,,,,,,,,,,,,,,,,,,,,1,2024-01-22_11h34.31.902,watkins1,2023.2.3,99.73341261321482,96,2024-01-22 11h35.15.315403 +0000,
,,,,,,,3,0,3,0,,,,,,,,,,,,,,,,,78.96822199999588,,,,,,,,,,78.95919950003736,79.4502816000022,,,1,1.712017600017134,,,,,,,,,,,,,,,,,,,,,79.45029190002242,85.45379010000033,Rucksack,elegant,"['Rucksack', 'elegant']",control,1,"['Kerze', 'Vase', 'Buch', 'Rucksack', 'Schlüssel', 'Würfel', 'Stift', 'Blume', 'Tasche', 'Uhr', 'Tasse', 'Flasche', 'Lampe', 'Kamera', 'Bürste', 'Jacke', 'Hammer', 'Löffel', 'Geige', 'Trommel', 'Eimer', 'Brille']","['sauber', 'zart', 'hohl', 'elegant']",1,1.712017600017134,None,,,,,,,,,,,,,,,,,,,,,,,,,,,,,,,,,,,,,,,,,,,,,,,,,,,,,,,,,,,,,,,,,,,,,1,2024-01-22_11h34.31.902,watkins1,2023.2.3,99.73341261321482,96,2024-01-22 11h35.15.315403 +0000,
,,,,,,,4,0,4,0,,,,,,,,,,,,,,,,,85.46327180002118,,,,,,,,,,85.45425609999802,85.94523340003798,,,3,2.3776874000323005,,,,,,,,,,,,,,,,,,,,,85.94525720004458,91.95119460002752,Schlüssel,neu,"['Schlüssel', 'neu']",control,1,"['Kerze', 'Vase', 'Buch', 'Rucksack', 'Schlüssel', 'Würfel', 'Stift', 'Blume', 'Tasche', 'Uhr', 'Tasse', 'Flasche', 'Lampe', 'Kamera', 'Bürste', 'Jacke', 'Hammer', 'Löffel', 'Geige', 'Trommel', 'Eimer', 'Brille']","['sauber', 'zart', 'hohl', 'elegant', 'neu']",3,2.3776874000323005,None,,,,,,,,,,,,,,,,,,,,,,,,,,,,,,,,,,,,,,,,,,,,,,,,,,,,,,,,,,,,,,,,,,,,,1,2024-01-22_11h34.31.902,watkins1,2023.2.3,99.73341261321482,96,2024-01-22 11h35.15.315403 +0000,
,,,,,,,5,0,5,0,,,,,,,,,,,,,,,,,91.9607264000224,,,,,,,,,,91.95167370000854,92.44304500002181,,,3,1.9838545999955386,,,,,,,,,,,,,,,,,,,,,92.4430559000466,98.44501460000174,Würfel,klobig,"['Würfel', 'klobig']",restudy_diff,1,"['Kerze', 'Vase', 'Buch', 'Rucksack', 'Schlüssel', 'Würfel', 'Stift', 'Blume', 'Tasche', 'Uhr', 'Tasse', 'Flasche', 'Lampe', 'Kamera', 'Bürste', 'Jacke', 'Hammer', 'Löffel', 'Geige', 'Trommel', 'Eimer', 'Brille']","['sauber', 'zart', 'hohl', 'elegant', 'neu', 'klobig']",3,1.9838545999955386,None,,,,,,,,,,,,,,,,,,,,,,,,,,,,,,,,,,,,,,,,,,,,,,,,,,,,,,,,,,,,,,,,,,,,,1,2024-01-22_11h34.31.902,watkins1,2023.2.3,99.73341261321482,96,2024-01-22 11h35.15.315403 +0000,
,,,,,,,6,0,6,0,,,,,,,,,,,,,,,,,98.45454970002174,,,,,,,,,,98.44551570003387,98.93663150002249,,,2,1.9788707999978215,,,,,,,,,,,,,,,,,,,,,98.93664160004118,104.94299609999871,Stift,groß,"['Stift', 'groß']",restudy_diff,1,"['Kerze', 'Vase', 'Buch', 'Rucksack', 'Schlüssel', 'Würfel', 'Stift', 'Blume', 'Tasche', 'Uhr', 'Tasse', 'Flasche', 'Lampe', 'Kamera', 'Bürste', 'Jacke', 'Hammer', 'Löffel', 'Geige', 'Trommel', 'Eimer', 'Brille']","['sauber', 'zart', 'hohl', 'elegant', 'neu', 'klobig', 'groß']",2,1.9788707999978215,None,,,,,,,,,,,,,,,,,,,,,,,,,,,,,,,,,,,,,,,,,,,,,,,,,,,,,,,,,,,,,,,,,,,,,1,2024-01-22_11h34.31.902,watkins1,2023.2.3,99.73341261321482,96,2024-01-22 11h35.15.315403 +0000,
,,,,,,,7,0,7,0,,,,,,,,,,,,,,,,,104.95245090004755,,,,,,,,,,104.94347610004479,105.434463600046,,,1,2.1288835000013933,,,,,,,,,,,,,,,,,,,,,105.43447460001335,111.4382560000522,Blume,schlicht,"['Blume', 'schlicht']",restudy_diff,1,"['Kerze', 'Vase', 'Buch', 'Rucksack', 'Schlüssel', 'Würfel', 'Stift', 'Blume', 'Tasche', 'Uhr', 'Tasse', 'Flasche', 'Lampe', 'Kamera', 'Bürste', 'Jacke', 'Hammer', 'Löffel', 'Geige', 'Trommel', 'Eimer', 'Brille']","['sauber', 'zart', 'hohl', 'elegant', 'neu', 'klobig', 'groß', 'schlicht']",1,2.1288835000013933,None,,,,,,,,,,,,,,,,,,,,,,,,,,,,,,,,,,,,,,,,,,,,,,,,,,,,,,,,,,,,,,,,,,,,,1,2024-01-22_11h34.31.902,watkins1,2023.2.3,99.73341261321482,96,2024-01-22 11h35.15.315403 +0000,
,,,,,,,8,0,8,0,,,,,,,,,,,,,,,,,111.44772210001247,,,,,,,,,,111.43873430002714,111.92975320003461,,,1,2.0894885000307113,,,,,,,,,,,,,,,,,,,,,111.92976389999967,117.93108520004898,Tasche,flauschig,"['Tasche', 'flauschig']",control,1,"['Kerze', 'Vase', 'Buch', 'Rucksack', 'Schlüssel', 'Würfel', 'Stift', 'Blume', 'Tasche', 'Uhr', 'Tasse', 'Flasche', 'Lampe', 'Kamera', 'Bürste', 'Jacke', 'Hammer', 'Löffel', 'Geige', 'Trommel', 'Eimer', 'Brille']","['sauber', 'zart', 'hohl', 'elegant', 'neu', 'klobig', 'groß', 'schlicht', 'flauschig']",1,2.0894885000307113,None,,,,,,,,,,,,,,,,,,,,,,,,,,,,,,,,,,,,,,,,,,,,,,,,,,,,,,,,,,,,,,,,,,,,,1,2024-01-22_11h34.31.902,watkins1,2023.2.3,99.73341261321482,96,2024-01-22 11h35.15.315403 +0000,
,,,,,,,9,0,9,0,,,,,,,,,,,,,,,,,117.94050419999985,,,,,,,,,,117.93155880004633,118.42314610001631,,,1,1.6916886999970302,,,,,,,,,,,,,,,,,,,,,118.42315690004034,124.43125990004046,Uhr,kaputt,"['Uhr', 'kaputt']",restudy_diff,1,"['Kerze', 'Vase', 'Buch', 'Rucksack', 'Schlüssel', 'Würfel', 'Stift', 'Blume', 'Tasche', 'Uhr', 'Tasse', 'Flasche', 'Lampe', 'Kamera', 'Bürste', 'Jacke', 'Hammer', 'Löffel', 'Geige', 'Trommel', 'Eimer', 'Brille']","['sauber', 'zart', 'hohl', 'elegant', 'neu', 'klobig', 'groß', 'schlicht', 'flauschig', 'kaputt']",1,1.6916886999970302,None,,,,,,,,,,,,,,,,,,,,,,,,,,,,,,,,,,,,,,,,,,,,,,,,,,,,,,,,,,,,,,,,,,,,,1,2024-01-22_11h34.31.902,watkins1,2023.2.3,99.73341261321482,96,2024-01-22 11h35.15.315403 +0000,
,,,,,,,10,0,10,0,,,,,,,,,,,,,,,,,124.4408011000487,,,,,,,,,,124.43172880000202,124.92285400000401,,,2,3.217535300005693,,,,,,,,,,,,,,,,,,,,,124.92286450002575,130.92615740001202,Tasse,kratzig,"['Tasse', 'kratzig']",control,1,"['Kerze', 'Vase', 'Buch', 'Rucksack', 'Schlüssel', 'Würfel', 'Stift', 'Blume', 'Tasche', 'Uhr', 'Tasse', 'Flasche', 'Lampe', 'Kamera', 'Bürste', 'Jacke', 'Hammer', 'Löffel', 'Geige', 'Trommel', 'Eimer', 'Brille']","['sauber', 'zart', 'hohl', 'elegant', 'neu', 'klobig', 'groß', 'schlicht', 'flauschig', 'kaputt', 'kratzig']",2,3.217535300005693,None,,,,,,,,,,,,,,,,,,,,,,,,,,,,,,,,,,,,,,,,,,,,,,,,,,,,,,,,,,,,,,,,,,,,,1,2024-01-22_11h34.31.902,watkins1,2023.2.3,99.73341261321482,96,2024-01-22 11h35.15.315403 +0000,
,,,,,,,11,0,11,0,,,,,,,,,,,,,,,,,130.93566489999648,,,,,,,,,,130.9266203000443,131.41751190001378,,,3,1.6579785000067204,,,,,,,,,,,,,,,,,,,,,131.41752240003552,137.42528690001927,Flasche,kalt,"['Flasche', 'kalt']",restudy_diff,1,"['Kerze', 'Vase', 'Buch', 'Rucksack', 'Schlüssel', 'Würfel', 'Stift', 'Blume', 'Tasche', 'Uhr', 'Tasse', 'Flasche', 'Lampe', 'Kamera', 'Bürste', 'Jacke', 'Hammer', 'Löffel', 'Geige', 'Trommel', 'Eimer', 'Brille']","['sauber', 'zart', 'hohl', 'elegant', 'neu', 'klobig', 'groß', 'schlicht', 'flauschig', 'kaputt', 'kratzig', 'kalt']",3,1.6579785000067204,None,,,,,,,,,,,,,,,,,,,,,,,,,,,,,,,,,,,,,,,,,,,,,,,,,,,,,,,,,,,,,,,,,,,,,1,2024-01-22_11h34.31.902,watkins1,2023.2.3,99.73341261321482,96,2024-01-22 11h35.15.315403 +0000,
,,,,,,,12,0,12,0,,,,,,,,,,,,,,,,,137.43474320002133,,,,,,,,,,137.425747100031,137.91682050004601,,,3,1.3267912999726832,,,,,,,,,,,,,,,,,,,,,137.91683040000498,143.9183219000115,Lampe,rustikal,"['Lampe', 'rustikal']",control,1,"['Kerze', 'Vase', 'Buch', 'Rucksack', 'Schlüssel', 'Würfel', 'Stift', 'Blume', 'Tasche', 'Uhr', 'Tasse', 'Flasche', 'Lampe', 'Kamera', 'Bürste', 'Jacke', 'Hammer', 'Löffel', 'Geige', 'Trommel', 'Eimer', 'Brille']","['sauber', 'zart', 'hohl', 'elegant', 'neu', 'klobig', 'groß', 'schlicht', 'flauschig', 'kaputt', 'kratzig', 'kalt', 'rustikal']",3,1.3267912999726832,None,,,,,,,,,,,,,,,,,,,,,,,,,,,,,,,,,,,,,,,,,,,,,,,,,,,,,,,,,,,,,,,,,,,,,1,2024-01-22_11h34.31.902,watkins1,2023.2.3,99.73341261321482,96,2024-01-22 11h35.15.315403 +0000,
,,,,,,,13,0,13,0,,,,,,,,,,,,,,,,,143.9277900000452,,,,,,,,,,143.91879340005107,144.4098481000401,,,1,1.6743140999460593,,,,,,,,,,,,,,,,,,,,,144.40985860000364,150.41762660001405,Kamera,matt,"['Kamera', 'matt']",restudy_diff,1,"['Kerze', 'Vase', 'Buch', 'Rucksack', 'Schlüssel', 'Würfel', 'Stift', 'Blume', 'Tasche', 'Uhr', 'Tasse', 'Flasche', 'Lampe', 'Kamera', 'Bürste', 'Jacke', 'Hammer', 'Löffel', 'Geige', 'Trommel', 'Eimer', 'Brille']","['sauber', 'zart', 'hohl', 'elegant', 'neu', 'klobig', 'groß', 'schlicht', 'flauschig', 'kaputt', 'kratzig', 'kalt', 'rustikal', 'matt']",1,1.6743140999460593,None,,,,,,,,,,,,,,,,,,,,,,,,,,,,,,,,,,,,,,,,,,,,,,,,,,,,,,,,,,,,,,,,,,,,,1,2024-01-22_11h34.31.902,watkins1,2023.2.3,99.73341261321482,96,2024-01-22 11h35.15.315403 +0000,
,,,,,,,14,0,14,0,,,,,,,,,,,,,,,,,150.42709230002947,,,,,,,,,,150.41809930000454,150.9091234000516,,,1,1.6784398999880068,,,,,,,,,,,,,,,,,,,,,150.90913390001515,156.9120734000462,Bürste,verspielt,"['Bürste', 'verspielt']",control,1,"['Kerze', 'Vase', 'Buch', 'Rucksack', 'Schlüssel', 'Würfel', 'Stift', 'Blume', 'Tasche', 'Uhr', 'Tasse', 'Flasche', 'Lampe', 'Kamera', 'Bürste', 'Jacke', 'Hammer', 'Löffel', 'Geige', 'Trommel', 'Eimer', 'Brille']","['sauber', 'zart', 'hohl', 'elegant', 'neu', 'klobig', 'groß', 'schlicht', 'flauschig', 'kaputt', 'kratzig', 'kalt', 'rustikal', 'matt', 'verspielt']",1,1.6784398999880068,None,,,,,,,,,,,,,,,,,,,,,,,,,,,,,,,,,,,,,,,,,,,,,,,,,,,,,,,,,,,,,,,,,,,,,1,2024-01-22_11h34.31.902,watkins1,2023.2.3,99.73341261321482,96,2024-01-22 11h35.15.315403 +0000,
,,,,,,,15,0,15,0,,,,,,,,,,,,,,,,,156.9215930000064,,,,,,,,,,156.9125513000181,157.40353770001093,,,1,1.6233162000426091,,,,,,,,,,,,,,,,,,,,,157.4035481000319,163.41021930001443,Jacke,winzig,"['Jacke', 'winzig']",restudy_diff,1,"['Kerze', 'Vase', 'Buch', 'Rucksack', 'Schlüssel', 'Würfel', 'Stift', 'Blume', 'Tasche', 'Uhr', 'Tasse', 'Flasche', 'Lampe', 'Kamera', 'Bürste', 'Jacke', 'Hammer', 'Löffel', 'Geige', 'Trommel', 'Eimer', 'Brille']","['sauber', 'zart', 'hohl', 'elegant', 'neu', 'klobig', 'groß', 'schlicht', 'flauschig', 'kaputt', 'kratzig', 'kalt', 'rustikal', 'matt', 'verspielt', 'winzig']",1,1.6233162000426091,None,,,,,,,,,,,,,,,,,,,,,,,,,,,,,,,,,,,,,,,,,,,,,,,,,,,,,,,,,,,,,,,,,,,,,1,2024-01-22_11h34.31.902,watkins1,2023.2.3,99.73341261321482,96,2024-01-22 11h35.15.315403 +0000,
,,,,,,,16,0,16,0,,,,,,,,,,,,,,,,,163.41969740000786,,,,,,,,,,163.4106982999947,163.90164100000402,,,3,3.013742999988608,,,,,,,,,,,,,,,,,,,,,163.9016517000273,169.9028374000336,Hammer,dick,"['Hammer', 'dick']",control,1,"['Kerze', 'Vase', 'Buch', 'Rucksack', 'Schlüssel', 'Würfel', 'Stift', 'Blume', 'Tasche', 'Uhr', 'Tasse', 'Flasche', 'Lampe', 'Kamera', 'Bürste', 'Jacke', 'Hammer', 'Löffel', 'Geige', 'Trommel', 'Eimer', 'Brille']","['sauber', 'zart', 'hohl', 'elegant', 'neu', 'klobig', 'groß', 'schlicht', 'flauschig', 'kaputt', 'kratzig', 'kalt', 'rustikal', 'matt', 'verspielt', 'winzig', 'dick']",3,3.013742999988608,None,,,,,,,,,,,,,,,,,,,,,,,,,,,,,,,,,,,,,,,,,,,,,,,,,,,,,,,,,,,,,,,,,,,,,1,2024-01-22_11h34.31.902,watkins1,2023.2.3,99.73341261321482,96,2024-01-22 11h35.15.315403 +0000,
,,,,,,,17,0,17,0,,,,,,,,,,,,,,,,,169.91236030001892,,,,,,,,,,169.90331380005227,170.3943292000331,,,1,2.129238900030032,,,,,,,,,,,,,,,,,,,,,170.39434050000273,176.39673239999684,Löffel,blass,"['Löffel', 'blass']",restudy_diff,1,"['Kerze', 'Vase', 'Buch', 'Rucksack', 'Schlüssel', 'Würfel', 'Stift', 'Blume', 'Tasche', 'Uhr', 'Tasse', 'Flasche', 'Lampe', 'Kamera', 'Bürste', 'Jacke', 'Hammer', 'Löffel', 'Geige', 'Trommel', 'Eimer', 'Brille']","['sauber', 'zart', 'hohl', 'elegant', 'neu', 'klobig', 'groß', 'schlicht', 'flauschig', 'kaputt', 'kratzig', 'kalt', 'rustikal', 'matt', 'verspielt', 'winzig', 'dick', 'blass']",1,2.129238900030032,None,,,,,,,,,,,,,,,,,,,,,,,,,,,,,,,,,,,,,,,,,,,,,,,,,,,,,,,,,,,,,,,,,,,,,1,2024-01-22_11h34.31.902,watkins1,2023.2.3,99.73341261321482,96,2024-01-22 11h35.15.315403 +0000,
,,,,,,,18,0,18,0,,,,,,,,,,,,,,,,,176.40618290001294,,,,,,,,,,176.39720710000256,176.8882463000482,,,3,4.210637899988797,,,,,,,,,,,,,,,,,,,,,176.8882569000125,182.89426930004265,Geige,glänzend,"['Geige', 'glänzend']",restudy_diff,1,"['Kerze', 'Vase', 'Buch', 'Rucksack', 'Schlüssel', 'Würfel', 'Stift', 'Blume', 'Tasche', 'Uhr', 'Tasse', 'Flasche', 'Lampe', 'Kamera', 'Bürste', 'Jacke', 'Hammer', 'Löffel', 'Geige', 'Trommel', 'Eimer', 'Brille']","['sauber', 'zart', 'hohl', 'elegant', 'neu', 'klobig', 'groß', 'schlicht', 'flauschig', 'kaputt', 'kratzig', 'kalt', 'rustikal', 'matt', 'verspielt', 'winzig', 'dick', 'blass', 'glänzend']",3,4.210637899988797,None,,,,,,,,,,,,,,,,,,,,,,,,,,,,,,,,,,,,,,,,,,,,,,,,,,,,,,,,,,,,,,,,,,,,,1,2024-01-22_11h34.31.902,watkins1,2023.2.3,99.73341261321482,96,2024-01-22 11h35.15.315403 +0000,
,,,,,,,19,0,19,0,,,,,,,,,,,,,,,,,182.90378420002526,,,,,,,,,,182.89473920001183,183.38580200000433,,,1,1.354267799993977,,,,,,,,,,,,,,,,,,,,,183.3858127000276,189.38675010000588,Trommel,sportlich,"['Trommel', 'sportlich']",restudy_diff,1,"['Kerze', 'Vase', 'Buch', 'Rucksack', 'Schlüssel', 'Würfel', 'Stift', 'Blume', 'Tasche', 'Uhr', 'Tasse', 'Flasche', 'Lampe', 'Kamera', 'Bürste', 'Jacke', 'Hammer', 'Löffel', 'Geige', 'Trommel', 'Eimer', 'Brille']","['sauber', 'zart', 'hohl', 'elegant', 'neu', 'klobig', 'groß', 'schlicht', 'flauschig', 'kaputt', 'kratzig', 'kalt', 'rustikal', 'matt', 'verspielt', 'winzig', 'dick', 'blass', 'glänzend', 'sportlich']",1,1.354267799993977,None,,,,,,,,,,,,,,,,,,,,,,,,,,,,,,,,,,,,,,,,,,,,,,,,,,,,,,,,,,,,,,,,,,,,,1,2024-01-22_11h34.31.902,watkins1,2023.2.3,99.73341261321482,96,2024-01-22 11h35.15.315403 +0000,
,,,,,,,20,0,20,0,,,,,,,,,,,,,,,,,189.39617950003594,,,,,,,,,,189.38722680002684,189.87825280003017,,,3,1.9893367000040598,,,,,,,,,,,,,,,,,,,,,189.8782659000135,195.88655690004816,Eimer,nachhaltig,"['Eimer', 'nachhaltig']",restudy_diff,1,"['Kerze', 'Vase', 'Buch', 'Rucksack', 'Schlüssel', 'Würfel', 'Stift', 'Blume', 'Tasche', 'Uhr', 'Tasse', 'Flasche', 'Lampe', 'Kamera', 'Bürste', 'Jacke', 'Hammer', 'Löffel', 'Geige', 'Trommel', 'Eimer', 'Brille']","['sauber', 'zart', 'hohl', 'elegant', 'neu', 'klobig', 'groß', 'schlicht', 'flauschig', 'kaputt', 'kratzig', 'kalt', 'rustikal', 'matt', 'verspielt', 'winzig', 'dick', 'blass', 'glänzend', 'sportlich', 'nachhaltig']",3,1.9893367000040598,None,,,,,,,,,,,,,,,,,,,,,,,,,,,,,,,,,,,,,,,,,,,,,,,,,,,,,,,,,,,,,,,,,,,,,1,2024-01-22_11h34.31.902,watkins1,2023.2.3,99.73341261321482,96,2024-01-22 11h35.15.315403 +0000,
,,,,,,,21,0,21,0,,,,,,,,,,,,,,,,,195.8960378000047,,,,,,,,,,195.88703740003984,196.37812480004504,,,2,1.5702254999778233,,,,,,,,,,,,,,,,,,,,,196.37813560001086,202.38776190002682,Brille,krumm,"['Brille', 'krumm']",restudy_diff,1,"['Kerze', 'Vase', 'Buch', 'Rucksack', 'Schlüssel', 'Würfel', 'Stift', 'Blume', 'Tasche', 'Uhr', 'Tasse', 'Flasche', 'Lampe', 'Kamera', 'Bürste', 'Jacke', 'Hammer', 'Löffel', 'Geige', 'Trommel', 'Eimer', 'Brille']","['sauber', 'zart', 'hohl', 'elegant', 'neu', 'klobig', 'groß', 'schlicht', 'flauschig', 'kaputt', 'kratzig', 'kalt', 'rustikal', 'matt', 'verspielt', 'winzig', 'dick', 'blass', 'glänzend', 'sportlich', 'nachhaltig', 'krumm']",2,1.5702254999778233,None,,,,,,,,,,,,,,,,,,,,,,,,,,,,,,,,,,,,,,,,,,,,,,,,,,,,,,,,,,,,,,,,,,,,,1,2024-01-22_11h34.31.902,watkins1,2023.2.3,99.73341261321482,96,2024-01-22 11h35.15.315403 +0000,
,,,,,,,,,,,0,0,0,0,,,,,,,,,,,,,202.3972091000178,,,,,,,,,,202.38857579999603,202.8790775000234,,,3,4.358410499989986,,,,,,,,,,,,None,None,,,,,,,,,,Blume,strahlend,"['Blume', 'strahlend']",restudy_diff,1,,,,,,202.38850280002225,202.38855070003774,"['Blume', 'Stift', 'Würfel', 'Kette', 'Brille', 'Kamera', 'Kiste', 'Ring', 'Vase', 'Buch', 'Eimer', 'Hut', 'Flasche', 'Socke', 'Uhr', 'Trommel', 'Löffel', 'Geige', 'Schere', 'Jacke', 'Kerze', 'Fahrrad', 'Telefon']",202.8790884000482,202.88180200004717,None,202.88198629999533,202.88461290003033,None,202.88477740000235,208.89432260004105,3,4.358410499989986,None,208.894715500006,208.8962919000187,208.89630419999594,208.89756150002358,,,,,,,,,,,,,,,,,,,,,,,,,,,,,,,,,,,,,,,,,,,,,,,,,,,1,2024-01-22_11h34.31.902,watkins1,2023.2.3,99.73341261321482,96,2024-01-22 11h35.15.315403 +0000,
,,,,,,,,,,,1,0,1,0,,,,,,,,,,,,,208.90380130003905,,,,,,,,,,208.8978352000122,209.39592390001053,,,1,2.0430388000095263,,,,,,,,,,,,None,None,,,,,,,,,,Stift,gestreift,"['Stift', 'gestreift']",restudy_diff,1,,,,,,208.89776710001752,208.8978078000364,"['Blume', 'Stift', 'Würfel', 'Kette', 'Brille', 'Kamera', 'Kiste', 'Ring', 'Vase', 'Buch', 'Eimer', 'Hut', 'Flasche', 'Socke', 'Uhr', 'Trommel', 'Löffel', 'Geige', 'Schere', 'Jacke', 'Kerze', 'Fahrrad', 'Telefon']",209.39593480003532,209.39871060004225,None,209.39882669999497,209.4014426000067,None,209.40154700004496,215.40609930001665,1,2.0430388000095263,None,215.40637400001287,215.4076738000149,215.40768560004653,215.40895100001944,,,,,,,,,,,,,,,,,,,,,,,,,,,,,,,,,,,,,,,,,,,,,,,,,,,1,2024-01-22_11h34.31.902,watkins1,2023.2.3,99.73341261321482,96,2024-01-22 11h35.15.315403 +0000,
,,,,,,,,,,,2,0,2,0,,,,,,,,,,,,,215.4155771000078,,,,,,,,,,215.40921700000763,215.90770570002496,,,1,2.523279300017748,,,,,,,,,,,,None,None,,,,,,,,,,Würfel,schwer,"['Würfel', 'schwer']",restudy_diff,1,,,,,,215.40915230003884,215.40919030003715,"['Blume', 'Stift', 'Würfel', 'Kette', 'Brille', 'Kamera', 'Kiste', 'Ring', 'Vase', 'Buch', 'Eimer', 'Hut', 'Flasche', 'Socke', 'Uhr', 'Trommel', 'Löffel', 'Geige', 'Schere', 'Jacke', 'Kerze', 'Fahrrad', 'Telefon']",215.9077167000505,215.91052400000626,None,215.9106403000187,215.91329170000972,None,215.91339350002818,221.91988840000704,1,2.523279300017748,None,221.9201589000295,221.92146140005207,221.9214735000278,221.92265930003487,,,,,,,,,,,,,,,,,,,,,,,,,,,,,,,,,,,,,,,,,,,,,,,,,,,1,2024-01-22_11h34.31.902,watkins1,2023.2.3,99.73341261321482,96,2024-01-22 11h35.15.315403 +0000,
,,,,,,,,,,,3,0,3,0,,,,,,,,,,,,,221.92940100003034,,,,,,,,,,221.92292600002838,222.4216018000152,,,[],[],,,,,,,,,,,,None,None,,,,,,,,,,Kette,lustig,"['Kette', 'lustig']",control,1,,,,,,221.9228613000014,221.92289909999818,"['Blume', 'Stift', 'Würfel', 'Kette', 'Brille', 'Kamera', 'Kiste', 'Ring', 'Vase', 'Buch', 'Eimer', 'Hut', 'Flasche', 'Socke', 'Uhr', 'Trommel', 'Löffel', 'Geige', 'Schere', 'Jacke', 'Kerze', 'Fahrrad', 'Telefon']",222.42161270004,228.42218850000063,1,228.42254300002242,228.4252462000004,None,228.42535090004094,228.42789230000926,None,,,228.42799730005208,228.4292927000206,228.42930430005072,228.4304906000034,3.158666000002995,None,,,,,,,,,,,,,,,,,,,,,,,,,,,,,,,,,,,,,,,,,,,,,,,,,1,2024-01-22_11h34.31.902,watkins1,2023.2.3,99.73341261321482,96,2024-01-22 11h35.15.315403 +0000,
,,,,,,,,,,,4,0,4,0,,,,,,,,,,,,,228.43407440005103,,,,,,,,,,228.43076529999962,228.92729750002036,,,3,1.5859401000197977,,,,,,,,,,,,None,None,,,,,,,,,,Brille,schmutzig,"['Brille', 'schmutzig']",restudy_diff,1,,,,,,228.43070100003388,228.4307400000398,"['Blume', 'Stift', 'Würfel', 'Kette', 'Brille', 'Kamera', 'Kiste', 'Ring', 'Vase', 'Buch', 'Eimer', 'Hut', 'Flasche', 'Socke', 'Uhr', 'Trommel', 'Löffel', 'Geige', 'Schere', 'Jacke', 'Kerze', 'Fahrrad', 'Telefon']",228.92730900004972,228.92892640002538,None,228.92904360004468,228.93052670004545,None,228.93062840000493,234.93429970002035,3,1.5859401000197977,None,234.93456750002224,234.93586480000522,234.93587640003534,234.93713010003557,,,,,,,,,,,,,,,,,,,,,,,,,,,,,,,,,,,,,,,,,,,,,,,,,,,1,2024-01-22_11h34.31.902,watkins1,2023.2.3,99.73341261321482,96,2024-01-22 11h35.15.315403 +0000,
,,,,,,,,,,,5,0,5,0,,,,,,,,,,,,,234.9436722000246,,,,,,,,,,234.9373986000428,235.43583240004955,,,3,1.506977699988056,,,,,,,,,,,,None,None,,,,,,,,,,Kamera,praktisch,"['Kamera', 'praktisch']",restudy_diff,1,,,,,,234.93733370001428,234.93737100000726,"['Blume', 'Stift', 'Würfel', 'Kette', 'Brille', 'Kamera', 'Kiste', 'Ring', 'Vase', 'Buch', 'Eimer', 'Hut', 'Flasche', 'Socke', 'Uhr', 'Trommel', 'Löffel', 'Geige', 'Schere', 'Jacke', 'Kerze', 'Fahrrad', 'Telefon']",235.43584350001765,235.4386552000069,None,235.43877210002393,235.44142690004082,None,235.4415299000102,241.44285500003025,3,1.506977699988056,None,241.44314170000143,241.44448810000904,241.44450020004297,241.4457706999965,,,,,,,,,,,,,,,,,,,,,,,,,,,,,,,,,,,,,,,,,,,,,,,,,,,1,2024-01-22_11h34.31.902,watkins1,2023.2.3,99.73341261321482,96,2024-01-22 11h35.15.315403 +0000,
,,,,,,,,,,,6,0,6,0,,,,,,,,,,,,,241.45225940004457,,,,,,,,,,241.44604190002428,241.9446499000187,,,[],[],,,,,,,,,,,,None,None,,,,,,,,,,Kiste,dunkel,"['Kiste', 'dunkel']",control,1,,,,,,241.44597800000338,241.44601590000093,"['Blume', 'Stift', 'Würfel', 'Kette', 'Brille', 'Kamera', 'Kiste', 'Ring', 'Vase', 'Buch', 'Eimer', 'Hut', 'Flasche', 'Socke', 'Uhr', 'Trommel', 'Löffel', 'Geige', 'Schere', 'Jacke', 'Kerze', 'Fahrrad', 'Telefon']",241.94466040004045,247.95421440002974,3,247.95448740001302,247.95719750004355,None,247.9573019000236,247.95986340002855,None,,,247.95996629999718,247.96113070001593,247.96114260004833,247.96232370001962,1.4517200000118464,None,,,,,,,,,,,,,,,,,,,,,,,,,,,,,,,,,,,,,,,,,,,,,,,,,1,2024-01-22_11h34.31.902,watkins1,2023.2.3,99.73341261321482,96,2024-01-22 11h35.15.315403 +0000,
,,,,,,,,,,,7,0,7,0,,,,,,,,,,,,,247.96590490004746,,,,,,,,,,247.96259010001086,248.45907710003667,,,[],[],,,,,,,,,,,,None,None,,,,,,,,,,Ring,gut,"['Ring', 'gut']",control,1,,,,,,247.96252689999528,247.96256630000426,"['Blume', 'Stift', 'Würfel', 'Kette', 'Brille', 'Kamera', 'Kiste', 'Ring', 'Vase', 'Buch', 'Eimer', 'Hut', 'Flasche', 'Socke', 'Uhr', 'Trommel', 'Löffel', 'Geige', 'Schere', 'Jacke', 'Kerze', 'Fahrrad', 'Telefon']",248.45908820000477,254.4629796000081,3,254.46325329999672,254.46560610004235,None,254.4657084000064,254.4679278000258,None,,,254.46802850003587,254.46906309999758,254.4690747000277,254.4700894000125,1.2016526000224985,None,,,,,,,,,,,,,,,,,,,,,,,,,,,,,,,,,,,,,,,,,,,,,,,,,1,2024-01-22_11h34.31.902,watkins1,2023.2.3,99.73341261321482,96,2024-01-22 11h35.15.315403 +0000,
,,,,,,,,,,,8,0,8,0,,,,,,,,,,,,,254.47373680002056,,,,,,,,,,254.4703562000068,254.96586200001184,,,1,1.347364799992647,,,,,,,,,,,,None,None,,,,,,,,,,Vase,biegsam,"['Vase', 'biegsam']",restudy_diff,1,,,,,,254.47029420000035,254.47033219999867,"['Blume', 'Stift', 'Würfel', 'Kette', 'Brille', 'Kamera', 'Kiste', 'Ring', 'Vase', 'Buch', 'Eimer', 'Hut', 'Flasche', 'Socke', 'Uhr', 'Trommel', 'Löffel', 'Geige', 'Schere', 'Jacke', 'Kerze', 'Fahrrad', 'Telefon']",254.96587360004196,254.9674168000347,None,254.96753480000189,254.9688659000094,None,254.96897159999935,260.97422060003737,1,1.347364799992647,None,260.97449849999975,260.97570290003205,260.97571510000853,260.9769374000025,,,,,,,,,,,,,,,,,,,,,,,,,,,,,,,,,,,,,,,,,,,,,,,,,,,1,2024-01-22_11h34.31.902,watkins1,2023.2.3,99.73341261321482,96,2024-01-22 11h35.15.315403 +0000,
,,,,,,,,,,,9,0,9,0,,,,,,,,,,,,,260.9836249000509,,,,,,,,,,260.9772055000067,261.4757737000473,,,3,1.987450800021179,,,,,,,,,,,,None,None,,,,,,,,,,Buch,flach,"['Buch', 'flach']",restudy_diff,1,,,,,,260.97714140004246,260.97717940004077,"['Blume', 'Stift', 'Würfel', 'Kette', 'Brille', 'Kamera', 'Kiste', 'Ring', 'Vase', 'Buch', 'Eimer', 'Hut', 'Flasche', 'Socke', 'Uhr', 'Trommel', 'Löffel', 'Geige', 'Schere', 'Jacke', 'Kerze', 'Fahrrad', 'Telefon']",261.4757843000116,261.4783718000399,None,261.478491100017,261.4809402000392,None,261.48104380001314,267.485905700014,3,1.987450800021179,None,267.4861745000235,267.4873043000116,267.487316200044,267.48845220002113,,,,,,,,,,,,,,,,,,,,,,,,,,,,,,,,,,,,,,,,,,,,,,,,,,,1,2024-01-22_11h34.31.902,watkins1,2023.2.3,99.73341261321482,96,2024-01-22 11h35.15.315403 +0000,
,,,,,,,,,,,10,0,10,0,,,,,,,,,,,,,267.49536430003354,,,,,,,,,,267.4887102000066,267.9875166999991,,,1,1.9236838000360876,,,,,,,,,,,,None,None,,,,,,,,,,Eimer,lang,"['Eimer', 'lang']",restudy_diff,1,,,,,,267.488648700004,267.48868550005136,"['Blume', 'Stift', 'Würfel', 'Kette', 'Brille', 'Kamera', 'Kiste', 'Ring', 'Vase', 'Buch', 'Eimer', 'Hut', 'Flasche', 'Socke', 'Uhr', 'Trommel', 'Löffel', 'Geige', 'Schere', 'Jacke', 'Kerze', 'Fahrrad', 'Telefon']",267.98752750002313,267.990598400007,None,267.9907138000126,267.9931774000288,None,267.9932786000427,274.00042390002636,1,1.9236838000360876,None,274.000693900045,274.0019700000412,274.00198200001614,274.00302620005095,,,,,,,,,,,,,,,,,,,,,,,,,,,,,,,,,,,,,,,,,,,,,,,,,,,1,2024-01-22_11h34.31.902,watkins1,2023.2.3,99.73341261321482,96,2024-01-22 11h35.15.315403 +0000,
,,,,,,,,,,,11,0,11,0,,,,,,,,,,,,,274.0099569000304,,,,,,,,,,274.0032913000323,274.5020065000281,,,[],[],,,,,,,,,,,,None,None,,,,,,,,,,Hut,breit,"['Hut', 'breit']",control,1,,,,,,274.003228400019,274.003265700012,"['Blume', 'Stift', 'Würfel', 'Kette', 'Brille', 'Kamera', 'Kiste', 'Ring', 'Vase', 'Buch', 'Eimer', 'Hut', 'Flasche', 'Socke', 'Uhr', 'Trommel', 'Löffel', 'Geige', 'Schere', 'Jacke', 'Kerze', 'Fahrrad', 'Telefon']",274.50201720005134,280.5036967000342,1,280.5039622000186,280.50642869999865,None,280.5065334000392,280.5089480000315,None,,,280.509047700034,280.5100456000073,280.51005680003436,280.5111796000274,1.4388704000157304,None,,,,,,,,,,,,,,,,,,,,,,,,,,,,,,,,,,,,,,,,,,,,,,,,,1,2024-01-22_11h34.31.902,watkins1,2023.2.3,99.73341261321482,96,2024-01-22 11h35.15.315403 +0000,
,,,,,,,,,,,12,0,12,0,,,,,,,,,,,,,280.5148362000473,,,,,,,,,,280.5114386000205,281.00751360005233,,,3,5.129723499994725,,,,,,,,,,,,None,None,,,,,,,,,,Flasche,durchsichtig,"['Flasche', 'durchsichtig']",restudy_diff,1,,,,,,280.5113780000247,280.51141510001617,"['Blume', 'Stift', 'Würfel', 'Kette', 'Brille', 'Kamera', 'Kiste', 'Ring', 'Vase', 'Buch', 'Eimer', 'Hut', 'Flasche', 'Socke', 'Uhr', 'Trommel', 'Löffel', 'Geige', 'Schere', 'Jacke', 'Kerze', 'Fahrrad', 'Telefon']",281.0075248000212,281.00912830000743,None,281.0092485000496,281.01073390000965,None,281.01083400001517,287.0155991000356,3,5.129723499994725,None,287.01587090000976,287.01727890002076,287.01729030004935,287.0185797000304,,,,,,,,,,,,,,,,,,,,,,,,,,,,,,,,,,,,,,,,,,,,,,,,,,,1,2024-01-22_11h34.31.902,watkins1,2023.2.3,99.73341261321482,96,2024-01-22 11h35.15.315403 +0000,
,,,,,,,,,,,13,0,13,0,,,,,,,,,,,,,287.02515510004014,,,,,,,,,,287.0188454000163,287.5171189000248,,,[],[],,,,,,,,,,,,None,None,,,,,,,,,,Socke,niedlich,"['Socke', 'niedlich']",control,1,,,,,,287.01878240000224,287.01881989999674,"['Blume', 'Stift', 'Würfel', 'Kette', 'Brille', 'Kamera', 'Kiste', 'Ring', 'Vase', 'Buch', 'Eimer', 'Hut', 'Flasche', 'Socke', 'Uhr', 'Trommel', 'Löffel', 'Geige', 'Schere', 'Jacke', 'Kerze', 'Fahrrad', 'Telefon']",287.51712990005035,293.5276736000087,2,293.52795350004453,293.5306891000364,None,293.53079270001035,293.5333512000507,None,,,293.5334539000178,293.53473410004517,293.53474600001937,293.53597010002704,2.3194904000265524,None,,,,,,,,,,,,,,,,,,,,,,,,,,,,,,,,,,,,,,,,,,,,,,,,,1,2024-01-22_11h34.31.902,watkins1,2023.2.3,99.73341261321482,96,2024-01-22 11h35.15.315403 +0000,
,,,,,,,,,,,14,0,14,0,,,,,,,,,,,,,293.5395447000046,,,,,,,,,,293.536236200016,294.0327491000062,,,2,1.4651017999858595,,,,,,,,,,,,None,None,,,,,,,,,,Uhr,robust,"['Uhr', 'robust']",restudy_diff,1,,,,,,293.5361743000103,293.5362126000109,"['Blume', 'Stift', 'Würfel', 'Kette', 'Brille', 'Kamera', 'Kiste', 'Ring', 'Vase', 'Buch', 'Eimer', 'Hut', 'Flasche', 'Socke', 'Uhr', 'Trommel', 'Löffel', 'Geige', 'Schere', 'Jacke', 'Kerze', 'Fahrrad', 'Telefon']",294.03276010003174,294.0342033000197,None,294.03431910002837,294.03562130004866,None,294.0357234000112,300.0402718000114,2,1.4651017999858595,None,300.04056819999823,300.04171459999634,300.041726400028,300.042918000021,,,,,,,,,,,,,,,,,,,,,,,,,,,,,,,,,,,,,,,,,,,,,,,,,,,1,2024-01-22_11h34.31.902,watkins1,2023.2.3,99.73341261321482,96,2024-01-22 11h35.15.315403 +0000,
,,,,,,,,,,,15,0,15,0,,,,,,,,,,,,,300.0497802000027,,,,,,,,,,300.0431858000229,300.54185320000397,,,2,1.6735963000101037,,,,,,,,,,,,None,None,,,,,,,,,,Trommel,bunt,"['Trommel', 'bunt']",restudy_diff,1,,,,,,300.04312050004955,300.0431577000418,"['Blume', 'Stift', 'Würfel', 'Kette', 'Brille', 'Kamera', 'Kiste', 'Ring', 'Vase', 'Buch', 'Eimer', 'Hut', 'Flasche', 'Socke', 'Uhr', 'Trommel', 'Löffel', 'Geige', 'Schere', 'Jacke', 'Kerze', 'Fahrrad', 'Telefon']",300.541864000028,300.5445781000308,None,300.54469410004094,300.5472556000459,None,300.54735840001376,306.55121649999637,2,1.6735963000101037,None,306.551488600031,306.55281370005105,306.552825700026,306.5538629000075,,,,,,,,,,,,,,,,,,,,,,,,,,,,,,,,,,,,,,,,,,,,,,,,,,,1,2024-01-22_11h34.31.902,watkins1,2023.2.3,99.73341261321482,96,2024-01-22 11h35.15.315403 +0000,
,,,,,,,,,,,16,0,16,0,,,,,,,,,,,,,306.5606558000436,,,,,,,,,,306.5541312000132,307.05269280000357,,,1,2.1706876999814995,,,,,,,,,,,,None,None,,,,,,,,,,Löffel,hübsch,"['Löffel', 'hübsch']",restudy_diff,1,,,,,,306.5540668000467,306.554104800045,"['Blume', 'Stift', 'Würfel', 'Kette', 'Brille', 'Kamera', 'Kiste', 'Ring', 'Vase', 'Buch', 'Eimer', 'Hut', 'Flasche', 'Socke', 'Uhr', 'Trommel', 'Löffel', 'Geige', 'Schere', 'Jacke', 'Kerze', 'Fahrrad', 'Telefon']",307.05270400003064,307.0553757000016,None,307.0554926000186,307.05789580004057,None,307.0579990000115,313.06395080004586,1,2.1706876999814995,None,313.06422590004513,313.0655339000514,313.0655460000271,313.06671970000025,,,,,,,,,,,,,,,,,,,,,,,,,,,,,,,,,,,,,,,,,,,,,,,,,,,1,2024-01-22_11h34.31.902,watkins1,2023.2.3,99.73341261321482,96,2024-01-22 11h35.15.315403 +0000,
,,,,,,,,,,,17,0,17,0,,,,,,,,,,,,,313.07342480000807,,,,,,,,,,313.0669835000299,313.56544010003563,,,1,1.4658172999625094,,,,,,,,,,,,None,None,,,,,,,,,,Geige,hässlich,"['Geige', 'hässlich']",restudy_diff,1,,,,,,313.0669203000143,313.0669581000111,"['Blume', 'Stift', 'Würfel', 'Kette', 'Brille', 'Kamera', 'Kiste', 'Ring', 'Vase', 'Buch', 'Eimer', 'Hut', 'Flasche', 'Socke', 'Uhr', 'Trommel', 'Löffel', 'Geige', 'Schere', 'Jacke', 'Kerze', 'Fahrrad', 'Telefon']",313.565451100003,313.56824069999857,None,313.5683581000194,313.5708568000118,None,313.5709581000265,319.5779882000061,1,1.4658172999625094,None,319.5782644000137,319.57955540000694,319.57956750004087,319.58078170003137,,,,,,,,,,,,,,,,,,,,,,,,,,,,,,,,,,,,,,,,,,,,,,,,,,,1,2024-01-22_11h34.31.902,watkins1,2023.2.3,99.73341261321482,96,2024-01-22 11h35.15.315403 +0000,
,,,,,,,,,,,18,0,18,0,,,,,,,,,,,,,319.58742510003503,,,,,,,,,,319.58104930003174,320.07977870001923,,,[],[],,,,,,,,,,,,None,None,,,,,,,,,,Schere,gepunktet,"['Schere', 'gepunktet']",control,1,,,,,,319.5809857000131,319.5810235000099,"['Blume', 'Stift', 'Würfel', 'Kette', 'Brille', 'Kamera', 'Kiste', 'Ring', 'Vase', 'Buch', 'Eimer', 'Hut', 'Flasche', 'Socke', 'Uhr', 'Trommel', 'Löffel', 'Geige', 'Schere', 'Jacke', 'Kerze', 'Fahrrad', 'Telefon']",320.07979390001856,326.09017090004636,1,326.0904497000156,326.0932310000062,None,326.09333520004293,326.0962262999965,None,,,326.09632960002637,326.0975137000205,326.0975255999947,326.0987753000227,2.020913299988024,None,,,,,,,,,,,,,,,,,,,,,,,,,,,,,,,,,,,,,,,,,,,,,,,,,1,2024-01-22_11h34.31.902,watkins1,2023.2.3,99.73341261321482,96,2024-01-22 11h35.15.315403 +0000,
,,,,,,,,,,,19,0,19,0,,,,,,,,,,,,,326.10236340004485,,,,,,,,,,326.09904370002914,326.59595680003986,,,3,3.1414474999764934,,,,,,,,,,,,None,None,,,,,,,,,,Jacke,kurz,"['Jacke', 'kurz']",restudy_diff,1,,,,,,326.09898160002194,326.0990200000233,"['Blume', 'Stift', 'Würfel', 'Kette', 'Brille', 'Kamera', 'Kiste', 'Ring', 'Vase', 'Buch', 'Eimer', 'Hut', 'Flasche', 'Socke', 'Uhr', 'Trommel', 'Löffel', 'Geige', 'Schere', 'Jacke', 'Kerze', 'Fahrrad', 'Telefon']",326.59596840001177,326.59772680001333,None,326.5978443000349,326.5992741000373,None,326.59937589999754,332.6060230000294,3,3.1414474999764934,None,332.60629190003965,332.6075647000107,332.60757620004006,332.6086542000412,,,,,,,,,,,,,,,,,,,,,,,,,,,,,,,,,,,,,,,,,,,,,,,,,,,1,2024-01-22_11h34.31.902,watkins1,2023.2.3,99.73341261321482,96,2024-01-22 11h35.15.315403 +0000,
,,,,,,,,,,,20,0,20,0,,,,,,,,,,,,,332.61544250004226,,,,,,,,,,332.6089194000233,333.10787609999534,,,3,2.203485499951057,,,,,,,,,,,,None,None,,,,,,,,,,Kerze,teuer,"['Kerze', 'teuer']",restudy_diff,1,,,,,,332.60885560000315,332.60889240005054,"['Blume', 'Stift', 'Würfel', 'Kette', 'Brille', 'Kamera', 'Kiste', 'Ring', 'Vase', 'Buch', 'Eimer', 'Hut', 'Flasche', 'Socke', 'Uhr', 'Trommel', 'Löffel', 'Geige', 'Schere', 'Jacke', 'Kerze', 'Fahrrad', 'Telefon']",333.10788690001937,333.11042840004666,None,333.11054150003474,333.113082099997,None,333.11318310000934,339.12357890000567,3,2.203485499951057,None,339.1238621000084,339.1251431000419,339.12515490001533,339.12630520004313,,,,,,,,,,,,,,,,,,,,,,,,,,,,,,,,,,,,,,,,,,,,,,,,,,,1,2024-01-22_11h34.31.902,watkins1,2023.2.3,99.73341261321482,96,2024-01-22 11h35.15.315403 +0000,
,,,,,,,,,,,21,0,21,0,,,,,,,,,,,,,339.13307650003117,,,,,,,,,,339.1265772000188,339.6251598999952,,,[],[],,,,,,,,,,,,None,None,,,,,,,,,,Fahrrad,glatt,"['Fahrrad', 'glatt']",control,1,,,,,,339.1265136000002,339.1265510999947,"['Blume', 'Stift', 'Würfel', 'Kette', 'Brille', 'Kamera', 'Kiste', 'Ring', 'Vase', 'Buch', 'Eimer', 'Hut', 'Flasche', 'Socke', 'Uhr', 'Trommel', 'Löffel', 'Geige', 'Schere', 'Jacke', 'Kerze', 'Fahrrad', 'Telefon']",339.62517140002456,345.62948800000595,1,345.6297539000516,345.63247450004565,None,345.6325776000158,345.63503350003157,None,,,345.6351367000025,345.6363011000212,345.63631240004906,345.63746190001257,1.2914150000433438,None,,,,,,,,,,,,,,,,,,,,,,,,,,,,,,,,,,,,,,,,,,,,,,,,,1,2024-01-22_11h34.31.902,watkins1,2023.2.3,99.73341261321482,96,2024-01-22 11h35.15.315403 +0000,
,,,,,,,,,,,22,0,22,0,,,,,,,,,,,,,345.6410085000098,,,,,,,,,,345.6377190000494,346.1341514000087,,,[],[],,,,,,,,,,,,None,None,,,,,,,,,,Telefon,nass,"['Telefon', 'nass']",control,1,,,,,,345.6376580000506,345.6376954000443,"['Blume', 'Stift', 'Würfel', 'Kette', 'Brille', 'Kamera', 'Kiste', 'Ring', 'Vase', 'Buch', 'Eimer', 'Hut', 'Flasche', 'Socke', 'Uhr', 'Trommel', 'Löffel', 'Geige', 'Schere', 'Jacke', 'Kerze', 'Fahrrad', 'Telefon']",346.134162500035,352.1390012000338,1,352.13927870005136,352.1419463000493,None,352.1420501000248,352.1444829000393,None,,,352.14458439999726,352.1458075999981,352.14581960003125,352.1468658000231,1.0303740999661386,None,,,,,,,,,,,,,,,,,,,,,,,,,,,,,,,,,,,,,,,,,,,,,,,,,1,2024-01-22_11h34.31.902,watkins1,2023.2.3,99.73341261321482,96,2024-01-22 11h35.15.315403 +0000,
,,,,,,,,,,,,,,,,,,,,,,,,,,,,,,,,,,,,,,,,,,,,,,,,,,,,,,,,,,,,,,,,,,,,,1,,,,,,,,,,,,,,,,,,,,,,,,,,,,,,,,,,,,,,,,,,,,,,,,,,,,,,,,,,,,,,,,,,,,,,,,,,1,2024-01-22_11h34.31.902,watkins1,2023.2.3,99.73341261321482,96,2024-01-22 11h35.15.315403 +0000,
(9 x 5) - 9 = 36 ,Correct,button_correct,,,,,,,,,,,,,0,0,0,4,,,,,,,,,366.1572776000248,,,,,,,,365.09085290000075,366.0945075000054,,,,,['button_incorrect'],[5.924498600012157],,,,,,,,,,,,,,,,,,,,,,,,,,distractorTask,1,,,,,,,,,,,,,,,,,,,,,,,,,,366.1425779000274,366.1572776000248,372.07540880003944,[-0.3592592592592593],[-0.3907407407407407],[1],[0],[0],[5.924498600012157],['button_incorrect'],372.0761180000263,373.07907050003996,,,,,,,,,,,,,,,,,,,,,,,,,,,,,,,,,,,,,1,2024-01-22_11h34.31.902,watkins1,2023.2.3,99.73341261321482,96,2024-01-22 11h35.15.315403 +0000,
(25 : 5) + 5 = 9 ,Incorrect,button_incorrect,,,,,,,,,,,,,0,1,1,6,,,,,,,,,373.0890572000062,,,,,,,,,,,,,,['button_incorrect'],[3.8546822000062093],,,,,,,,,,,,,,,,,,,,,,,,,,distractorTask,1,,,,,,,,,,,,,,,,,,,,,,,,,,373.07927000004565,373.0890572000062,376.9365298000048,[-0.30092592592592593],[-0.38333333333333336],[1],[0],[0],[3.8546822000062093],['button_incorrect'],376.9369124000077,377.940399300016,,,,,,,,,,,,,,,,,,,,,,,,,,,,,,,,,,,,,1,2024-01-22_11h34.31.902,watkins1,2023.2.3,99.73341261321482,96,2024-01-22 11h35.15.315403 +0000,
(2 x 5) + 3 = 13 ,Correct,button_correct,,,,,,,,,,,,,0,2,2,2,,,,,,,,,377.9503536000266,,,,,,,,,,,,,,['button_correct'],[2.528517400030978],,,,,,,,,,,,,,,,,,,,,,,,,,distractorTask,1,,,,,,,,,,,,,,,,,,,,,,,,,,377.9405923000304,377.9503536000266,380.47124370001256,[0.3490740740740741],[-0.4166666666666667],[1],[0],[0],[2.528517400030978],['button_correct'],380.47162800002843,381.4751486000023,,,,,,,,,,,,,,,,,,,,,,,,,,,,,,,,,,,,,1,2024-01-22_11h34.31.902,watkins1,2023.2.3,99.73341261321482,96,2024-01-22 11h35.15.315403 +0000,
(54 : 6) - 10 = 0 ,Incorrect,button_incorrect,,,,,,,,,,,,,0,3,3,5,,,,,,,,,381.48520900000585,,,,,,,,,,,,,,['button_incorrect'],[2.8587502000154927],,,,,,,,,,,,,,,,,,,,,,,,,,distractorTask,1,,,,,,,,,,,,,,,,,,,,,,,,,,381.475354299997,381.48520900000585,384.33724160003476,[-0.38055555555555554],[-0.3925925925925926],[1],[0],[0],[2.8587502000154927],['button_incorrect'],384.3376322000404,385.3412618000293,,,,,,,,,,,,,,,,,,,,,,,,,,,,,,,,,,,,,1,2024-01-22_11h34.31.902,watkins1,2023.2.3,99.73341261321482,96,2024-01-22 11h35.15.315403 +0000,
(7 x 6) + 9 = 48 ,Incorrect,button_incorrect,,,,,,,,,,,,,0,4,4,9,,,,,,,,,385.35123980004573,,,,,,,,,,,,,,['button_incorrect'],[6.233065599983092],,,,,,,,,,,,,,,,,,,,,,,,,,distractorTask,1,,,,,,,,,,,,,,,,,,,,,,,,,,385.3414553000475,385.35123980004573,391.5774943000288,[-0.3851851851851852],[-0.40555555555555556],[1],[0],[0],[6.233065599983092],['button_incorrect'],391.5778844000306,392.5811733000446,,,,,,,,,,,,,,,,,,,,,,,,,,,,,,,,,,,,,1,2024-01-22_11h34.31.902,watkins1,2023.2.3,99.73341261321482,96,2024-01-22 11h35.15.315403 +0000,
(4 : 2) + 4 = 6 ,Correct,button_correct,,,,,,,,,,,,,0,5,5,1,,,,,,,,,392.5912481000414,,,,,,,,,,,,,,['button_correct'],[2.4588785000378266],,,,,,,,,,,,,,,,,,,,,,,,,,distractorTask,1,,,,,,,,,,,,,,,,,,,,,,,,,,392.5813689000206,392.5912481000414,395.0419792000321,[0.32037037037037036],[-0.4203703703703704],[1],[0],[0],[2.4588785000378266],['button_correct'],395.04236630001105,396.0456058999989,,,,,,,,,,,,,,,,,,,,,,,,,,,,,,,,,,,,,1,2024-01-22_11h34.31.902,watkins1,2023.2.3,99.73341261321482,96,2024-01-22 11h35.15.315403 +0000,
(40 : 5) + 8 = 15 ,Incorrect,button_incorrect,,,,,,,,,,,,,0,6,6,7,,,,,,,,,396.0555980000063,,,,,,,,,,,,,,['button_incorrect'],[3.3827243000268936],,,,,,,,,,,,,,,,,,,,,,,,,,distractorTask,1,,,,,,,,,,,,,,,,,,,,,,,,,,396.04580300004454,396.0555980000063,399.4302435000427,[-0.2759259259259259],[-0.38333333333333336],[1],[0],[0],[3.3827243000268936],['button_incorrect'],399.43064110004343,400.43400470004417,,,,,,,,,,,,,,,,,,,,,,,,,,,,,,,,,,,,,1,2024-01-22_11h34.31.902,watkins1,2023.2.3,99.73341261321482,96,2024-01-22 11h35.15.315403 +0000,
(80 : 10) + 9 = 17 ,Correct,button_correct,,,,,,,,,,,,,0,7,7,3,,,,,,,,,400.4440497000469,,,,,,,,,,,,,,['button_correct'],[3.0411659000092186],,,,,,,,,,,,,,,,,,,,,,,,,,distractorTask,1,,,,,,,,,,,,,,,,,,,,,,,,,,400.4342036000453,400.4440497000469,403.4772282000049,[0.28703703703703703],[-0.38796296296296295],[1],[0],[0],[3.0411659000092186],['button_correct'],403.47761310002534,404.48073540005134,,,,,,,,,,,,,,,,,,,,,,,,,,,,,,,,,,,,,1,2024-01-22_11h34.31.902,watkins1,2023.2.3,99.73341261321482,96,2024-01-22 11h35.15.315403 +0000,
(6 x 3) + 10 = 27 ,Incorrect,button_incorrect,,,,,,,,,,,,,0,8,8,8,,,,,,,,,404.49071990000084,,,,,,,,,,,,,,['button_incorrect'],[2.5593133000074886],,,,,,,,,,,,,,,,,,,,,,,,,,distractorTask,1,,,,,,,,,,,,,,,,,,,,,,,,,,404.4809300000197,404.49071990000084,407.0419709000271,[-0.3768518518518518],[-0.37962962962962965],[1],[0],[0],[2.5593133000074886],['button_incorrect'],407.0423550000414,408.0456099000294,,,,,,,,,,,,,,,,,,,,,,,,,,,,,,,,,,,,,1,2024-01-22_11h34.31.902,watkins1,2023.2.3,99.73341261321482,96,2024-01-22 11h35.15.315403 +0000,
(28 : 7) - 3 = 1 ,Correct,button_correct,,,,,,,,,,,,,0,9,9,0,,,,,,,,,408.0556006000261,,,,,,,,,,,,,,['button_incorrect'],[6.214334999967832],,,,,,,,,,,,,,,,,,,,,,,,,,distractorTask,1,,,,,,,,,,,,,,,,,,,,,,,,,,408.0458060000092,408.0556006000261,414.26184540003305,[-0.3453703703703704],[-0.3888888888888889],[1],[0],[0],[6.214334999967832],['button_incorrect'],414.26222810003674,415.2654388000374,,,,,,,,,,,,,,,,,,,,,,,,,,,,,,,,,,,,,1,2024-01-22_11h34.31.902,watkins1,2023.2.3,99.73341261321482,96,2024-01-22 11h35.15.315403 +0000,
,,,,,,,,,,,,,,,,,,,,,,,,,,,,,,,,,,,,,,,,,,,,,,,,,,,,,,,,,,,,,,,,,,,,,1,,,,,,,,,,,,,,,,,,,,,,,,,,,,,,,,,,,,,,,,,,,,,,,,,,,,,,,,,,,,,,,,,,,,,,,,,,1,2024-01-22_11h34.31.902,watkins1,2023.2.3,99.73341261321482,96,2024-01-22 11h35.15.315403 +0000,
,,,,,,,,,,,,,,,,,,,0,0,0,0,,,,,421.6001688000397,,,,,,,,,,,,,,,7.8088754999917,,,,,,,,,,,,7.823716900020372,None,,,,,,,,,,,,,freeRecallSub,1,,,,,,,,,,,,,,,,,,,,,,,,,,,,,,,,,,,,,,421.5915206000209,421.6001688000397,421.6001688000397,429.4148283000104,return,7.8088754999917,None,,"[0.0, 0.001851851851851852]","[0.06111111111111111, 0.05092592592592592]","[1, 1]","[0, 0]","[0, 0]","[4.3476982999709435, 4.970049700001255]",[],,,,,,,,,,,,,,,,,,,,,,1,2024-01-22_11h34.31.902,watkins1,2023.2.3,99.73341261321482,96,2024-01-22 11h35.15.315403 +0000,
,,,,,,,,,,,,,,,,,,,1,0,1,0,,,,,429.42445520003093,,,,,,,,,,,,,,,6.232641300011892,,,,,,,,,,,,6.243823800003156,None,,,,,,,,,,,,,freeRecallSub,1,,,,,,,,,,,,,,,,,,,,,,,,,,,,,,,,,,,,,,429.4166254000156,429.42445520003093,429.42445520003093,435.6605606000521,return,6.232641300011892,None,,"[0.03796296296296296, -0.7361111111111112]","[0.03981481481481482, 0.06296296296296296]","[1, 1]","[0, 0]","[0, 0]","[0.8214389000204392, 2.71927100000903]",[],,,,,,,,,,,,,,,,,,,,,,1,2024-01-22_11h34.31.902,watkins1,2023.2.3,99.73341261321482,96,2024-01-22 11h35.15.315403 +0000,
,,,,,,,,,,,,,,,,,,,2,0,2,0,,,,,435.67096930003027,,,,,,,,,,,,,,  ,35.49003729998367,,,,,,,,,,,,11.678808500000741,None,,,,,,,,,,,,,freeRecallSub,1,,,,,,,,,,,,,,,,,,,,,,,,,,,,,,,,,,,,,,435.66188490000786,435.67096930003027,435.67096930003027,471.16151580004953,return,35.49003729998367,None,  ,"[0.04537037037037037, 0.04537037037037037, 0.04537037037037037, 0.04537037037037037, 0.04537037037037037, -0.5277777777777778, -0.5277777777777778, -0.4324074074074074, -0.08888888888888889, -0.08796296296296297, -0.04537037037037037, 0.45740740740740743, -0.524074074074074, -0.525]","[0.053703703703703705, 0.053703703703703705, 0.053703703703703705, 0.053703703703703705, 0.053703703703703705, 0.08981481481481482, 0.08981481481481482, -0.16203703703703703, 0.041666666666666664, 0.041666666666666664, 0.023148148148148147, 0.046296296296296294, 0.09259259259259259, 0.09259259259259259]","[1, 1, 1, 0, 1, 1, 1, 1, 1, 0, 1, 1, 0, 0]","[0, 0, 0, 0, 0, 0, 0, 0, 0, 0, 0, 0, 0, 0]","[0, 0, 0, 1, 0, 0, 0, 0, 0, 1, 0, 0, 1, 1]","[3.3008951999945566, 3.5115873999893665, 3.792789399973117, 4.405870699963998, 5.32952510000905, 6.2736314999638125, 6.45430949999718, 9.61728339997353, 12.91115489997901, 13.855043999967165, 21.558229299960658, 23.174935399962123, 27.8142080999678, 28.065148299967404]",[],,,,,,,,,,,,,,,,,,,,,,1,2024-01-22_11h34.31.902,watkins1,2023.2.3,99.73341261321482,96,2024-01-22 11h35.15.315403 +0000,
,,,,,,,,,,,,,,,,,,,3,0,3,0,,,,,471.17117530002724,,,,,,,,,,,,,,,1.5578998000128195,,,,,,,,,,,,1.57474250002997,None,,,,,,,,,,,,,freeRecallSub,1,,,,,,,,,,,,,,,,,,,,,,,,,,,,,,,,,,,,,,471.16308830003254,471.17117530002724,471.17117530002724,472.7377822000417,return,1.5578998000128195,None,,[],[],[],[],[],[],[],,,,,,,,,,,,,,,,,,,,,,1,2024-01-22_11h34.31.902,watkins1,2023.2.3,99.73341261321482,96,2024-01-22 11h35.15.315403 +0000,
,,,,,,,,,,,,,,,,,,,4,0,4,0,,,,,472.7476668000454,,,,,,,,,,,,,,,4.565404299995862,,,,,,,,,,,,4.577943900017999,None,,,,,,,,,,,,,freeRecallSub,1,,,,,,,,,,,,,,,,,,,,,,,,,,,,,,,,,,,,,,472.7390409000218,472.7476668000454,472.7476668000454,477.3171358000254,return,4.565404299995862,None,,[],[],[],[],[],[],[],,,,,,,,,,,,,,,,,,,,,,1,2024-01-22_11h34.31.902,watkins1,2023.2.3,99.73341261321482,96,2024-01-22 11h35.15.315403 +0000,
,,,,,,,,,,,,,,,,,,,5,0,5,0,,,,,477.32676140003605,,,,,,,,,,,,,,,11.562447700009216,,,,,,,,,,,,11.576832799997646,None,,,,,,,,,,,,,freeRecallSub,1,,,,,,,,,,,,,,,,,,,,,,,,,,,,,,,,,,,,,,477.31836800003657,477.32676140003605,477.32676140003605,488.8953287000186,return,11.562447700009216,None,,"[-0.07037037037037037, -0.06388888888888888, -0.046296296296296294]","[0.05462962962962963, 0.046296296296296294, 0.058333333333333334]","[1, 0, 1]","[0, 0, 0]","[0, 1, 0]","[3.3112847000011243, 5.861782599997241, 7.327966699958779]",[],,,,,,,,,,,,,,,,,,,,,,1,2024-01-22_11h34.31.902,watkins1,2023.2.3,99.73341261321482,96,2024-01-22 11h35.15.315403 +0000,
,,,,,,,,,,,,,,,,,,,6,0,6,0,,,,,488.9049926000298,,,,,,,,,,,,,,Fahrrad,54.97611680004047,,,,,,,,,,,,47.12537699996028,50.05749919998925,,,,,,,,,,,,,freeRecallSub,1,,,,,,,,,,,,,,,,,,,,,,,,,,,,,,,,,,,,,,488.8966585000162,488.9049926000298,488.9049926000298,543.88558500004,return,54.97611680004047,None,Fahrrad,[-0.014814814814814815],[0.03333333333333333],[1],[0],[0],[43.28778559999773],[],,,,,,,,,,,,,,,,,,,,,,1,2024-01-22_11h34.31.902,watkins1,2023.2.3,99.73341261321482,96,2024-01-22 11h35.15.315403 +0000,
,,,,,,,,,,,,,,,,,,,7,0,7,0,,,,,543.8963089000317,,,,,,,,,,,,,,Uhr,17.48088360001566,,,,,,,,,,,,3.1630607999977656,4.137059900036547,,,,,,,,,,,,,freeRecallSub,1,,,,,,,,,,,,,,,,,,,,,,,,,,,,,,,,,,,,,,543.886907200038,543.8963089000317,543.8963089000317,561.3803918000194,return,17.48088360001566,None,Uhr,[-0.000925925925925926],[0.05092592592592592],[1],[0],[0],[2.607892800006084],[],,,,,,,,,,,,,,,,,,,,,,1,2024-01-22_11h34.31.902,watkins1,2023.2.3,99.73341261321482,96,2024-01-22 11h35.15.315403 +0000,
,,,,,,,,,,,,,,,,,,,8,0,8,0,,,,,561.3908046000288,,,,,,,,,,,,,,Ring,2.6024203000124544,,,,,,,,,,,,1.6759732000064105,None,,,,,,,,,,,,,freeRecallSub,1,,,,,,,,,,,,,,,,,,,,,,,,,,,,,,,,,,,,,,561.3816819000058,561.3908046000288,561.3908046000288,564.0014923000126,return,2.6024203000124544,None,Ring,[],[],[],[],[],[],[],,,,,,,,,,,,,,,,,,,,,,1,2024-01-22_11h34.31.902,watkins1,2023.2.3,99.73341261321482,96,2024-01-22 11h35.15.315403 +0000,
,,,,,,,,,,,,,,,,,,,9,0,9,0,,,,,564.0124623000156,,,,,,,,,,,,,,Lampe,1.6607694000122137,,,,,,,,,,,,0.23105579998809844,None,,,,,,,,,,,,,freeRecallSub,1,,,,,,,,,,,,,,,,,,,,,,,,,,,,,,,,,,,,,,564.0027537000133,564.0124623000156,564.0124623000156,565.6799382000463,return,1.6607694000122137,None,Lampe,[],[],[],[],[],[],[],,,,,,,,,,,,,,,,,,,,,,1,2024-01-22_11h34.31.902,watkins1,2023.2.3,99.73341261321482,96,2024-01-22 11h35.15.315403 +0000,
,,,,,,,,,,,,,,,,,,,10,0,10,0,,,,,565.6912945000222,,,,,,,,,,,,,,rustikal,3.8859442000393756,,,,,,,,,,,,1.0151171999750659,None,,,,,,,,,,,,,freeRecallSub,1,,,,,,,,,,,,,,,,,,,,,,,,,,,,,,,,,,,,,,565.681214100041,565.6912945000222,565.6912945000222,569.5785902000498,return,3.8859442000393756,None,rustikal,[],[],[],[],[],[],[],,,,,,,,,,,,,,,,,,,,,,1,2024-01-22_11h34.31.902,watkins1,2023.2.3,99.73341261321482,96,2024-01-22 11h35.15.315403 +0000,
,,,,,,,,,,,,,,,,,,,11,0,11,0,,,,,569.5901658000075,,,,,,,,,,,,,,Hund,5.354984099976718,,,,,,,,,,,,3.636868100031279,None,,,,,,,,,,,,,freeRecallSub,1,,,,,,,,,,,,,,,,,,,,,,,,,,,,,,,,,,,,,,569.5798046000418,569.5901658000075,569.5901658000075,574.953741400037,return,5.354984099976718,None,Hund,[],[],[],[],[],[],[],,,,,,,,,,,,,,,,,,,,,,1,2024-01-22_11h34.31.902,watkins1,2023.2.3,99.73341261321482,96,2024-01-22 11h35.15.315403 +0000,
,,,,,,,,,,,,,,,,,,,12,0,12,0,,,,,574.9651990000275,,,,,,,,,,,,,,müde,2.492074200010393,,,,,,,,,,,,0.6136399999959394,None,,,,,,,,,,,,,freeRecallSub,1,,,,,,,,,,,,,,,,,,,,,,,,,,,,,,,,,,,,,,574.954999300011,574.9651990000275,574.9651990000275,577.4667024000082,return,2.492074200010393,None,müde,[],[],[],[],[],[],[],,,,,,,,,,,,,,,,,,,,,,1,2024-01-22_11h34.31.902,watkins1,2023.2.3,99.73341261321482,96,2024-01-22 11h35.15.315403 +0000,
,,,,,,,,,,,,,,,,,,,13,0,13,0,,,,,577.4782432000502,,,,,,,,,,,,,,Katze,2.1789771000039764,,,,,,,,,,,,0.5738095999695361,None,,,,,,,,,,,,,freeRecallSub,1,,,,,,,,,,,,,,,,,,,,,,,,,,,,,,,,,,,,,,577.4679554000031,577.4782432000502,577.4782432000502,579.6584722000407,return,2.1789771000039764,None,Katze,[],[],[],[],[],[],[],,,,,,,,,,,,,,,,,,,,,,1,2024-01-22_11h34.31.902,watkins1,2023.2.3,99.73341261321482,96,2024-01-22 11h35.15.315403 +0000,
,,,,,,,,,,,,,,,,,,,14,0,14,0,,,,,579.6703653000295,,,,,,,,,,,,,,sauber,3.370824999990873,,,,,,,,,,,,1.4482187000103295,None,,,,,,,,,,,,,freeRecallSub,1,,,,,,,,,,,,,,,,,,,,,,,,,,,,,,,,,,,,,,579.6597260000417,579.6703653000295,579.6703653000295,583.0461735000135,return,3.370824999990873,None,sauber,[],[],[],[],[],[],[],,,,,,,,,,,,,,,,,,,,,,1,2024-01-22_11h34.31.902,watkins1,2023.2.3,99.73341261321482,96,2024-01-22 11h35.15.315403 +0000,
,,,,,,,,,,,,,,,,,,,15,0,15,0,,,,,583.0581718000467,,,,,,,,,,,,,,Kerze,1.7509621999925002,,,,,,,,,,,,0.24333130003651604,None,,,,,,,,,,,,,freeRecallSub,1,,,,,,,,,,,,,,,,,,,,,,,,,,,,,,,,,,,,,,583.0474183000042,583.0581718000467,583.0581718000467,584.8171682000393,return,1.7509621999925002,None,Kerze,[],[],[],[],[],[],[],,,,,,,,,,,,,,,,,,,,,,1,2024-01-22_11h34.31.902,watkins1,2023.2.3,99.73341261321482,96,2024-01-22 11h35.15.315403 +0000,
,,,,,,,,,,,,,,,,,,,16,0,16,0,,,,,584.8292960000108,,,,,,,,,,,,,,vernünftig,3.379912599979434,,,,,,,,,,,,0.8858825999777764,None,,,,,,,,,,,,,freeRecallSub,1,,,,,,,,,,,,,,,,,,,,,,,,,,,,,,,,,,,,,,584.8184342000168,584.8292960000108,584.8292960000108,588.2149992000195,return,3.379912599979434,None,vernünftig,[],[],[],[],[],[],[],,,,,,,,,,,,,,,,,,,,,,1,2024-01-22_11h34.31.902,watkins1,2023.2.3,99.73341261321482,96,2024-01-22 11h35.15.315403 +0000,
,,,,,,,,,,,,,,,,,,,17,0,17,0,,,,,588.2281442999956,,,,,,,,,,,,,,Schlüssel,7.405111300002318,,,,,,,,,,,,4.473109899961855,None,,,,,,,,,,,,,freeRecallSub,1,,,,,,,,,,,,,,,,,,,,,,,,,,,,,,,,,,,,,,588.216241999995,588.2281442999956,588.2281442999956,595.6421838999959,return,7.405111300002318,None,Schlüssel,[],[],[],[],[],[],[],,,,,,,,,,,,,,,,,,,,,,1,2024-01-22_11h34.31.902,watkins1,2023.2.3,99.73341261321482,96,2024-01-22 11h35.15.315403 +0000,
,,,,,,,,,,,,,,,,,,,18,0,18,0,,,,,595.6556240000064,,,,,,,,,,,,,,neu,0.9856182999792509,,,,,,,,,,,,0.43635710002854466,None,,,,,,,,,,,,,freeRecallSub,1,,,,,,,,,,,,,,,,,,,,,,,,,,,,,,,,,,,,,,595.6434439000441,595.6556240000064,595.6556240000064,596.6423001000076,return,0.9856182999792509,None,neu,[],[],[],[],[],[],[],,,,,,,,,,,,,,,,,,,,,,1,2024-01-22_11h34.31.902,watkins1,2023.2.3,99.73341261321482,96,2024-01-22 11h35.15.315403 +0000,
,,,,,,,,,,,,,,,,,,,19,0,19,0,,,,,596.6550430000061,,,,,,,,,,,,,,,[],,,,,,,,,,,,None,None,,,,,,,,,,,,,freeRecallSub,1,,,,,,,,,,,,,,,,,,,,,,,,,,,,,,,,,,,,,,596.643565800041,596.6550430000061,596.6550430000061,609.0501269000233,None,,,,[0.13703703703703704],[-0.3814814814814815],[1],[0],[0],[12.401277199969627],['button_continue'],,,,,,,,,,,,,,,,,,,,,,1,2024-01-22_11h34.31.902,watkins1,2023.2.3,99.73341261321482,96,2024-01-22 11h35.15.315403 +0000,
,,,,,,,,,,,,,,,,,,,,,,,,,,,,,,,,,,,,,,,,,,,,,,,,,,,,,,,,,,,,,,,,,,,,,1,,,,,,,,,,,,,,,,,,,,,,,,,,,,,,,,,,,,,,,,,,,,,,,,,,,,,,,,,,,,,,,,,,,,,,,,,,1,2024-01-22_11h34.31.902,watkins1,2023.2.3,99.73341261321482,96,2024-01-22 11h35.15.315403 +0000,
,,,,,,,,,,,,,,,,,,,,,,,0,0,0,0,615.028863100044,,,,,,,,,,625.3021291000186,625.7932874000398,,,nachhaltig,5.420411099970806,,,,,,,,,,,,0.5112254000268877,None,,,,,,,,,,Eimer,,,cuedRecallAdj,1,,,,,,,,,,,,,,,,,,,,,,,,,,,,,,,,,,,,,,,,,,,,,,,,,,,,,615.0195584000321,615.028863100044,0,615.028863100044,620.4517108,,return,5.420411099970806,None,620.4521124000312,620.4612516000052,620.4612516000052,625.3017307000118,nachhaltig,return,4.836024499963969,None,,,,,1,2024-01-22_11h34.31.902,watkins1,2023.2.3,99.73341261321482,96,2024-01-22 11h35.15.315403 +0000,
,,,,,,,,,,,,,,,,,,,,,,,1,0,1,0,625.8032423999975,,,,,,,,,,639.2531541000353,639.7517300000181,,,,13.438032499980181,,,,,,,,,,,,None,None,,,,,,,,,,Bürste,,,cuedRecallAdj,1,,,,,,,,,,,,,,,,,,,,,,,,,,,,,,,,,,,,,,,,,,,,,,,,,,,,,625.793532700045,625.8032423999975,0,625.8032423999975,639.2499322000076,?,return,13.438032499980181,None,639.2501909999992,639.2596798000159,639.2596798000159,639.2530526000191,,None,,,,,,,1,2024-01-22_11h34.31.902,watkins1,2023.2.3,99.73341261321482,96,2024-01-22 11h35.15.315403 +0000,
,,,,,,,,,,,,,,,,,,,,,,,2,0,2,0,639.7617788000498,,,,,,,,,,644.7556306000333,645.2546209000284,,,,4.983470999985002,,,,,,,,,,,,None,None,,,,,,,,,,Telefon,,,cuedRecallAdj,1,,,,,,,,,,,,,,,,,,,,,,,,,,,,,,,,,,,,,,,,,,,,,,,,,,,,,639.7519787000492,639.7617788000498,0,639.7617788000498,644.752766300051,nass,return,4.983470999985002,None,644.7530295000179,644.7625192000414,644.7625192000414,644.7555294000194,,None,,,,,,,1,2024-01-22_11h34.31.902,watkins1,2023.2.3,99.73341261321482,96,2024-01-22 11h35.15.315403 +0000,
,,,,,,,,,,,,,,,,,,,,,,,3,0,3,0,645.2646693999995,,,,,,,,,,653.700234500051,654.1917687000241,,,zerbrechlich,3.192617099964991,,,,,,,,,,,,1.1439095999812707,None,,,,,,,,,,Vase,,,cuedRecallAdj,1,,,,,,,,,,,,,,,,,,,,,,,,,,,,,,,,,,,,,,,,,,,,,,,,,,,,,645.254865200026,645.2646693999995,0,645.2646693999995,648.4584874000284,zart,return,3.192617099964991,None,648.4587509999983,648.4680480000097,648.4680480000097,653.699955100019,zerbrechlich,return,5.229230099997949,None,,,,,1,2024-01-22_11h34.31.902,watkins1,2023.2.3,99.73341261321482,96,2024-01-22 11h35.15.315403 +0000,
,,,,,,,,,,,,,,,,,,,,,,,4,0,4,0,654.2018138000276,,,,,,,,,,659.0157674000366,659.5137320000213,,,,4.807459800038487,,,,,,,,,,,,None,None,,,,,,,,,,Rucksack,,,cuedRecallAdj,1,,,,,,,,,,,,,,,,,,,,,,,,,,,,,,,,,,,,,,,,,,,,,,,,,,,,,654.1920141000301,654.2018138000276,0,654.2018138000276,659.012515600014,elegant,return,4.807459800038487,None,659.0127723000478,659.0217011000495,659.0217011000495,659.015669400047,,None,,,,,,,1,2024-01-22_11h34.31.902,watkins1,2023.2.3,99.73341261321482,96,2024-01-22 11h35.15.315403 +0000,
,,,,,,,,,,,,,,,,,,,,,,,5,0,5,0,659.5237402000348,,,,,,,,,,661.3847848000005,661.8834998999955,,,,1.8535282000084408,,,,,,,,,,,,None,None,,,,,,,,,,Schlüssel,,,cuedRecallAdj,1,,,,,,,,,,,,,,,,,,,,,,,,,,,,,,,,,,,,,,,,,,,,,,,,,,,,,659.5139765000204,659.5237402000348,0,659.5237402000348,661.3819167000474,neu,return,1.8535282000084408,None,661.3821791000082,661.3914508000016,661.3914508000016,661.3846862000064,,None,,,,,,,1,2024-01-22_11h34.31.902,watkins1,2023.2.3,99.73341261321482,96,2024-01-22 11h35.15.315403 +0000,
,,,,,,,,,,,,,,,,,,,,,,,6,0,6,0,661.8933730000281,,,,,,,,,,663.4531889000209,663.9523235000088,,,,1.5479182000271976,,,,,,,,,,,,None,None,,,,,,,,,,Ring,,,cuedRecallAdj,1,,,,,,,,,,,,,,,,,,,,,,,,,,,,,,,,,,,,,,,,,,,,,,,,,,,,,661.8837463000091,661.8933730000281,0,661.8933730000281,663.4504908000235,gut,return,1.5479182000271976,None,663.4507779999985,663.4602443000185,663.4602443000185,663.4530885000131,,None,,,,,,,1,2024-01-22_11h34.31.902,watkins1,2023.2.3,99.73341261321482,96,2024-01-22 11h35.15.315403 +0000,
,,,,,,,,,,,,,,,,,,,,,,,7,0,7,0,663.9622637000284,,,,,,,,,,668.8056975000072,669.3044126000023,,,,4.831038900010753,,,,,,,,,,,,None,None,,,,,,,,,,Socke,,,cuedRecallAdj,1,,,,,,,,,,,,,,,,,,,,,,,,,,,,,,,,,,,,,,,,,,,,,,,,,,,,,663.9525657000486,663.9622637000284,0,663.9622637000284,668.8026559000136,niedlich,return,4.831038900010753,None,668.8029200000456,668.8123488000128,668.8123488000128,668.8055966999964,,None,,,,,,,1,2024-01-22_11h34.31.902,watkins1,2023.2.3,99.73341261321482,96,2024-01-22 11h35.15.315403 +0000,
,,,,,,,,,,,,,,,,,,,,,,,8,0,8,0,669.3144643999985,,,,,,,,,,674.9409541000496,675.4398154999944,,,,5.614744199963752,,,,,,,,,,,,None,None,,,,,,,,,,Kette,,,cuedRecallAdj,1,,,,,,,,,,,,,,,,,,,,,,,,,,,,,,,,,,,,,,,,,,,,,,,,,,,,,669.3046564999968,669.3144643999985,0,669.3144643999985,674.9379696000251,glatt,return,5.614744199963752,None,674.9382392000407,674.9477369000087,674.9477369000087,674.9408537000418,,None,,,,,,,1,2024-01-22_11h34.31.902,watkins1,2023.2.3,99.73341261321482,96,2024-01-22 11h35.15.315403 +0000,
,,,,,,,,,,,,,,,,,,,,,,,9,0,9,0,675.4497642000206,,,,,,,,,,678.2453842000104,678.7444139000145,,,,2.783526100043673,,,,,,,,,,,,None,None,,,,,,,,,,Hammer,,,cuedRecallAdj,1,,,,,,,,,,,,,,,,,,,,,,,,,,,,,,,,,,,,,,,,,,,,,,,,,,,,,675.4400624000118,675.4497642000206,0,675.4497642000206,678.2425870000152,dick,return,2.783526100043673,None,678.2428434000467,678.2522381000454,678.2522381000454,678.2452854000148,,None,,,,,,,1,2024-01-22_11h34.31.902,watkins1,2023.2.3,99.73341261321482,96,2024-01-22 11h35.15.315403 +0000,
,,,,,,,,,,,,,,,,,,,,,,,10,0,10,0,678.7543582000071,,,,,,,,,,685.4038000000292,685.8951738000032,,,,5.334950499993283,,,,,,,,,,,,1.3049277000245638,None,,,,,,,,,,Löffel,,,cuedRecallAdj,1,,,,,,,,,,,,,,,,,,,,,,,,,,,,,,,,,,,,,,,,,,,,,,,,,,,,,678.744658200012,678.7543582000071,0,678.7543582000071,684.0978666000301,hübsch,return,5.334950499993283,None,684.0981281000422,684.1076225000434,684.1076225000434,685.4035354000516,,return,1.293666600016877,None,,,,,1,2024-01-22_11h34.31.902,watkins1,2023.2.3,99.73341261321482,96,2024-01-22 11h35.15.315403 +0000,
,,,,,,,,,,,,,,,,,,,,,,,11,0,11,0,685.9050740000093,,,,,,,,,,689.7350524000358,690.2336512000184,,,,3.824252499965951,,,,,,,,,,,,None,None,,,,,,,,,,Tasse,,,cuedRecallAdj,1,,,,,,,,,,,,,,,,,,,,,,,,,,,,,,,,,,,,,,,,,,,,,,,,,,,,,685.8954207000206,685.9050740000093,0,685.9050740000093,689.7319340000395,kratzig,return,3.824252499965951,None,689.7322147000232,689.7415331000229,689.7415331000229,689.7349519000272,,None,,,,,,,1,2024-01-22_11h34.31.902,watkins1,2023.2.3,99.73341261321482,96,2024-01-22 11h35.15.315403 +0000,
,,,,,,,,,,,,,,,,,,,,,,,12,0,12,0,690.2435581000173,,,,,,,,,,698.5786718000309,699.0700977000524,,,flach,4.381687700049952,,,,,,,,,,,,2.007823299965821,None,,,,,,,,,,Buch,,,cuedRecallAdj,1,,,,,,,,,,,,,,,,,,,,,,,,,,,,,,,,,,,,,,,,,,,,,,,,,,,,,690.2338964000228,690.2435581000173,0,690.2435581000173,694.6320789000019,hohl,return,4.381687700049952,None,694.6323419000255,694.6415966000059,694.6415966000059,698.5784129000385,flach,return,3.92769749998115,None,,,,,1,2024-01-22_11h34.31.902,watkins1,2023.2.3,99.73341261321482,96,2024-01-22 11h35.15.315403 +0000,
,,,,,,,,,,,,,,,,,,,,,,,13,0,13,0,699.080047800031,,,,,,,,,,702.3677609000006,702.8661807000171,,,,3.281301099981647,,,,,,,,,,,,None,None,,,,,,,,,,Lampe,,,cuedRecallAdj,1,,,,,,,,,,,,,,,,,,,,,,,,,,,,,,,,,,,,,,,,,,,,,,,,,,,,,699.0703446000116,699.080047800031,0,699.080047800031,702.3644707000349,rustikal,return,3.281301099981647,None,702.3647344000055,702.3740100000286,702.3740100000286,702.3676606000517,,None,,,,,,,1,2024-01-22_11h34.31.902,watkins1,2023.2.3,99.73341261321482,96,2024-01-22 11h35.15.315403 +0000,
,,,,,,,,,,,,,,,,,,,,,,,14,0,14,0,702.8761264000204,,,,,,,,,,710.4681770000025,710.9596038000309,,,bunt,5.9251215000404045,,,,,,,,,,,,0.7524801999679767,None,,,,,,,,,,Trommel,,,cuedRecallAdj,1,,,,,,,,,,,,,,,,,,,,,,,,,,,,,,,,,,,,,,,,,,,,,,,,,,,,,702.8664202000364,702.8761264000204,0,702.8761264000204,708.8109689000412,sportlich,return,5.9251215000404045,None,708.8112328000134,708.8206532000331,708.8206532000331,710.4678942000028,bunt,return,1.6447227000026032,None,,,,,1,2024-01-22_11h34.31.902,watkins1,2023.2.3,99.73341261321482,96,2024-01-22 11h35.15.315403 +0000,
,,,,,,,,,,,,,,,,,,,,,,,15,0,15,0,710.9695506000426,,,,,,,,,,713.7738639000454,714.2631363000255,,,,2.7997006999794394,,,,,,,,,,,,None,None,,,,,,,,,,Hut,,,cuedRecallAdj,1,,,,,,,,,,,,,,,,,,,,,,,,,,,,,,,,,,,,,,,,,,,,,,,,,,,,,710.959842500044,710.9695506000426,0,710.9695506000426,713.7715088000405,,return,2.7997006999794394,None,713.7717772000469,713.7810680000111,713.7810680000111,713.7737637000391,,None,,,,,,,1,2024-01-22_11h34.31.902,watkins1,2023.2.3,99.73341261321482,96,2024-01-22 11h35.15.315403 +0000,
,,,,,,,,,,,,,,,,,,,,,,,16,0,16,0,714.2730813000235,,,,,,,,,,718.7732449000468,719.2644844000461,,,,3.5762711000279523,,,,,,,,,,,,0.9132621999597177,None,,,,,,,,,,Uhr,,,cuedRecallAdj,1,,,,,,,,,,,,,,,,,,,,,,,,,,,,,,,,,,,,,,,,,,,,,,,,,,,,,714.2633809000254,714.2730813000235,0,714.2730813000235,717.8589803000214,kaputt,return,3.5762711000279523,None,717.859239900019,717.8686968000256,717.8686968000256,718.7729721000069,,return,0.9005667000310495,None,,,,,1,2024-01-22_11h34.31.902,watkins1,2023.2.3,99.73341261321482,96,2024-01-22 11h35.15.315403 +0000,
,,,,,,,,,,,,,,,,,,,,,,,17,0,17,0,719.274539200007,,,,,,,,,,723.583076400042,724.0744651000132,,,teuer,2.966744299978018,,,,,,,,,,,,0.5516249999636784,None,,,,,,,,,,Kerze,,,cuedRecallAdj,1,,,,,,,,,,,,,,,,,,,,,,,,,,,,,,,,,,,,,,,,,,,,,,,,,,,,,719.2647197000333,719.274539200007,0,719.274539200007,722.2472899000277,sauber,return,2.966744299978018,None,722.2475553000113,722.2568572000018,722.2568572000018,723.5828185999999,teuer,return,1.3203611999633722,None,,,,,1,2024-01-22_11h34.31.902,watkins1,2023.2.3,99.73341261321482,96,2024-01-22 11h35.15.315403 +0000,
,,,,,,,,,,,,,,,,,,,,,,,18,0,18,0,724.0845065000467,,,,,,,,,,729.3468082000036,729.8383585000411,,,,4.78086220001569,,,,,,,,,,,,0.47146709996741265,None,,,,,,,,,,Blume,,,cuedRecallAdj,1,,,,,,,,,,,,,,,,,,,,,,,,,,,,,,,,,,,,,,,,,,,,,,,,,,,,,724.0747038000263,724.0845065000467,0,724.0845065000467,728.8745421000058,schlicht,return,4.78086220001569,None,728.8748035000172,728.8843471000437,728.8843471000437,729.3465415000101,,return,0.45297179999761283,None,,,,,1,2024-01-22_11h34.31.902,watkins1,2023.2.3,99.73341261321482,96,2024-01-22 11h35.15.315403 +0000,
,,,,,,,,,,,,,,,,,,,,,,,19,0,19,0,729.848315100011,,,,,,,,,,733.5158434000332,734.0053884000517,,,,3.6569556999602355,,,,,,,,,,,,None,None,,,,,,,,,,Tasche,,,cuedRecallAdj,1,,,,,,,,,,,,,,,,,,,,,,,,,,,,,,,,,,,,,,,,,,,,,,,,,,,,,729.8386029000394,729.848315100011,0,729.848315100011,733.5136307000066,,return,3.6569556999602355,None,733.5138887000503,733.5233349000337,733.5233349000337,733.5157433000277,,None,,,,,,,1,2024-01-22_11h34.31.902,watkins1,2023.2.3,99.73341261321482,96,2024-01-22 11h35.15.315403 +0000,
,,,,,,,,,,,,,,,,,,,,,,,20,0,20,0,734.0154264000012,,,,,,,,,,738.3143305000267,738.8056176000391,,,,3.089909299975261,,,,,,,,,,,,1.2042403999948874,None,,,,,,,,,,Flasche,,,cuedRecallAdj,1,,,,,,,,,,,,,,,,,,,,,,,,,,,,,,,,,,,,,,,,,,,,,,,,,,,,,734.0056302000303,734.0154264000012,0,734.0154264000012,737.1090817000368,kalt,return,3.089909299975261,None,737.1093552000239,737.1185953000095,737.1185953000095,738.3140646000393,,return,1.1948449999908917,None,,,,,1,2024-01-22_11h34.31.902,watkins1,2023.2.3,99.73341261321482,96,2024-01-22 11h35.15.315403 +0000,
,,,,,,,,,,,,,,,,,,,,,,,21,0,21,0,738.8155717000482,,,,,,,,,,743.0064012000221,743.5050682000001,,,,4.185742800007574,,,,,,,,,,,,None,None,,,,,,,,,,Kiste,,,cuedRecallAdj,1,,,,,,,,,,,,,,,,,,,,,,,,,,,,,,,,,,,,,,,,,,,,,,,,,,,,,738.8058608000283,738.8155717000482,0,738.8155717000482,743.0033552999957,dunkel,return,4.185742800007574,None,743.0036155999987,743.0129474000423,743.0129474000423,743.0063037000364,,None,,,,,,,1,2024-01-22_11h34.31.902,watkins1,2023.2.3,99.73341261321482,96,2024-01-22 11h35.15.315403 +0000,
,,,,,,,,,,,,,,,,,,,,,,,22,0,22,0,743.5150110000395,,,,,,,,,,748.9191896000411,749.4105394000071,,,matt,4.038249499979429,,,,,,,,,,,,0.2705466999905184,None,,,,,,,,,,Kamera,,,cuedRecallAdj,1,,,,,,,,,,,,,,,,,,,,,,,,,,,,,,,,,,,,,,,,,,,,,,,,,,,,,743.5053161000251,743.5150110000395,0,743.5150110000395,747.5632320000441,praktisch,return,4.038249499979429,None,747.5634923000471,747.57296770002,747.57296770002,748.9189225000446,matt,return,1.3403990000369959,None,,,,,1,2024-01-22_11h34.31.902,watkins1,2023.2.3,99.73341261321482,96,2024-01-22 11h35.15.315403 +0000,
,,,,,,,,,,,,,,,,,,,,,,,23,0,23,0,749.4204879000317,,,,,,,,,,751.1804760000086,751.6699363000225,,,,1.7488909999956377,,,,,,,,,,,,None,None,,,,,,,,,,Schere,,,cuedRecallAdj,1,,,,,,,,,,,,,,,,,,,,,,,,,,,,,,,,,,,,,,,,,,,,,,,,,,,,,749.4107804000378,749.4204879000317,0,749.4204879000317,751.1779389000149,,return,1.7488909999956377,None,751.1782041999977,751.1876808000379,751.1876808000379,751.1803759000031,,None,,,,,,,1,2024-01-22_11h34.31.902,watkins1,2023.2.3,99.73341261321482,96,2024-01-22 11h35.15.315403 +0000,
,,,,,,,,,,,,,,,,,,,,,,,24,0,24,0,751.6798930000514,,,,,,,,,,757.6352655999945,758.126507900015,,,krumm,3.865466599992942,,,,,,,,,,,,0.5515379999997094,None,,,,,,,,,,Brille,,,cuedRecallAdj,1,,,,,,,,,,,,,,,,,,,,,,,,,,,,,,,,,,,,,,,,,,,,,,,,,,,,,751.6701824000338,751.6798930000514,0,751.6798930000514,755.546421200037,dreckig,return,3.865466599992942,None,755.5467063999968,755.5559590000194,755.5559590000194,757.6350010000169,krumm,return,2.0773900000494905,None,,,,,1,2024-01-22_11h34.31.902,watkins1,2023.2.3,99.73341261321482,96,2024-01-22 11h35.15.315403 +0000,
,,,,,,,,,,,,,,,,,,,,,,,25,0,25,0,758.1364451000118,,,,,,,,,,764.5545079000294,765.0459631000413,,,,4.272985299990978,,,,,,,,,,,,2.1380117000080645,None,,,,,,,,,,Würfel,,,cuedRecallAdj,1,,,,,,,,,,,,,,,,,,,,,,,,,,,,,,,,,,,,,,,,,,,,,,,,,,,,,758.1267529000179,758.1364451000118,0,758.1364451000118,762.415134800016,klobig,return,4.272985299990978,None,762.4154000999988,762.4246829000185,762.4246829000185,764.5542432000511,,return,2.1287850000080653,None,,,,,1,2024-01-22_11h34.31.902,watkins1,2023.2.3,99.73341261321482,96,2024-01-22 11h35.15.315403 +0000,
,,,,,,,,,,,,,,,,,,,,,,,26,0,26,0,765.055956199998,,,,,,,,,,770.6698193000047,771.1611640000483,,,,4.801394900016021,,,,,,,,,,,,0.8027245000121184,None,,,,,,,,,,Geige,,,cuedRecallAdj,1,,,,,,,,,,,,,,,,,,,,,,,,,,,,,,,,,,,,,,,,,,,,,,,,,,,,,765.0462067000335,765.055956199998,0,765.055956199998,769.8661412000074,glänzend,return,4.801394900016021,None,769.8663992000511,769.875798300025,769.875798300025,770.6695574000478,,return,0.7895246000261977,None,,,,,1,2024-01-22_11h34.31.902,watkins1,2023.2.3,99.73341261321482,96,2024-01-22 11h35.15.315403 +0000,
,,,,,,,,,,,,,,,,,,,,,,,27,0,27,0,771.1712068000343,,,,,,,,,,774.5257828000467,775.0171068000491,,,,2.230200699996203,,,,,,,,,,,,1.1140528000541963,None,,,,,,,,,,Jacke,,,cuedRecallAdj,1,,,,,,,,,,,,,,,,,,,,,,,,,,,,,,,,,,,,,,,,,,,,,,,,,,,,,771.161409100052,771.1712068000343,0,771.1712068000343,773.4107287000515,kurz,return,2.230200699996203,None,773.4109939000336,773.4204781000153,773.4204781000153,774.5255173000041,,return,1.1008418999845162,None,,,,,1,2024-01-22_11h34.31.902,watkins1,2023.2.3,99.73341261321482,96,2024-01-22 11h35.15.315403 +0000,
,,,,,,,,,,,,,,,,,,,,,,,28,0,28,0,775.0270590000437,,,,,,,,,,779.2379121000413,779.7365928000072,,,,4.2063230000203475,,,,,,,,,,,,None,None,,,,,,,,,,Fahrrad,,,cuedRecallAdj,1,,,,,,,,,,,,,,,,,,,,,,,,,,,,,,,,,,,,,,,,,,,,,,,,,,,,,775.0173450000002,775.0270590000437,0,775.0270590000437,779.2349560000002,glatt,return,4.2063230000203475,None,779.2352236000006,779.2444718000479,779.2444718000479,779.2378117000335,,None,,,,,,,1,2024-01-22_11h34.31.902,watkins1,2023.2.3,99.73341261321482,96,2024-01-22 11h35.15.315403 +0000,
,,,,,,,,,,,,,,,,,,,,,,,29,0,29,0,779.7465345000383,,,,,,,,,,784.1552633999963,784.6466666000197,,,,4.014802900026552,,,,,,,,,,,,0.3909808999742381,None,,,,,,,,,,Stift,,,cuedRecallAdj,1,,,,,,,,,,,,,,,,,,,,,,,,,,,,,,,,,,,,,,,,,,,,,,,,,,,,,779.7368375000078,779.7465345000383,0,779.7465345000383,783.7634933000081,groß,return,4.014802900026552,None,783.7637529000058,783.7730571000138,783.7730571000138,784.1550046000048,,return,0.3722237999900244,None,,,,,1,2024-01-22_11h34.31.902,watkins1,2023.2.3,99.73341261321482,96,2024-01-22 11h35.15.315403 +0000,
,,,,,,,,,,,,,,,,,,,,,,,,,,,,,,,,,,,,,,,,,,,,,,,,,,,,,,,,,,,,,,,,,,,,,1,,,,,,,,,,,,,,,,,,,,,,,,,,,,,,,,,,,,,,,,,,,,,,,,,,,,,,,,,,,,,,,,,,,,,,784.6633323000278,q,10240.769517000008,None,1,2024-01-22_11h34.31.902,watkins1,2023.2.3,99.73341261321482,96,2024-01-22 11h35.15.315403 +0000,
