Equation,CorrectResponse,Correctbutton,trials_7.thisRepN,trials_7.thisTrialN,trials_7.thisN,trials_7.thisIndex,trials.thisRepN,trials.thisTrialN,trials.thisN,trials.thisIndex,trials_3.thisRepN,trials_3.thisTrialN,trials_3.thisN,trials_3.thisIndex,trials_2.thisRepN,trials_2.thisTrialN,trials_2.thisN,trials_2.thisIndex,trials_4.thisRepN,trials_4.thisTrialN,trials_4.thisN,trials_4.thisIndex,trials_5.thisRepN,trials_5.thisTrialN,trials_5.thisN,trials_5.thisIndex,thisRow.t,notes,code_marius.started,code_marius.stopped,welcome.started,welcome.stopped,instruction_study.started,instruction_study.stopped,fixationcross.started,fixationcross.stopped,blanc.started,blanc.stopped,study_control_probe.started,study_control_probe.stopped,responseKey,responseTime,scale_answer_2.keys,study_control_probe_2.started,study_control_probe_2.stopped,scale_answer_3.keys,scale_answer_3.rt,scale_answer_3.duration,blanc_2.started,blanc_2.stopped,test_attr_probe.started,test_attr_probe.stopped,recalled_attr,firstKeyTime,secondWordTime,blanc_3.started,blanc_3.stopped,test_sub_probe.started,test_sub_probe.stopped,recalled_sub,instruction_probe_end.started,instruction_probe_end.stopped,study.started,study.stopped,substantive,adjective,wordpair,task,condition,liste_sub_phase1,liste_adj_phase1,scale_answer.keys,scale_answer.rt,scale_answer.duration,code_defineWordsInit.started,code_defineWordsInit.stopped,liste_sub_phase2,study_control.started,study_control.stopped,scale_answer_4.keys,restudy_same.started,restudy_same.stopped,scale_answer_5.keys,restudy_different.started,restudy_different.stopped,scale_answer_6.keys,scale_answer_6.rt,scale_answer_6.duration,test_attr.started,test_attr.stopped,test_sub.started,test_sub.stopped,scale_answer_4.rt,scale_answer_4.duration,distractortask.started,equation_text.started,distractortask.stopped,mouse_answer.x,mouse_answer.y,mouse_answer.leftButton,mouse_answer.midButton,mouse_answer.rightButton,mouse_answer.time,mouse_answer.clicked_name,feedback_distractortask.started,feedback_distractortask.stopped,free_recall.started,text_enter.started,key_resp.started,free_recall.stopped,key_resp.keys,key_resp.rt,key_resp.duration,free_recalled_sub,mouse_continue.x,mouse_continue.y,mouse_continue.leftButton,mouse_continue.midButton,mouse_continue.rightButton,mouse_continue.time,mouse_continue.clicked_name,cued_recall.started,text_enter_2.started,correct,key_continue.started,cued_recall.stopped,recalled_attr1,key_continue.keys,key_continue.rt,key_continue.duration,cued_recall_2.started,text_enter_3.started,key_continue_2.started,cued_recall_2.stopped,recalled_attr2,key_continue_2.keys,key_continue_2.rt,key_continue_2.duration,key_resp_8.started,key_resp_8.keys,key_resp_8.rt,key_resp_8.duration,condition,date,expName,psychopyVersion,frameRate,participant,expStart,
,,,,,,,,,,,,,,,,,,,,,,,,,,,,,0.11286569992080331,0.11293109995312989,0.11293970001861453,10.793580199824646,,,,,,,,,,,,,,,,,,,,,,,,,,,,,,,,,,,,,1,,,,,,,,,,,,,,,,,,,,,,,,,,,,,,,,,,,,,,,,,,,,,,,,,,,,,,,,,,,,,,,,,,,,,,,,,,1,2023-12-06_13h58.28.698,watkins1,2023.2.3,99.7386846535348,49,2023-12-06 13h58.34.349332 +0000,
,,,,,,,,,,,,,,,,,,,,,,,,,,,,,,,,,10.793628999963403,46.46396490000188,,,,,,,,,,,,,,,,,,,,,,,,,,,,,,,,,,,1,,,,,,,,,,,,,,,,,,,,,,,,,,,,,,,,,,,,,,,,,,,,,,,,,,,,,,,,,,,,,,,,,,,,,,,,,,1,2023-12-06_13h58.28.698,watkins1,2023.2.3,99.7386846535348,49,2023-12-06 13h58.34.349332 +0000,
,,,0,0,0,0,,,,,,,,,,,,,,,,,,,,,47.47765539982356,,,,,,,,46.46398359979503,47.46767079993151,53.960421399911866,54.457667199894786,47.95965169998817,53.96026149997488,3,2.62742119980976,None,54.45767809986137,60.46328879985958,3,2.62742119980976,None,60.463576699839905,60.46359939989634,60.46360609983094,60.46368549996987,,None,None,60.463846599915996,60.46386739984155,60.46387439989485,60.46394529985264,,,,,,,,,,1,,,,,,,,,,,,,,,,,,,,,,,,,,,,,,,,,,,,,,,,,,,,,,,,,,,,,,,,,,,,,,,,,,,,,,,,,,1,2023-12-06_13h58.28.698,watkins1,2023.2.3,99.7386846535348,49,2023-12-06 13h58.34.349332 +0000,
,,,,,,,,,,,,,,,,,,,,,,,,,,,,,,,,,,,,,,,,,,,,,,,,,,,,,,,,,,,,,60.46405289997347,62.77934899996035,,,,,,,1,,,,,,,,,,,,,,,,,,,,,,,,,,,,,,,,,,,,,,,,,,,,,,,,,,,,,,,,,,,,,,,,,,,,,,,,,,1,2023-12-06_13h58.28.698,watkins1,2023.2.3,99.7386846535348,49,2023-12-06 13h58.34.349332 +0000,
,,,,,,,0,0,0,0,,,,,,,,,,,,,,,,,63.79291859990917,,,,,,,,62.77936629997566,63.782918399898335,63.78337249998003,64.27502099983394,,,2,2.9060198001097888,,,,,,,,,,,,,,,,,,,,,64.27503239992075,70.28085029986687,Bürste,hässlich,"['Bürste', 'hässlich']",restudy_diff,1,"['Bürste', 'Rucksack', 'Trommel', 'Buch', 'Vase', 'Socke', 'Kiste', 'Flasche', 'Eimer', 'Tasse', 'Geige', 'Tasche', 'Stift', 'Kamera', 'Telefon', 'Fahrrad', 'Lampe', 'Kette', 'Brille', 'Hammer', 'Kerze', 'Blume']",['hässlich'],2,2.9060198001097888,None,,,,,,,,,,,,,,,,,,,,,,,,,,,,,,,,,,,,,,,,,,,,,,,,,,,,,,,,,,,,,,,,,,,,,1,2023-12-06_13h58.28.698,watkins1,2023.2.3,99.7386846535348,49,2023-12-06 13h58.34.349332 +0000,
,,,,,,,1,0,1,0,,,,,,,,,,,,,,,,,70.29041369981132,,,,,,,,,,70.28144029993564,70.772260800004,,,3,1.2369763001333922,,,,,,,,,,,,,,,,,,,,,70.77227169997059,76.7789493999444,Rucksack,teuer,"['Rucksack', 'teuer']",restudy_diff,1,"['Bürste', 'Rucksack', 'Trommel', 'Buch', 'Vase', 'Socke', 'Kiste', 'Flasche', 'Eimer', 'Tasse', 'Geige', 'Tasche', 'Stift', 'Kamera', 'Telefon', 'Fahrrad', 'Lampe', 'Kette', 'Brille', 'Hammer', 'Kerze', 'Blume']","['hässlich', 'teuer']",3,1.2369763001333922,None,,,,,,,,,,,,,,,,,,,,,,,,,,,,,,,,,,,,,,,,,,,,,,,,,,,,,,,,,,,,,,,,,,,,,1,2023-12-06_13h58.28.698,watkins1,2023.2.3,99.7386846535348,49,2023-12-06 13h58.34.349332 +0000,
,,,,,,,2,0,2,0,,,,,,,,,,,,,,,,,76.78841129993089,,,,,,,,,,76.77942739985883,77.2707298998721,,,1,1.8274601998273283,,,,,,,,,,,,,,,,,,,,,77.27074089995585,83.27776809991337,Trommel,schlicht,"['Trommel', 'schlicht']",restudy_diff,1,"['Bürste', 'Rucksack', 'Trommel', 'Buch', 'Vase', 'Socke', 'Kiste', 'Flasche', 'Eimer', 'Tasse', 'Geige', 'Tasche', 'Stift', 'Kamera', 'Telefon', 'Fahrrad', 'Lampe', 'Kette', 'Brille', 'Hammer', 'Kerze', 'Blume']","['hässlich', 'teuer', 'schlicht']",1,1.8274601998273283,None,,,,,,,,,,,,,,,,,,,,,,,,,,,,,,,,,,,,,,,,,,,,,,,,,,,,,,,,,,,,,,,,,,,,,1,2023-12-06_13h58.28.698,watkins1,2023.2.3,99.7386846535348,49,2023-12-06 13h58.34.349332 +0000,
,,,,,,,3,0,3,0,,,,,,,,,,,,,,,,,83.28716429998167,,,,,,,,,,83.27825059997849,83.76927439984865,,,1,2.584886899916455,,,,,,,,,,,,,,,,,,,,,83.76928569981828,89.7725318998564,Buch,robust,"['Buch', 'robust']",control,1,"['Bürste', 'Rucksack', 'Trommel', 'Buch', 'Vase', 'Socke', 'Kiste', 'Flasche', 'Eimer', 'Tasse', 'Geige', 'Tasche', 'Stift', 'Kamera', 'Telefon', 'Fahrrad', 'Lampe', 'Kette', 'Brille', 'Hammer', 'Kerze', 'Blume']","['hässlich', 'teuer', 'schlicht', 'robust']",1,2.584886899916455,None,,,,,,,,,,,,,,,,,,,,,,,,,,,,,,,,,,,,,,,,,,,,,,,,,,,,,,,,,,,,,,,,,,,,,1,2023-12-06_13h58.28.698,watkins1,2023.2.3,99.7386846535348,49,2023-12-06 13h58.34.349332 +0000,
,,,,,,,4,0,4,0,,,,,,,,,,,,,,,,,89.78196199983358,,,,,,,,,,89.77299849991687,90.26444399985485,,,1,1.2257342000957578,,,,,,,,,,,,,,,,,,,,,90.26445509982295,96.26637779991142,Vase,sportlich,"['Vase', 'sportlich']",control,1,"['Bürste', 'Rucksack', 'Trommel', 'Buch', 'Vase', 'Socke', 'Kiste', 'Flasche', 'Eimer', 'Tasse', 'Geige', 'Tasche', 'Stift', 'Kamera', 'Telefon', 'Fahrrad', 'Lampe', 'Kette', 'Brille', 'Hammer', 'Kerze', 'Blume']","['hässlich', 'teuer', 'schlicht', 'robust', 'sportlich']",1,1.2257342000957578,None,,,,,,,,,,,,,,,,,,,,,,,,,,,,,,,,,,,,,,,,,,,,,,,,,,,,,,,,,,,,,,,,,,,,,1,2023-12-06_13h58.28.698,watkins1,2023.2.3,99.7386846535348,49,2023-12-06 13h58.34.349332 +0000,
,,,,,,,5,0,5,0,,,,,,,,,,,,,,,,,96.27581999986432,,,,,,,,,,96.26687059993856,96.7579037998803,,,3,1.476919500157237,,,,,,,,,,,,,,,,,,,,,96.75791469984688,102.75953439995646,Socke,sauber,"['Socke', 'sauber']",restudy_diff,1,"['Bürste', 'Rucksack', 'Trommel', 'Buch', 'Vase', 'Socke', 'Kiste', 'Flasche', 'Eimer', 'Tasse', 'Geige', 'Tasche', 'Stift', 'Kamera', 'Telefon', 'Fahrrad', 'Lampe', 'Kette', 'Brille', 'Hammer', 'Kerze', 'Blume']","['hässlich', 'teuer', 'schlicht', 'robust', 'sportlich', 'sauber']",3,1.476919500157237,None,,,,,,,,,,,,,,,,,,,,,,,,,,,,,,,,,,,,,,,,,,,,,,,,,,,,,,,,,,,,,,,,,,,,,1,2023-12-06_13h58.28.698,watkins1,2023.2.3,99.7386846535348,49,2023-12-06 13h58.34.349332 +0000,
,,,,,,,6,0,6,0,,,,,,,,,,,,,,,,,102.76900979992934,,,,,,,,,,102.76009999983944,103.25111409998499,,,2,3.0954051001463085,,,,,,,,,,,,,,,,,,,,,103.25112499995157,109.25954449991696,Kiste,klobig,"['Kiste', 'klobig']",control,1,"['Bürste', 'Rucksack', 'Trommel', 'Buch', 'Vase', 'Socke', 'Kiste', 'Flasche', 'Eimer', 'Tasse', 'Geige', 'Tasche', 'Stift', 'Kamera', 'Telefon', 'Fahrrad', 'Lampe', 'Kette', 'Brille', 'Hammer', 'Kerze', 'Blume']","['hässlich', 'teuer', 'schlicht', 'robust', 'sportlich', 'sauber', 'klobig']",2,3.0954051001463085,None,,,,,,,,,,,,,,,,,,,,,,,,,,,,,,,,,,,,,,,,,,,,,,,,,,,,,,,,,,,,,,,,,,,,,1,2023-12-06_13h58.28.698,watkins1,2023.2.3,99.7386846535348,49,2023-12-06 13h58.34.349332 +0000,
,,,,,,,7,0,7,0,,,,,,,,,,,,,,,,,109.26908929995261,,,,,,,,,,109.26001570001245,109.75113749993034,,,3,1.4114268000703305,,,,,,,,,,,,,,,,,,,,,109.75114839989692,115.75984489987604,Flasche,bunt,"['Flasche', 'bunt']",restudy_diff,1,"['Bürste', 'Rucksack', 'Trommel', 'Buch', 'Vase', 'Socke', 'Kiste', 'Flasche', 'Eimer', 'Tasse', 'Geige', 'Tasche', 'Stift', 'Kamera', 'Telefon', 'Fahrrad', 'Lampe', 'Kette', 'Brille', 'Hammer', 'Kerze', 'Blume']","['hässlich', 'teuer', 'schlicht', 'robust', 'sportlich', 'sauber', 'klobig', 'bunt']",3,1.4114268000703305,None,,,,,,,,,,,,,,,,,,,,,,,,,,,,,,,,,,,,,,,,,,,,,,,,,,,,,,,,,,,,,,,,,,,,,1,2023-12-06_13h58.28.698,watkins1,2023.2.3,99.7386846535348,49,2023-12-06 13h58.34.349332 +0000,
,,,,,,,8,0,8,0,,,,,,,,,,,,,,,,,115.76928549981676,,,,,,,,,,115.76032299990766,116.25124959996901,,,1,1.2549765999428928,,,,,,,,,,,,,,,,,,,,,116.25126029993407,122.25792169990018,Eimer,strahlend,"['Eimer', 'strahlend']",control,1,"['Bürste', 'Rucksack', 'Trommel', 'Buch', 'Vase', 'Socke', 'Kiste', 'Flasche', 'Eimer', 'Tasse', 'Geige', 'Tasche', 'Stift', 'Kamera', 'Telefon', 'Fahrrad', 'Lampe', 'Kette', 'Brille', 'Hammer', 'Kerze', 'Blume']","['hässlich', 'teuer', 'schlicht', 'robust', 'sportlich', 'sauber', 'klobig', 'bunt', 'strahlend']",1,1.2549765999428928,None,,,,,,,,,,,,,,,,,,,,,,,,,,,,,,,,,,,,,,,,,,,,,,,,,,,,,,,,,,,,,,,,,,,,,1,2023-12-06_13h58.28.698,watkins1,2023.2.3,99.7386846535348,49,2023-12-06 13h58.34.349332 +0000,
,,,,,,,9,0,9,0,,,,,,,,,,,,,,,,,122.26727079995908,,,,,,,,,,122.258398699807,122.74926269985735,,,3,1.8773610999342054,,,,,,,,,,,,,,,,,,,,,122.74927369994111,128.7511344999075,Tasse,gestreift,"['Tasse', 'gestreift']",restudy_diff,1,"['Bürste', 'Rucksack', 'Trommel', 'Buch', 'Vase', 'Socke', 'Kiste', 'Flasche', 'Eimer', 'Tasse', 'Geige', 'Tasche', 'Stift', 'Kamera', 'Telefon', 'Fahrrad', 'Lampe', 'Kette', 'Brille', 'Hammer', 'Kerze', 'Blume']","['hässlich', 'teuer', 'schlicht', 'robust', 'sportlich', 'sauber', 'klobig', 'bunt', 'strahlend', 'gestreift']",3,1.8773610999342054,None,,,,,,,,,,,,,,,,,,,,,,,,,,,,,,,,,,,,,,,,,,,,,,,,,,,,,,,,,,,,,,,,,,,,,1,2023-12-06_13h58.28.698,watkins1,2023.2.3,99.7386846535348,49,2023-12-06 13h58.34.349332 +0000,
,,,,,,,10,0,10,0,,,,,,,,,,,,,,,,,128.760590699967,,,,,,,,,,128.75159659981728,129.24243779992685,,,2,2.208248100010678,,,,,,,,,,,,,,,,,,,,,129.24244889989495,135.24697939981706,Geige,gut,"['Geige', 'gut']",restudy_diff,1,"['Bürste', 'Rucksack', 'Trommel', 'Buch', 'Vase', 'Socke', 'Kiste', 'Flasche', 'Eimer', 'Tasse', 'Geige', 'Tasche', 'Stift', 'Kamera', 'Telefon', 'Fahrrad', 'Lampe', 'Kette', 'Brille', 'Hammer', 'Kerze', 'Blume']","['hässlich', 'teuer', 'schlicht', 'robust', 'sportlich', 'sauber', 'klobig', 'bunt', 'strahlend', 'gestreift', 'gut']",2,2.208248100010678,None,,,,,,,,,,,,,,,,,,,,,,,,,,,,,,,,,,,,,,,,,,,,,,,,,,,,,,,,,,,,,,,,,,,,,1,2023-12-06_13h58.28.698,watkins1,2023.2.3,99.7386846535348,49,2023-12-06 13h58.34.349332 +0000,
,,,,,,,11,0,11,0,,,,,,,,,,,,,,,,,135.25644919998012,,,,,,,,,,135.24745339993387,135.73848439985886,,,1,2.1522650998085737,,,,,,,,,,,,,,,,,,,,,135.73849479993805,141.74545329995453,Tasche,kratzig,"['Tasche', 'kratzig']",restudy_diff,1,"['Bürste', 'Rucksack', 'Trommel', 'Buch', 'Vase', 'Socke', 'Kiste', 'Flasche', 'Eimer', 'Tasse', 'Geige', 'Tasche', 'Stift', 'Kamera', 'Telefon', 'Fahrrad', 'Lampe', 'Kette', 'Brille', 'Hammer', 'Kerze', 'Blume']","['hässlich', 'teuer', 'schlicht', 'robust', 'sportlich', 'sauber', 'klobig', 'bunt', 'strahlend', 'gestreift', 'gut', 'kratzig']",1,2.1522650998085737,None,,,,,,,,,,,,,,,,,,,,,,,,,,,,,,,,,,,,,,,,,,,,,,,,,,,,,,,,,,,,,,,,,,,,,1,2023-12-06_13h58.28.698,watkins1,2023.2.3,99.7386846535348,49,2023-12-06 13h58.34.349332 +0000,
,,,,,,,12,0,12,0,,,,,,,,,,,,,,,,,141.75497699994594,,,,,,,,,,141.74593039997853,142.23692249995656,,,1,1.702521299943328,,,,,,,,,,,,,,,,,,,,,142.23693369980901,148.24628429999575,Stift,niedlich,"['Stift', 'niedlich']",control,1,"['Bürste', 'Rucksack', 'Trommel', 'Buch', 'Vase', 'Socke', 'Kiste', 'Flasche', 'Eimer', 'Tasse', 'Geige', 'Tasche', 'Stift', 'Kamera', 'Telefon', 'Fahrrad', 'Lampe', 'Kette', 'Brille', 'Hammer', 'Kerze', 'Blume']","['hässlich', 'teuer', 'schlicht', 'robust', 'sportlich', 'sauber', 'klobig', 'bunt', 'strahlend', 'gestreift', 'gut', 'kratzig', 'niedlich']",1,1.702521299943328,None,,,,,,,,,,,,,,,,,,,,,,,,,,,,,,,,,,,,,,,,,,,,,,,,,,,,,,,,,,,,,,,,,,,,,1,2023-12-06_13h58.28.698,watkins1,2023.2.3,99.7386846535348,49,2023-12-06 13h58.34.349332 +0000,
,,,,,,,13,0,13,0,,,,,,,,,,,,,,,,,148.25582239986397,,,,,,,,,,148.24676160002127,148.7378837999422,,,2,2.361707900185138,,,,,,,,,,,,,,,,,,,,,148.73789479979314,154.74151829979382,Kamera,breit,"['Kamera', 'breit']",restudy_diff,1,"['Bürste', 'Rucksack', 'Trommel', 'Buch', 'Vase', 'Socke', 'Kiste', 'Flasche', 'Eimer', 'Tasse', 'Geige', 'Tasche', 'Stift', 'Kamera', 'Telefon', 'Fahrrad', 'Lampe', 'Kette', 'Brille', 'Hammer', 'Kerze', 'Blume']","['hässlich', 'teuer', 'schlicht', 'robust', 'sportlich', 'sauber', 'klobig', 'bunt', 'strahlend', 'gestreift', 'gut', 'kratzig', 'niedlich', 'breit']",2,2.361707900185138,None,,,,,,,,,,,,,,,,,,,,,,,,,,,,,,,,,,,,,,,,,,,,,,,,,,,,,,,,,,,,,,,,,,,,,1,2023-12-06_13h58.28.698,watkins1,2023.2.3,99.7386846535348,49,2023-12-06 13h58.34.349332 +0000,
,,,,,,,14,0,14,0,,,,,,,,,,,,,,,,,154.7510702998843,,,,,,,,,,154.7419962999411,155.23302980000153,,,1,1.0904210999142379,,,,,,,,,,,,,,,,,,,,,155.23304029996507,161.23646039981395,Telefon,glatt,"['Telefon', 'glatt']",restudy_diff,1,"['Bürste', 'Rucksack', 'Trommel', 'Buch', 'Vase', 'Socke', 'Kiste', 'Flasche', 'Eimer', 'Tasse', 'Geige', 'Tasche', 'Stift', 'Kamera', 'Telefon', 'Fahrrad', 'Lampe', 'Kette', 'Brille', 'Hammer', 'Kerze', 'Blume']","['hässlich', 'teuer', 'schlicht', 'robust', 'sportlich', 'sauber', 'klobig', 'bunt', 'strahlend', 'gestreift', 'gut', 'kratzig', 'niedlich', 'breit', 'glatt']",1,1.0904210999142379,None,,,,,,,,,,,,,,,,,,,,,,,,,,,,,,,,,,,,,,,,,,,,,,,,,,,,,,,,,,,,,,,,,,,,,1,2023-12-06_13h58.28.698,watkins1,2023.2.3,99.7386846535348,49,2023-12-06 13h58.34.349332 +0000,
,,,,,,,15,0,15,0,,,,,,,,,,,,,,,,,161.2459340998903,,,,,,,,,,161.23692489997484,161.72811019979417,,,1,3.1395109000150114,,,,,,,,,,,,,,,,,,,,,161.72812069999054,167.73133499990217,Fahrrad,kalt,"['Fahrrad', 'kalt']",restudy_diff,1,"['Bürste', 'Rucksack', 'Trommel', 'Buch', 'Vase', 'Socke', 'Kiste', 'Flasche', 'Eimer', 'Tasse', 'Geige', 'Tasche', 'Stift', 'Kamera', 'Telefon', 'Fahrrad', 'Lampe', 'Kette', 'Brille', 'Hammer', 'Kerze', 'Blume']","['hässlich', 'teuer', 'schlicht', 'robust', 'sportlich', 'sauber', 'klobig', 'bunt', 'strahlend', 'gestreift', 'gut', 'kratzig', 'niedlich', 'breit', 'glatt', 'kalt']",1,3.1395109000150114,None,,,,,,,,,,,,,,,,,,,,,,,,,,,,,,,,,,,,,,,,,,,,,,,,,,,,,,,,,,,,,,,,,,,,,1,2023-12-06_13h58.28.698,watkins1,2023.2.3,99.7386846535348,49,2023-12-06 13h58.34.349332 +0000,
,,,,,,,16,0,16,0,,,,,,,,,,,,,,,,,167.74078859994188,,,,,,,,,,167.73180439998396,168.22276249993593,,,1,2.1397414999082685,,,,,,,,,,,,,,,,,,,,,168.22277330001816,174.22356339986436,Lampe,dunkel,"['Lampe', 'dunkel']",control,1,"['Bürste', 'Rucksack', 'Trommel', 'Buch', 'Vase', 'Socke', 'Kiste', 'Flasche', 'Eimer', 'Tasse', 'Geige', 'Tasche', 'Stift', 'Kamera', 'Telefon', 'Fahrrad', 'Lampe', 'Kette', 'Brille', 'Hammer', 'Kerze', 'Blume']","['hässlich', 'teuer', 'schlicht', 'robust', 'sportlich', 'sauber', 'klobig', 'bunt', 'strahlend', 'gestreift', 'gut', 'kratzig', 'niedlich', 'breit', 'glatt', 'kalt', 'dunkel']",1,2.1397414999082685,None,,,,,,,,,,,,,,,,,,,,,,,,,,,,,,,,,,,,,,,,,,,,,,,,,,,,,,,,,,,,,,,,,,,,,1,2023-12-06_13h58.28.698,watkins1,2023.2.3,99.7386846535348,49,2023-12-06 13h58.34.349332 +0000,
,,,,,,,17,0,17,0,,,,,,,,,,,,,,,,,174.2330530998297,,,,,,,,,,174.2240354998503,174.71516419993713,,,1,4.056175500154495,,,,,,,,,,,,,,,,,,,,,174.71517469990067,180.7184190999251,Kette,biegsam,"['Kette', 'biegsam']",restudy_diff,1,"['Bürste', 'Rucksack', 'Trommel', 'Buch', 'Vase', 'Socke', 'Kiste', 'Flasche', 'Eimer', 'Tasse', 'Geige', 'Tasche', 'Stift', 'Kamera', 'Telefon', 'Fahrrad', 'Lampe', 'Kette', 'Brille', 'Hammer', 'Kerze', 'Blume']","['hässlich', 'teuer', 'schlicht', 'robust', 'sportlich', 'sauber', 'klobig', 'bunt', 'strahlend', 'gestreift', 'gut', 'kratzig', 'niedlich', 'breit', 'glatt', 'kalt', 'dunkel', 'biegsam']",1,4.056175500154495,None,,,,,,,,,,,,,,,,,,,,,,,,,,,,,,,,,,,,,,,,,,,,,,,,,,,,,,,,,,,,,,,,,,,,,1,2023-12-06_13h58.28.698,watkins1,2023.2.3,99.7386846535348,49,2023-12-06 13h58.34.349332 +0000,
,,,,,,,18,0,18,0,,,,,,,,,,,,,,,,,180.727864400018,,,,,,,,,,180.7188893998973,181.20990969985723,,,2,2.7216419000178576,,,,,,,,,,,,,,,,,,,,,181.2099214999471,187.22038289997727,Brille,lang,"['Brille', 'lang']",restudy_diff,1,"['Bürste', 'Rucksack', 'Trommel', 'Buch', 'Vase', 'Socke', 'Kiste', 'Flasche', 'Eimer', 'Tasse', 'Geige', 'Tasche', 'Stift', 'Kamera', 'Telefon', 'Fahrrad', 'Lampe', 'Kette', 'Brille', 'Hammer', 'Kerze', 'Blume']","['hässlich', 'teuer', 'schlicht', 'robust', 'sportlich', 'sauber', 'klobig', 'bunt', 'strahlend', 'gestreift', 'gut', 'kratzig', 'niedlich', 'breit', 'glatt', 'kalt', 'dunkel', 'biegsam', 'lang']",2,2.7216419000178576,None,,,,,,,,,,,,,,,,,,,,,,,,,,,,,,,,,,,,,,,,,,,,,,,,,,,,,,,,,,,,,,,,,,,,,1,2023-12-06_13h58.28.698,watkins1,2023.2.3,99.7386846535348,49,2023-12-06 13h58.34.349332 +0000,
,,,,,,,19,0,19,0,,,,,,,,,,,,,,,,,187.22992909979075,,,,,,,,,,187.2208634999115,187.7119944000151,,,1,1.7461909998673946,,,,,,,,,,,,,,,,,,,,,187.71200489997864,193.71313169994392,Hammer,krumm,"['Hammer', 'krumm']",restudy_diff,1,"['Bürste', 'Rucksack', 'Trommel', 'Buch', 'Vase', 'Socke', 'Kiste', 'Flasche', 'Eimer', 'Tasse', 'Geige', 'Tasche', 'Stift', 'Kamera', 'Telefon', 'Fahrrad', 'Lampe', 'Kette', 'Brille', 'Hammer', 'Kerze', 'Blume']","['hässlich', 'teuer', 'schlicht', 'robust', 'sportlich', 'sauber', 'klobig', 'bunt', 'strahlend', 'gestreift', 'gut', 'kratzig', 'niedlich', 'breit', 'glatt', 'kalt', 'dunkel', 'biegsam', 'lang', 'krumm']",1,1.7461909998673946,None,,,,,,,,,,,,,,,,,,,,,,,,,,,,,,,,,,,,,,,,,,,,,,,,,,,,,,,,,,,,,,,,,,,,,1,2023-12-06_13h58.28.698,watkins1,2023.2.3,99.7386846535348,49,2023-12-06 13h58.34.349332 +0000,
,,,,,,,20,0,20,0,,,,,,,,,,,,,,,,,193.7226732999552,,,,,,,,,,193.71361769991927,194.2046935998369,,,3,2.4538978000637144,,,,,,,,,,,,,,,,,,,,,194.20470459992066,200.20906629995443,Kerze,schwer,"['Kerze', 'schwer']",control,1,"['Bürste', 'Rucksack', 'Trommel', 'Buch', 'Vase', 'Socke', 'Kiste', 'Flasche', 'Eimer', 'Tasse', 'Geige', 'Tasche', 'Stift', 'Kamera', 'Telefon', 'Fahrrad', 'Lampe', 'Kette', 'Brille', 'Hammer', 'Kerze', 'Blume']","['hässlich', 'teuer', 'schlicht', 'robust', 'sportlich', 'sauber', 'klobig', 'bunt', 'strahlend', 'gestreift', 'gut', 'kratzig', 'niedlich', 'breit', 'glatt', 'kalt', 'dunkel', 'biegsam', 'lang', 'krumm', 'schwer']",3,2.4538978000637144,None,,,,,,,,,,,,,,,,,,,,,,,,,,,,,,,,,,,,,,,,,,,,,,,,,,,,,,,,,,,,,,,,,,,,,1,2023-12-06_13h58.28.698,watkins1,2023.2.3,99.7386846535348,49,2023-12-06 13h58.34.349332 +0000,
,,,,,,,21,0,21,0,,,,,,,,,,,,,,,,,200.21852969983593,,,,,,,,,,200.20955309993587,200.70055429986678,,,1,1.1669384001288563,,,,,,,,,,,,,,,,,,,,,200.70056479983032,206.70919399987906,Blume,matt,"['Blume', 'matt']",restudy_diff,1,"['Bürste', 'Rucksack', 'Trommel', 'Buch', 'Vase', 'Socke', 'Kiste', 'Flasche', 'Eimer', 'Tasse', 'Geige', 'Tasche', 'Stift', 'Kamera', 'Telefon', 'Fahrrad', 'Lampe', 'Kette', 'Brille', 'Hammer', 'Kerze', 'Blume']","['hässlich', 'teuer', 'schlicht', 'robust', 'sportlich', 'sauber', 'klobig', 'bunt', 'strahlend', 'gestreift', 'gut', 'kratzig', 'niedlich', 'breit', 'glatt', 'kalt', 'dunkel', 'biegsam', 'lang', 'krumm', 'schwer', 'matt']",1,1.1669384001288563,None,,,,,,,,,,,,,,,,,,,,,,,,,,,,,,,,,,,,,,,,,,,,,,,,,,,,,,,,,,,,,,,,,,,,,1,2023-12-06_13h58.28.698,watkins1,2023.2.3,99.7386846535348,49,2023-12-06 13h58.34.349332 +0000,
,,,,,,,,,,,0,0,0,0,,,,,,,,,,,,,206.7187173999846,,,,,,,,,,206.7100256998092,207.2007617999334,,,1,1.8848664001561701,,,,,,,,,,,,None,None,,,,,,,,,,Flasche,flach,"['Flasche', 'flach']",restudy_diff,1,,,,,,206.70994939981028,206.7099995999597,"['Flasche', 'Telefon', 'Tasse', 'Schlüssel', 'Uhr', 'Geige', 'Kamera', 'Socke', 'Kette', 'Fahrrad', 'Löffel', 'Bürste', 'Würfel', 'Tasche', 'Hammer', 'Blume', 'Trommel', 'Ring', 'Brille', 'Hut', 'Schere', 'Rucksack', 'Jacke']",207.20077309990302,207.20333809987642,None,207.2035106997937,207.2059706998989,None,207.20612109987997,213.2109242998995,1,1.8848664001561701,None,213.21131219994277,213.21272849990055,213.21274149999954,213.21387279988267,,,,,,,,,,,,,,,,,,,,,,,,,,,,,,,,,,,,,,,,,,,,,,,,,,,1,2023-12-06_13h58.28.698,watkins1,2023.2.3,99.7386846535348,49,2023-12-06 13h58.34.349332 +0000,
,,,,,,,,,,,1,0,1,0,,,,,,,,,,,,,213.22049420000985,,,,,,,,,,213.21414029994048,213.71268369979225,,,1,1.8054444000590593,,,,,,,,,,,,None,None,,,,,,,,,,Telefon,lustig,"['Telefon', 'lustig']",restudy_diff,1,,,,,,213.21407289989293,213.2141135998536,"['Flasche', 'Telefon', 'Tasse', 'Schlüssel', 'Uhr', 'Geige', 'Kamera', 'Socke', 'Kette', 'Fahrrad', 'Löffel', 'Bürste', 'Würfel', 'Tasche', 'Hammer', 'Blume', 'Trommel', 'Ring', 'Brille', 'Hut', 'Schere', 'Rucksack', 'Jacke']",213.71269459999166,213.71537119988352,None,213.7155158999376,213.71806839993224,None,213.71817129990086,219.72175089991651,1,1.8054444000590593,None,219.72202320001088,219.72334309993312,219.72335599991493,219.72454189998098,,,,,,,,,,,,,,,,,,,,,,,,,,,,,,,,,,,,,,,,,,,,,,,,,,,1,2023-12-06_13h58.28.698,watkins1,2023.2.3,99.7386846535348,49,2023-12-06 13h58.34.349332 +0000,
,,,,,,,,,,,2,0,2,0,,,,,,,,,,,,,219.7312321998179,,,,,,,,,,219.72480929992162,220.2233309999574,,,3,1.559021799825132,,,,,,,,,,,,None,None,,,,,,,,,,Tasse,praktisch,"['Tasse', 'praktisch']",restudy_diff,1,,,,,,219.72474480001256,219.72478219983168,"['Flasche', 'Telefon', 'Tasse', 'Schlüssel', 'Uhr', 'Geige', 'Kamera', 'Socke', 'Kette', 'Fahrrad', 'Löffel', 'Bürste', 'Würfel', 'Tasche', 'Hammer', 'Blume', 'Trommel', 'Ring', 'Brille', 'Hut', 'Schere', 'Rucksack', 'Jacke']",220.22334189992398,220.22610829980113,None,220.22622359986417,220.22874219994992,None,220.22884529992007,226.2332031999249,3,1.559021799825132,None,226.23347709979862,226.23477400001138,226.23478589998558,226.23603559983894,,,,,,,,,,,,,,,,,,,,,,,,,,,,,,,,,,,,,,,,,,,,,,,,,,,1,2023-12-06_13h58.28.698,watkins1,2023.2.3,99.7386846535348,49,2023-12-06 13h58.34.349332 +0000,
,,,,,,,,,,,3,0,3,0,,,,,,,,,,,,,226.24271749984473,,,,,,,,,,226.23630439979024,226.7348105998244,,,[],[],,,,,,,,,,,,None,None,,,,,,,,,,Schlüssel,gepunktet,"['Schlüssel', 'gepunktet']",control,1,,,,,,226.2362393999938,226.2362768999301,"['Flasche', 'Telefon', 'Tasse', 'Schlüssel', 'Uhr', 'Geige', 'Kamera', 'Socke', 'Kette', 'Fahrrad', 'Löffel', 'Bürste', 'Würfel', 'Tasche', 'Hammer', 'Blume', 'Trommel', 'Ring', 'Brille', 'Hut', 'Schere', 'Rucksack', 'Jacke']",226.73482119990513,232.73587129986845,2,232.73622229998,232.73909559985623,None,232.73920009983703,232.74186660000123,None,,,232.74196919985116,232.7433418999426,232.7433537999168,232.74460510001518,3.115500000072643,None,,,,,,,,,,,,,,,,,,,,,,,,,,,,,,,,,,,,,,,,,,,,,,,,,1,2023-12-06_13h58.28.698,watkins1,2023.2.3,99.7386846535348,49,2023-12-06 13h58.34.349332 +0000,
,,,,,,,,,,,4,0,4,0,,,,,,,,,,,,,232.74790599988773,,,,,,,,,,232.74487679987215,233.24210319994017,,,[],[],,,,,,,,,,,,None,None,,,,,,,,,,Uhr,blass,"['Uhr', 'blass']",control,1,,,,,,232.74481099983677,232.74485099990852,"['Flasche', 'Telefon', 'Tasse', 'Schlüssel', 'Uhr', 'Geige', 'Kamera', 'Socke', 'Kette', 'Fahrrad', 'Löffel', 'Bürste', 'Würfel', 'Tasche', 'Hammer', 'Blume', 'Trommel', 'Ring', 'Brille', 'Hut', 'Schere', 'Rucksack', 'Jacke']",233.24211409990676,239.25130329979584,1,239.2515887999907,239.25417199986987,None,239.25427919998765,239.25673519982956,None,,,239.25683999992907,239.2582439999096,239.25825609988533,239.25943809980527,1.3526031000074,None,,,,,,,,,,,,,,,,,,,,,,,,,,,,,,,,,,,,,,,,,,,,,,,,,1,2023-12-06_13h58.28.698,watkins1,2023.2.3,99.7386846535348,49,2023-12-06 13h58.34.349332 +0000,
,,,,,,,,,,,5,0,5,0,,,,,,,,,,,,,239.26316739991307,,,,,,,,,,239.25971919996664,239.75692569999956,,,2,1.9224582000169903,,,,,,,,,,,,None,None,,,,,,,,,,Geige,groß,"['Geige', 'groß']",restudy_diff,1,,,,,,239.25965059990995,239.25969259999692,"['Flasche', 'Telefon', 'Tasse', 'Schlüssel', 'Uhr', 'Geige', 'Kamera', 'Socke', 'Kette', 'Fahrrad', 'Löffel', 'Bürste', 'Würfel', 'Tasche', 'Hammer', 'Blume', 'Trommel', 'Ring', 'Brille', 'Hut', 'Schere', 'Rucksack', 'Jacke']",239.756936899852,239.75851499987766,None,239.7586325998418,239.76006379979663,None,239.76016629999503,245.76703559979796,2,1.9224582000169903,None,245.7673080000095,245.76867139991373,245.76868349988945,245.76971459994093,,,,,,,,,,,,,,,,,,,,,,,,,,,,,,,,,,,,,,,,,,,,,,,,,,,1,2023-12-06_13h58.28.698,watkins1,2023.2.3,99.7386846535348,49,2023-12-06 13h58.34.349332 +0000,
,,,,,,,,,,,6,0,6,0,,,,,,,,,,,,,245.7764870999381,,,,,,,,,,245.76997789996676,246.2686178998556,,,3,1.4015011000446975,,,,,,,,,,,,None,None,,,,,,,,,,Kamera,glänzend,"['Kamera', 'glänzend']",restudy_diff,1,,,,,,245.76991559984162,245.76995310001075,"['Flasche', 'Telefon', 'Tasse', 'Schlüssel', 'Uhr', 'Geige', 'Kamera', 'Socke', 'Kette', 'Fahrrad', 'Löffel', 'Bürste', 'Würfel', 'Tasche', 'Hammer', 'Blume', 'Trommel', 'Ring', 'Brille', 'Hut', 'Schere', 'Rucksack', 'Jacke']",246.26862919982523,246.27123399986885,None,246.271351599833,246.27379639982246,None,246.27389959990978,252.27975749992765,3,1.4015011000446975,None,252.28004129999317,252.28142759995535,252.28143939981237,252.2826514998451,,,,,,,,,,,,,,,,,,,,,,,,,,,,,,,,,,,,,,,,,,,,,,,,,,,1,2023-12-06_13h58.28.698,watkins1,2023.2.3,99.7386846535348,49,2023-12-06 13h58.34.349332 +0000,
,,,,,,,,,,,7,0,7,0,,,,,,,,,,,,,252.28918690001592,,,,,,,,,,252.28291499987245,252.7812302999664,,,3,1.2087588999420404,,,,,,,,,,,,None,None,,,,,,,,,,Socke,schmutzig,"['Socke', 'schmutzig']",restudy_diff,1,,,,,,252.28285209997557,252.28288969979621,"['Flasche', 'Telefon', 'Tasse', 'Schlüssel', 'Uhr', 'Geige', 'Kamera', 'Socke', 'Kette', 'Fahrrad', 'Löffel', 'Bürste', 'Würfel', 'Tasche', 'Hammer', 'Blume', 'Trommel', 'Ring', 'Brille', 'Hut', 'Schere', 'Rucksack', 'Jacke']",252.78124149981886,252.78395839990117,None,252.78407749999315,252.78663799981587,None,252.78674289979972,258.79401209997013,3,1.2087588999420404,None,258.79428679984994,258.7956655998714,258.79567789984867,258.79694289993495,,,,,,,,,,,,,,,,,,,,,,,,,,,,,,,,,,,,,,,,,,,,,,,,,,,1,2023-12-06_13h58.28.698,watkins1,2023.2.3,99.7386846535348,49,2023-12-06 13h58.34.349332 +0000,
,,,,,,,,,,,8,0,8,0,,,,,,,,,,,,,258.8035171998199,,,,,,,,,,258.7972102998756,259.29558119992726,,,3,0.9421950001269579,,,,,,,,,,,,None,None,,,,,,,,,,Kette,neu,"['Kette', 'neu']",restudy_diff,1,,,,,,258.79714649985544,258.79718449991196,"['Flasche', 'Telefon', 'Tasse', 'Schlüssel', 'Uhr', 'Geige', 'Kamera', 'Socke', 'Kette', 'Fahrrad', 'Löffel', 'Bürste', 'Würfel', 'Tasche', 'Hammer', 'Blume', 'Trommel', 'Ring', 'Brille', 'Hut', 'Schere', 'Rucksack', 'Jacke']",259.295592200011,259.2986443999689,None,259.29876159993,259.30138810002245,None,259.3014938000124,265.30222119996324,3,0.9421950001269579,None,265.3025262998417,265.30379989999346,265.3038116998505,265.30512539995834,,,,,,,,,,,,,,,,,,,,,,,,,,,,,,,,,,,,,,,,,,,,,,,,,,,1,2023-12-06_13h58.28.698,watkins1,2023.2.3,99.7386846535348,49,2023-12-06 13h58.34.349332 +0000,
,,,,,,,,,,,9,0,9,0,,,,,,,,,,,,,265.31173709989525,,,,,,,,,,265.3053896999918,265.803989399923,,,1,1.5061589998658746,,,,,,,,,,,,None,None,,,,,,,,,,Fahrrad,kurz,"['Fahrrad', 'kurz']",restudy_diff,1,,,,,,265.3053270999808,265.30536419991404,"['Flasche', 'Telefon', 'Tasse', 'Schlüssel', 'Uhr', 'Geige', 'Kamera', 'Socke', 'Kette', 'Fahrrad', 'Löffel', 'Bürste', 'Würfel', 'Tasche', 'Hammer', 'Blume', 'Trommel', 'Ring', 'Brille', 'Hut', 'Schere', 'Rucksack', 'Jacke']",265.8040010998957,265.80657029990107,None,265.80668749986216,265.8094565998763,None,265.80956279998645,271.81364779989235,1,1.5061589998658746,None,271.8139255999122,271.81523850001395,271.81525089987554,271.81635639979504,,,,,,,,,,,,,,,,,,,,,,,,,,,,,,,,,,,,,,,,,,,,,,,,,,,1,2023-12-06_13h58.28.698,watkins1,2023.2.3,99.7386846535348,49,2023-12-06 13h58.34.349332 +0000,
,,,,,,,,,,,10,0,10,0,,,,,,,,,,,,,271.82315259985626,,,,,,,,,,271.81663759984076,272.3152265998069,,,[],[],,,,,,,,,,,,None,None,,,,,,,,,,Löffel,nachhaltig,"['Löffel', 'nachhaltig']",control,1,,,,,,271.81656929990277,271.81661029998213,"['Flasche', 'Telefon', 'Tasse', 'Schlüssel', 'Uhr', 'Geige', 'Kamera', 'Socke', 'Kette', 'Fahrrad', 'Löffel', 'Bürste', 'Würfel', 'Tasche', 'Hammer', 'Blume', 'Trommel', 'Ring', 'Brille', 'Hut', 'Schere', 'Rucksack', 'Jacke']",272.3152377998922,278.3240133000072,3,278.32429079990834,278.32708139996976,None,278.3271851998288,278.3298423998058,None,,,278.32994530000724,278.3311432998162,278.3311550000217,278.33241709996946,2.2631697000470012,None,,,,,,,,,,,,,,,,,,,,,,,,,,,,,,,,,,,,,,,,,,,,,,,,,1,2023-12-06_13h58.28.698,watkins1,2023.2.3,99.7386846535348,49,2023-12-06 13h58.34.349332 +0000,
,,,,,,,,,,,11,0,11,0,,,,,,,,,,,,,278.3360406998545,,,,,,,,,,278.3326857998036,278.82956149987876,,,2,4.682526499964297,,,,,,,,,,,,None,None,,,,,,,,,,Bürste,elegant,"['Bürste', 'elegant']",restudy_diff,1,,,,,,278.3326208998915,278.33266179985367,"['Flasche', 'Telefon', 'Tasse', 'Schlüssel', 'Uhr', 'Geige', 'Kamera', 'Socke', 'Kette', 'Fahrrad', 'Löffel', 'Bürste', 'Würfel', 'Tasche', 'Hammer', 'Blume', 'Trommel', 'Ring', 'Brille', 'Hut', 'Schere', 'Rucksack', 'Jacke']",278.8295724999625,278.8311660999898,None,278.8312834999524,278.83274819981307,None,278.8328515999019,284.8415219997987,2,4.682526499964297,None,284.84179420000874,284.84309989982285,284.84311179979704,284.8443297999911,,,,,,,,,,,,,,,,,,,,,,,,,,,,,,,,,,,,,,,,,,,,,,,,,,,1,2023-12-06_13h58.28.698,watkins1,2023.2.3,99.7386846535348,49,2023-12-06 13h58.34.349332 +0000,
,,,,,,,,,,,12,0,12,0,,,,,,,,,,,,,284.85105139994994,,,,,,,,,,284.84458969999105,285.3432578998618,,,[],[],,,,,,,,,,,,None,None,,,,,,,,,,Würfel,zart,"['Würfel', 'zart']",control,1,,,,,,284.84452699986286,284.84456399991177,"['Flasche', 'Telefon', 'Tasse', 'Schlüssel', 'Uhr', 'Geige', 'Kamera', 'Socke', 'Kette', 'Fahrrad', 'Löffel', 'Bürste', 'Würfel', 'Tasche', 'Hammer', 'Blume', 'Trommel', 'Ring', 'Brille', 'Hut', 'Schere', 'Rucksack', 'Jacke']",285.3432689998299,291.3467342997901,1,291.3470145999454,291.3495425998699,None,291.3496447999496,291.35201999987476,None,,,291.3521202998236,291.35333850001916,291.35335019999184,291.35437469999306,2.403159199981019,None,,,,,,,,,,,,,,,,,,,,,,,,,,,,,,,,,,,,,,,,,,,,,,,,,1,2023-12-06_13h58.28.698,watkins1,2023.2.3,99.7386846535348,49,2023-12-06 13h58.34.349332 +0000,
,,,,,,,,,,,13,0,13,0,,,,,,,,,,,,,291.35811269981787,,,,,,,,,,291.35464089992456,291.85128079983406,,,1,2.379595899954438,,,,,,,,,,,,None,None,,,,,,,,,,Tasche,verspielt,"['Tasche', 'verspielt']",restudy_diff,1,,,,,,291.3545786999166,291.3546171998605,"['Flasche', 'Telefon', 'Tasse', 'Schlüssel', 'Uhr', 'Geige', 'Kamera', 'Socke', 'Kette', 'Fahrrad', 'Löffel', 'Bürste', 'Würfel', 'Tasche', 'Hammer', 'Blume', 'Trommel', 'Ring', 'Brille', 'Hut', 'Schere', 'Rucksack', 'Jacke']",291.85129139991477,291.85321969981305,None,291.85333639988676,291.8547853999771,None,291.8548868999351,297.86392789985985,1,2.379595899954438,None,297.86420559999533,297.8655642999802,297.8655761999544,297.86682639992796,,,,,,,,,,,,,,,,,,,,,,,,,,,,,,,,,,,,,,,,,,,,,,,,,,,1,2023-12-06_13h58.28.698,watkins1,2023.2.3,99.7386846535348,49,2023-12-06 13h58.34.349332 +0000,
,,,,,,,,,,,14,0,14,0,,,,,,,,,,,,,297.87348159984685,,,,,,,,,,297.86709159985185,298.3656534999609,,,1,1.3920835999306291,,,,,,,,,,,,None,None,,,,,,,,,,Hammer,flauschig,"['Hammer', 'flauschig']",restudy_diff,1,,,,,,297.8670270999428,297.8670642999932,"['Flasche', 'Telefon', 'Tasse', 'Schlüssel', 'Uhr', 'Geige', 'Kamera', 'Socke', 'Kette', 'Fahrrad', 'Löffel', 'Bürste', 'Würfel', 'Tasche', 'Hammer', 'Blume', 'Trommel', 'Ring', 'Brille', 'Hut', 'Schere', 'Rucksack', 'Jacke']",298.36566419992596,298.3684355998412,None,298.368553499924,298.371300800005,None,298.37140279985033,304.375444999896,1,1.3920835999306291,None,304.3757385998033,304.37705929996446,304.37707199994475,304.3783489000052,,,,,,,,,,,,,,,,,,,,,,,,,,,,,,,,,,,,,,,,,,,,,,,,,,,1,2023-12-06_13h58.28.698,watkins1,2023.2.3,99.7386846535348,49,2023-12-06 13h58.34.349332 +0000,
,,,,,,,,,,,15,0,15,0,,,,,,,,,,,,,304.38492579991,,,,,,,,,,304.37861809995957,304.87699749995954,,,1,2.3285324999596924,,,,,,,,,,,,None,None,,,,,,,,,,Blume,rustikal,"['Blume', 'rustikal']",restudy_diff,1,,,,,,304.3785532999318,304.3785917998757,"['Flasche', 'Telefon', 'Tasse', 'Schlüssel', 'Uhr', 'Geige', 'Kamera', 'Socke', 'Kette', 'Fahrrad', 'Löffel', 'Bürste', 'Würfel', 'Tasche', 'Hammer', 'Blume', 'Trommel', 'Ring', 'Brille', 'Hut', 'Schere', 'Rucksack', 'Jacke']",304.8770083999261,304.8797175998334,None,304.8798309999984,304.8826931999065,None,304.8827986998949,310.8833351000212,1,2.3285324999596924,None,310.88361539994366,310.88491519982927,310.88492789980955,310.88620989979245,,,,,,,,,,,,,,,,,,,,,,,,,,,,,,,,,,,,,,,,,,,,,,,,,,,1,2023-12-06_13h58.28.698,watkins1,2023.2.3,99.7386846535348,49,2023-12-06 13h58.34.349332 +0000,
,,,,,,,,,,,16,0,16,0,,,,,,,,,,,,,310.89281179988757,,,,,,,,,,310.8864809998777,311.38481589988805,,,1,2.149188500130549,,,,,,,,,,,,None,None,,,,,,,,,,Trommel,dick,"['Trommel', 'dick']",restudy_diff,1,,,,,,310.8864167998545,310.88645499991253,"['Flasche', 'Telefon', 'Tasse', 'Schlüssel', 'Uhr', 'Geige', 'Kamera', 'Socke', 'Kette', 'Fahrrad', 'Löffel', 'Bürste', 'Würfel', 'Tasche', 'Hammer', 'Blume', 'Trommel', 'Ring', 'Brille', 'Hut', 'Schere', 'Rucksack', 'Jacke']",311.3848268999718,311.38756439997815,None,311.3876798998099,311.3904080998618,None,311.3905136999674,317.39713599998504,1,2.149188500130549,None,317.39740549982525,317.3987302999012,317.39874269999564,317.39977289992385,,,,,,,,,,,,,,,,,,,,,,,,,,,,,,,,,,,,,,,,,,,,,,,,,,,1,2023-12-06_13h58.28.698,watkins1,2023.2.3,99.7386846535348,49,2023-12-06 13h58.34.349332 +0000,
,,,,,,,,,,,17,0,17,0,,,,,,,,,,,,,317.4065916999243,,,,,,,,,,317.40006859996356,317.89865599991754,,,[],[],,,,,,,,,,,,None,None,,,,,,,,,,Ring,nass,"['Ring', 'nass']",control,1,,,,,,317.40000649983995,317.4000430998858,"['Flasche', 'Telefon', 'Tasse', 'Schlüssel', 'Uhr', 'Geige', 'Kamera', 'Socke', 'Kette', 'Fahrrad', 'Löffel', 'Bürste', 'Würfel', 'Tasche', 'Hammer', 'Blume', 'Trommel', 'Ring', 'Brille', 'Hut', 'Schere', 'Rucksack', 'Jacke']",317.8986668998841,323.9086352000013,2,323.90890359994955,323.9113405998796,None,323.9114431999624,323.91366309998557,None,,,323.9137624998111,323.91479089995846,323.91480249981396,323.91581989987753,2.152781199896708,None,,,,,,,,,,,,,,,,,,,,,,,,,,,,,,,,,,,,,,,,,,,,,,,,,1,2023-12-06_13h58.28.698,watkins1,2023.2.3,99.7386846535348,49,2023-12-06 13h58.34.349332 +0000,
,,,,,,,,,,,18,0,18,0,,,,,,,,,,,,,323.9193063999992,,,,,,,,,,323.91608150000684,324.41186489979737,,,2,3.7562837000004947,,,,,,,,,,,,None,None,,,,,,,,,,Brille,winzig,"['Brille', 'winzig']",restudy_diff,1,,,,,,323.91602059989236,323.9160577999428,"['Flasche', 'Telefon', 'Tasse', 'Schlüssel', 'Uhr', 'Geige', 'Kamera', 'Socke', 'Kette', 'Fahrrad', 'Löffel', 'Bürste', 'Würfel', 'Tasche', 'Hammer', 'Blume', 'Trommel', 'Ring', 'Brille', 'Hut', 'Schere', 'Rucksack', 'Jacke']",324.4118759999983,324.41346760001034,None,324.41358599998057,324.41504139988683,None,324.4151454998646,330.42084919987246,2,3.7562837000004947,None,330.4211251998786,330.422516599996,330.42252859985456,330.4237196999602,,,,,,,,,,,,,,,,,,,,,,,,,,,,,,,,,,,,,,,,,,,,,,,,,,,1,2023-12-06_13h58.28.698,watkins1,2023.2.3,99.7386846535348,49,2023-12-06 13h58.34.349332 +0000,
,,,,,,,,,,,19,0,19,0,,,,,,,,,,,,,330.4303878999781,,,,,,,,,,330.42398939980194,330.9225798000116,,,[],[],,,,,,,,,,,,None,None,,,,,,,,,,Hut,hübsch,"['Hut', 'hübsch']",control,1,,,,,,330.42392480000854,330.42396349995397,"['Flasche', 'Telefon', 'Tasse', 'Schlüssel', 'Uhr', 'Geige', 'Kamera', 'Socke', 'Kette', 'Fahrrad', 'Löffel', 'Bürste', 'Würfel', 'Tasche', 'Hammer', 'Blume', 'Trommel', 'Ring', 'Brille', 'Hut', 'Schere', 'Rucksack', 'Jacke']",330.9225907998625,336.9241203998681,3,336.9243969998788,336.92691769986413,None,336.9270219998434,336.9296776999254,None,,,336.9297852998134,336.93082179990597,336.93083369988017,336.9321447999682,2.2567649998236448,None,,,,,,,,,,,,,,,,,,,,,,,,,,,,,,,,,,,,,,,,,,,,,,,,,1,2023-12-06_13h58.28.698,watkins1,2023.2.3,99.7386846535348,49,2023-12-06 13h58.34.349332 +0000,
,,,,,,,,,,,20,0,20,0,,,,,,,,,,,,,336.93582869996317,,,,,,,,,,336.9324162998237,337.4289718000218,,,[],[],,,,,,,,,,,,None,None,,,,,,,,,,Schere,kaputt,"['Schere', 'kaputt']",control,1,,,,,,336.93235119991004,336.9323918998707,"['Flasche', 'Telefon', 'Tasse', 'Schlüssel', 'Uhr', 'Geige', 'Kamera', 'Socke', 'Kette', 'Fahrrad', 'Löffel', 'Bürste', 'Würfel', 'Tasche', 'Hammer', 'Blume', 'Trommel', 'Ring', 'Brille', 'Hut', 'Schere', 'Rucksack', 'Jacke']",337.42898309999146,343.43089800002053,3,343.43117989995517,343.4338914998807,None,343.4339951998554,343.4365473999642,None,,,343.4366499998141,343.437833199976,343.4378450999502,343.4390217999462,2.166312800021842,None,,,,,,,,,,,,,,,,,,,,,,,,,,,,,,,,,,,,,,,,,,,,,,,,,1,2023-12-06_13h58.28.698,watkins1,2023.2.3,99.7386846535348,49,2023-12-06 13h58.34.349332 +0000,
,,,,,,,,,,,21,0,21,0,,,,,,,,,,,,,343.4426198999863,,,,,,,,,,343.43928739987314,343.935856499942,,,3,2.4716238998807967,,,,,,,,,,,,None,None,,,,,,,,,,Rucksack,durchsichtig,"['Rucksack', 'durchsichtig']",restudy_diff,1,,,,,,343.43922509998083,343.4392630998045,"['Flasche', 'Telefon', 'Tasse', 'Schlüssel', 'Uhr', 'Geige', 'Kamera', 'Socke', 'Kette', 'Fahrrad', 'Löffel', 'Bürste', 'Würfel', 'Tasche', 'Hammer', 'Blume', 'Trommel', 'Ring', 'Brille', 'Hut', 'Schere', 'Rucksack', 'Jacke']",343.93586799991317,343.9375955997966,None,343.93771440000273,343.93932849983685,None,343.9394343998283,349.94185319985263,3,2.4716238998807967,None,349.94212929997593,349.9434547999408,349.94346709991805,349.94474079995416,,,,,,,,,,,,,,,,,,,,,,,,,,,,,,,,,,,,,,,,,,,,,,,,,,,1,2023-12-06_13h58.28.698,watkins1,2023.2.3,99.7386846535348,49,2023-12-06 13h58.34.349332 +0000,
,,,,,,,,,,,22,0,22,0,,,,,,,,,,,,,349.9514130000025,,,,,,,,,,349.94500369997695,350.44345149979927,,,[],[],,,,,,,,,,,,None,None,,,,,,,,,,Jacke,hohl,"['Jacke', 'hohl']",control,1,,,,,,349.9449403998442,349.9449775998946,"['Flasche', 'Telefon', 'Tasse', 'Schlüssel', 'Uhr', 'Geige', 'Kamera', 'Socke', 'Kette', 'Fahrrad', 'Löffel', 'Bürste', 'Würfel', 'Tasche', 'Hammer', 'Blume', 'Trommel', 'Ring', 'Brille', 'Hut', 'Schere', 'Rucksack', 'Jacke']",350.44346320000477,356.44414269994013,1,356.4444290997926,356.44694749987684,None,356.44705069996417,356.4494020999409,None,,,356.44950450002216,356.45066149998456,356.4506735999603,356.45170179987326,3.5908987000584602,None,,,,,,,,,,,,,,,,,,,,,,,,,,,,,,,,,,,,,,,,,,,,,,,,,1,2023-12-06_13h58.28.698,watkins1,2023.2.3,99.7386846535348,49,2023-12-06 13h58.34.349332 +0000,
,,,,,,,,,,,,,,,,,,,,,,,,,,,,,,,,,,,,,,,,,,,,,,,,,,,,,,,,,,,,,,,,,,,,,1,,,,,,,,,,,,,,,,,,,,,,,,,,,,,,,,,,,,,,,,,,,,,,,,,,,,,,,,,,,,,,,,,,,,,,,,,,1,2023-12-06_13h58.28.698,watkins1,2023.2.3,99.7386846535348,49,2023-12-06 13h58.34.349332 +0000,
(80 : 10) + 9 = 17 ,Correct,button_correct,,,,,,,,,,,,,0,0,0,3,,,,,,,,,368.51130429981276,,,,,,,,367.4561832998879,368.4602732998319,,,,,['button_correct'],"[3.6701766999904066, 4.001655800035223]",,,,,,,,,,,,,,,,,,,,,,,,,,distractorTask,1,,,,,,,,,,,,,,,,,,,,,,,,,,368.4996968000196,368.51130429981276,372.50682089990005,"[0.275, 0.2833333333333333]","[-0.37222222222222223, -0.38425925925925924]","[1, 1]","[0, 0]","[0, 0]","[3.6701766999904066, 4.001655800035223]",['button_correct'],372.50752340001054,373.51044470001943,,,,,,,,,,,,,,,,,,,,,,,,,,,,,,,,,,,,,1,2023-12-06_13h58.28.698,watkins1,2023.2.3,99.7386846535348,49,2023-12-06 13h58.34.349332 +0000,
(9 x 5) - 9 = 36 ,Correct,button_correct,,,,,,,,,,,,,0,1,1,4,,,,,,,,,373.5204460998066,,,,,,,,,,,,,,['button_correct'],[2.6674051999580115],,,,,,,,,,,,,,,,,,,,,,,,,,distractorTask,1,,,,,,,,,,,,,,,,,,,,,,,,,,373.51064799982123,373.5204460998066,376.18202669988386,[0.2861111111111111],[-0.39166666666666666],[1],[0],[0],[2.6674051999580115],['button_correct'],376.1824149999302,377.1855442998931,,,,,,,,,,,,,,,,,,,,,,,,,,,,,,,,,,,,,1,2023-12-06_13h58.28.698,watkins1,2023.2.3,99.7386846535348,49,2023-12-06 13h58.34.349332 +0000,
(7 x 6) + 9 = 48 ,Incorrect,button_incorrect,,,,,,,,,,,,,0,2,2,9,,,,,,,,,377.19562869984657,,,,,,,,,,,,,,['button_incorrect'],[3.9644055999815464],,,,,,,,,,,,,,,,,,,,,,,,,,distractorTask,1,,,,,,,,,,,,,,,,,,,,,,,,,,377.1857366999611,377.19562869984657,381.15234829997644,[-0.3],[-0.37962962962962965],[1],[0],[0],[3.9644055999815464],['button_incorrect'],381.15273480000906,382.1561715998687,,,,,,,,,,,,,,,,,,,,,,,,,,,,,,,,,,,,,1,2023-12-06_13h58.28.698,watkins1,2023.2.3,99.7386846535348,49,2023-12-06 13h58.34.349332 +0000,
(6 x 3) + 10 = 27 ,Incorrect,button_incorrect,,,,,,,,,,,,,0,3,3,8,,,,,,,,,382.16615309985355,,,,,,,,,,,,,,['button_incorrect'],[2.4080386999994516],,,,,,,,,,,,,,,,,,,,,,,,,,distractorTask,1,,,,,,,,,,,,,,,,,,,,,,,,,,382.1563655999489,382.16615309985355,384.56667259987444,[-0.2916666666666667],[-0.3768518518518518],[1],[0],[0],[2.4080386999994516],['button_incorrect'],384.56706009991467,385.5702334998641,,,,,,,,,,,,,,,,,,,,,,,,,,,,,,,,,,,,,1,2023-12-06_13h58.28.698,watkins1,2023.2.3,99.7386846535348,49,2023-12-06 13h58.34.349332 +0000,
(25 : 5) + 5 = 9 ,Incorrect,button_incorrect,,,,,,,,,,,,,0,4,4,6,,,,,,,,,385.58025439991616,,,,,,,,,,,,,,['button_incorrect'],[3.1314677998889238],,,,,,,,,,,,,,,,,,,,,,,,,,distractorTask,1,,,,,,,,,,,,,,,,,,,,,,,,,,385.5704291998409,385.58025439991616,388.7036069999449,[-0.2851851851851852],[-0.40925925925925927],[1],[0],[0],[3.1314677998889238],['button_incorrect'],388.7039923998527,389.70732319983654,,,,,,,,,,,,,,,,,,,,,,,,,,,,,,,,,,,,,1,2023-12-06_13h58.28.698,watkins1,2023.2.3,99.7386846535348,49,2023-12-06 13h58.34.349332 +0000,
(2 x 5) + 3 = 13 ,Correct,button_correct,,,,,,,,,,,,,0,5,5,2,,,,,,,,,389.7173654998187,,,,,,,,,,,,,,['button_correct'],[1.3744153999723494],,,,,,,,,,,,,,,,,,,,,,,,,,distractorTask,1,,,,,,,,,,,,,,,,,,,,,,,,,,389.7075149999,389.7173654998187,391.083639399847,[0.30092592592592593],[-0.4],[1],[0],[0],[1.3744153999723494],['button_correct'],391.084024899872,392.08726719999686,,,,,,,,,,,,,,,,,,,,,,,,,,,,,,,,,,,,,1,2023-12-06_13h58.28.698,watkins1,2023.2.3,99.7386846535348,49,2023-12-06 13h58.34.349332 +0000,
(40 : 5) + 8 = 15 ,Incorrect,button_incorrect,,,,,,,,,,,,,0,6,6,7,,,,,,,,,392.09724859986454,,,,,,,,,,,,,,['button_incorrect'],[2.267996700014919],,,,,,,,,,,,,,,,,,,,,,,,,,distractorTask,1,,,,,,,,,,,,,,,,,,,,,,,,,,392.08745679981075,392.09724859986454,394.35729319998063,[-0.30833333333333335],[-0.3962962962962963],[1],[0],[0],[2.267996700014919],['button_incorrect'],394.35769179998897,395.36083479993977,,,,,,,,,,,,,,,,,,,,,,,,,,,,,,,,,,,,,1,2023-12-06_13h58.28.698,watkins1,2023.2.3,99.7386846535348,49,2023-12-06 13h58.34.349332 +0000,
(28 : 7) - 3 = 1 ,Correct,button_correct,,,,,,,,,,,,,0,7,7,0,,,,,,,,,395.37077619996853,,,,,,,,,,,,,,['button_correct'],[3.4832138000056148],,,,,,,,,,,,,,,,,,,,,,,,,,distractorTask,1,,,,,,,,,,,,,,,,,,,,,,,,,,395.36103199981153,395.37077619996853,398.8460944998078,[0.362962962962963],[-0.4027777777777778],[1],[0],[0],[3.4832138000056148],['button_correct'],398.8464891000185,399.84966850001365,,,,,,,,,,,,,,,,,,,,,,,,,,,,,,,,,,,,,1,2023-12-06_13h58.28.698,watkins1,2023.2.3,99.7386846535348,49,2023-12-06 13h58.34.349332 +0000,
(4 : 2) + 4 = 6 ,Correct,button_correct,,,,,,,,,,,,,0,8,8,1,,,,,,,,,399.8596458998509,,,,,,,,,,,,,,['button_correct'],[3.0611070999875665],,,,,,,,,,,,,,,,,,,,,,,,,,distractorTask,1,,,,,,,,,,,,,,,,,,,,,,,,,,399.8498760999646,399.8596458998509,402.9128270999063,[0.2833333333333333],[-0.38055555555555554],[1],[0],[0],[3.0611070999875665],['button_correct'],402.91321659996174,403.9166672998108,,,,,,,,,,,,,,,,,,,,,,,,,,,,,,,,,,,,,1,2023-12-06_13h58.28.698,watkins1,2023.2.3,99.7386846535348,49,2023-12-06 13h58.34.349332 +0000,
(54 : 6) - 10 = 0 ,Incorrect,button_incorrect,,,,,,,,,,,,,0,9,9,5,,,,,,,,,403.9267443998251,,,,,,,,,,,,,,['button_incorrect'],[4.155773699982092],,,,,,,,,,,,,,,,,,,,,,,,,,distractorTask,1,,,,,,,,,,,,,,,,,,,,,,,,,,403.9168635997921,403.9267443998251,408.0744421000127,[-0.287962962962963],[-0.3907407407407407],[1],[0],[0],[4.155773699982092],['button_incorrect'],408.0748292999342,409.0779983999673,,,,,,,,,,,,,,,,,,,,,,,,,,,,,,,,,,,,,1,2023-12-06_13h58.28.698,watkins1,2023.2.3,99.7386846535348,49,2023-12-06 13h58.34.349332 +0000,
,,,,,,,,,,,,,,,,,,,,,,,,,,,,,,,,,,,,,,,,,,,,,,,,,,,,,,,,,,,,,,,,,,,,,1,,,,,,,,,,,,,,,,,,,,,,,,,,,,,,,,,,,,,,,,,,,,,,,,,,,,,,,,,,,,,,,,,,,,,,,,,,1,2023-12-06_13h58.28.698,watkins1,2023.2.3,99.7386846535348,49,2023-12-06 13h58.34.349332 +0000,
,,,,,,,,,,,,,,,,,,,0,0,0,0,,,,,423.4566434000153,,,,,,,,,,,,,,verspielt,7.534753599902615,,,,,,,,,,,,5.331977700116113,None,,,,,,,,,,,,,freeRecallSub,1,,,,,,,,,,,,,,,,,,,,,,,,,,,,,,,,,,,,,,423.44800279987976,423.4566434000153,423.4566434000153,430.99831809988245,return,7.534753599902615,None,verspielt,[-0.037037037037037035],[0.03333333333333333],[1],[0],[0],[2.660353399813175],[],,,,,,,,,,,,,,,,,,,,,,1,2023-12-06_13h58.28.698,watkins1,2023.2.3,99.7386846535348,49,2023-12-06 13h58.34.349332 +0000,
,,,,,,,,,,,,,,,,,,,1,0,1,0,,,,,431.01108239986934,,,,,,,,,,,,,,lustig,3.276292100083083,,,,,,,,,,,,2.5838174000382423,None,,,,,,,,,,,,,freeRecallSub,1,,,,,,,,,,,,,,,,,,,,,,,,,,,,,,,,,,,,,,431.00026239990257,431.01108239986934,431.01108239986934,434.2970313997939,return,3.276292100083083,None,lustig,[],[],[],[],[],[],[],,,,,,,,,,,,,,,,,,,,,,1,2023-12-06_13h58.28.698,watkins1,2023.2.3,99.7386846535348,49,2023-12-06 13h58.34.349332 +0000,
,,,,,,,,,,,,,,,,,,,2,0,2,0,,,,,434.3076035999693,,,,,,,,,,,,,,dick,2.467735799960792,,,,,,,,,,,,1.9774943999946117,None,,,,,,,,,,,,,freeRecallSub,1,,,,,,,,,,,,,,,,,,,,,,,,,,,,,,,,,,,,,,434.2983015999198,434.3076035999693,434.3076035999693,436.77813679981045,return,2.467735799960792,None,dick,[],[],[],[],[],[],[],,,,,,,,,,,,,,,,,,,,,,1,2023-12-06_13h58.28.698,watkins1,2023.2.3,99.7386846535348,49,2023-12-06 13h58.34.349332 +0000,
,,,,,,,,,,,,,,,,,,,3,0,3,0,,,,,436.78888329979964,,,,,,,,,,,,,,groß,1.9624671000055969,,,,,,,,,,,,1.0744962999597192,None,,,,,,,,,,,,,freeRecallSub,1,,,,,,,,,,,,,,,,,,,,,,,,,,,,,,,,,,,,,,436.77937429980375,436.78888329979964,436.78888329979964,438.757620499935,return,1.9624671000055969,None,groß,[],[],[],[],[],[],[],,,,,,,,,,,,,,,,,,,,,,1,2023-12-06_13h58.28.698,watkins1,2023.2.3,99.7386846535348,49,2023-12-06 13h58.34.349332 +0000,
,,,,,,,,,,,,,,,,,,,4,0,4,0,,,,,438.7686017998494,,,,,,,,,,,,,,gepunktet,12.014791100053117,,,,,,,,,,,,10.835866800043732,None,,,,,,,,,,,,,freeRecallSub,1,,,,,,,,,,,,,,,,,,,,,,,,,,,,,,,,,,,,,,438.75909569999203,438.7686017998494,438.7686017998494,450.79018859984353,return,12.014791100053117,None,gepunktet,[],[],[],[],[],[],[],,,,,,,,,,,,,,,,,,,,,,1,2023-12-06_13h58.28.698,watkins1,2023.2.3,99.7386846535348,49,2023-12-06 13h58.34.349332 +0000,
,,,,,,,,,,,,,,,,,,,5,0,5,0,,,,,450.8010241999291,,,,,,,,,,,,,,lang,13.43822650006041,,,,,,,,,,,,10.132590299937874,12.784104199847206,,,,,,,,,,,,,freeRecallSub,1,,,,,,,,,,,,,,,,,,,,,,,,,,,,,,,,,,,,,,450.7914332000073,450.8010241999291,450.8010241999291,464.2482737998944,return,13.43822650006041,None,lang,[],[],[],[],[],[],[],,,,,,,,,,,,,,,,,,,,,,1,2023-12-06_13h58.28.698,watkins1,2023.2.3,99.7386846535348,49,2023-12-06 13h58.34.349332 +0000,
,,,,,,,,,,,,,,,,,,,6,0,6,0,,,,,464.2597443999257,,,,,,,,,,,,,,kurz,4.491503299912438,,,,,,,,,,,,3.9179202001541853,None,,,,,,,,,,,,,freeRecallSub,1,,,,,,,,,,,,,,,,,,,,,,,,,,,,,,,,,,,,,,464.2495360998437,464.2597443999257,464.2597443999257,468.75990049983375,return,4.491503299912438,None,kurz,[],[],[],[],[],[],[],,,,,,,,,,,,,,,,,,,,,,1,2023-12-06_13h58.28.698,watkins1,2023.2.3,99.7386846535348,49,2023-12-06 13h58.34.349332 +0000,
,,,,,,,,,,,,,,,,,,,7,0,7,0,,,,,468.7714639999904,,,,,,,,,,,,,,,[],,,,,,,,,,,,None,None,,,,,,,,,,,,,freeRecallSub,1,,,,,,,,,,,,,,,,,,,,,,,,,,,,,,,,,,,,,,468.7611678999383,468.7714639999904,468.7714639999904,510.0970911998302,None,,,,[0.1824074074074074],[-0.38333333333333336],[1],[0],[0],[41.33189729996957],['button_continue'],,,,,,,,,,,,,,,,,,,,,,1,2023-12-06_13h58.28.698,watkins1,2023.2.3,99.7386846535348,49,2023-12-06 13h58.34.349332 +0000,
,,,,,,,,,,,,,,,,,,,,,,,,,,,,,,,,,,,,,,,,,,,,,,,,,,,,,,,,,,,,,,,,,,,,,1,,,,,,,,,,,,,,,,,,,,,,,,,,,,,,,,,,,,,,,,,,,,,,,,,,,,,,,,,,,,,,,,,,,,,,,,,,1,2023-12-06_13h58.28.698,watkins1,2023.2.3,99.7386846535348,49,2023-12-06 13h58.34.349332 +0000,
,,,,,,,,,,,,,,,,,,,,,,,0,0,0,0,526.4199302999768,,,,,,,,,,534.6664944000077,535.1559927000199,,,,8.243260500021279,,,,,,,,,,,,None,None,,,,,,,,,,Buch,,,cuedRecallAdj,1,,,,,,,,,,,,,,,,,,,,,,,,,,,,,,,,,,,,,,,,,,,,,,,,,,,,,526.4109237999655,526.4199302999768,0,526.4199302999768,534.6644301998895,,return,8.243260500021279,None,534.6648281998932,534.6739266000222,534.6739266000222,534.6663094998803,,None,,,,,,,1,2023-12-06_13h58.28.698,watkins1,2023.2.3,99.7386846535348,49,2023-12-06 13h58.34.349332 +0000,
,,,,,,,,,,,,,,,,,,,,,,,1,0,1,0,535.166001799982,,,,,,,,,,537.2470398999285,537.7366784999613,,,,2.073278500000015,,,,,,,,,,,,None,None,,,,,,,,,,Stift,,,cuedRecallAdj,1,,,,,,,,,,,,,,,,,,,,,,,,,,,,,,,,,,,,,,,,,,,,,,,,,,,,,535.1562400998082,535.166001799982,0,535.166001799982,537.2451318998355,,return,2.073278500000015,None,537.245396199869,537.254629699979,537.254629699979,537.2469362998381,,None,,,,,,,1,2023-12-06_13h58.28.698,watkins1,2023.2.3,99.7386846535348,49,2023-12-06 13h58.34.349332 +0000,
,,,,,,,,,,,,,,,,,,,,,,,2,0,2,0,537.7466348998714,,,,,,,,,,559.0149716997985,559.5067687998526,,,breit,12.820535199949518,,,,,,,,,,,,7.721033200155944,None,,,,,,,,,,Brille,,,cuedRecallAdj,1,,,,,,,,,,,,,,,,,,,,,,,,,,,,,,,,,,,,,,,,,,,,,,,,,,,,,537.7369206999429,537.7466348998714,0,537.7466348998714,550.5700165999588,lang,return,12.820535199949518,None,550.5702789998613,550.5796146998182,550.5796146998182,559.0146263998467,breit,return,8.427619500085711,None,,,,,1,2023-12-06_13h58.28.698,watkins1,2023.2.3,99.7386846535348,49,2023-12-06 13h58.34.349332 +0000,
,,,,,,,,,,,,,,,,,,,,,,,3,0,3,0,559.516826899955,,,,,,,,,,569.2504910998978,569.7497419998981,,,,9.730280800024047,,,,,,,,,,,,None,None,,,,,,,,,,Hut,,,cuedRecallAdj,1,,,,,,,,,,,,,,,,,,,,,,,,,,,,,,,,,,,,,,,,,,,,,,,,,,,,,559.5070156999864,559.516826899955,0,559.516826899955,569.2480646998156,,return,9.730280800024047,None,569.2483324999921,569.257586899912,569.257586899912,569.2503893999383,,None,,,,,,,1,2023-12-06_13h58.28.698,watkins1,2023.2.3,99.7386846535348,49,2023-12-06 13h58.34.349332 +0000,
,,,,,,,,,,,,,,,,,,,,,,,4,0,4,0,569.7596852998249,,,,,,,,,,578.4160941999871,578.9075035999995,,,,5.455541200004518,,,,,,,,,,,,3.1926847000140697,None,,,,,,,,,,Flasche,,,cuedRecallAdj,1,,,,,,,,,,,,,,,,,,,,,,,,,,,,,,,,,,,,,,,,,,,,,,,,,,,,,569.7499920998234,569.7596852998249,0,569.7596852998249,575.2225966998376,gepunktet,return,5.455541200004518,None,575.2228629998863,575.2322362000123,575.2322362000123,578.4158249998,,return,3.174925000173971,None,,,,,1,2023-12-06_13h58.28.698,watkins1,2023.2.3,99.7386846535348,49,2023-12-06 13h58.34.349332 +0000,
,,,,,,,,,,,,,,,,,,,,,,,5,0,5,0,578.9175552998204,,,,,,,,,,592.8182636999991,593.307718699798,,,,13.889528500149027,,,,,,,,,,,,None,None,,,,,,,,,,Schere,,,cuedRecallAdj,1,,,,,,,,,,,,,,,,,,,,,,,,,,,,,,,,,,,,,,,,,,,,,,,,,,,,,578.9077452998608,578.9175552998204,0,578.9175552998204,592.8158820997924,,return,13.889528500149027,None,592.8161476999521,592.8256053000223,592.8256053000223,592.8181590000167,,None,,,,,,,1,2023-12-06_13h58.28.698,watkins1,2023.2.3,99.7386846535348,49,2023-12-06 13h58.34.349332 +0000,
,,,,,,,,,,,,,,,,,,,,,,,6,0,6,0,593.3176195998676,,,,,,,,,,598.7436905999202,599.2421029999387,,,,5.417498699855059,,,,,,,,,,,,None,None,,,,,,,,,,Kerze,,,cuedRecallAdj,1,,,,,,,,,,,,,,,,,,,,,,,,,,,,,,,,,,,,,,,,,,,,,,,,,,,,,593.3079674998298,593.3176195998676,0,593.3176195998676,598.7404829999432,schwer,return,5.417498699855059,None,598.7407531000208,598.7500274998602,598.7500274998602,598.7435867998283,,None,,,,,,,1,2023-12-06_13h58.28.698,watkins1,2023.2.3,99.7386846535348,49,2023-12-06 13h58.34.349332 +0000,
,,,,,,,,,,,,,,,,,,,,,,,7,0,7,0,599.2520475999918,,,,,,,,,,609.7663159000222,610.2576093999669,,,dick,6.291118999943137,,,,,,,,,,,,3.594108199933544,None,,,,,,,,,,Trommel,,,cuedRecallAdj,1,,,,,,,,,,,,,,,,,,,,,,,,,,,,,,,,,,,,,,,,,,,,,,,,,,,,,599.2423544998746,599.2520475999918,0,599.2520475999918,605.5486343998928,hohl,return,6.291118999943137,None,605.548900899943,605.5581466997974,605.5581466997974,609.7660554000176,dick,return,4.200954699888825,None,,,,,1,2023-12-06_13h58.28.698,watkins1,2023.2.3,99.7386846535348,49,2023-12-06 13h58.34.349332 +0000,
,,,,,,,,,,,,,,,,,,,,,,,8,0,8,0,610.267527999822,,,,,,,,,,612.63019419997,613.1293661999516,,,,2.355638900073245,,,,,,,,,,,,None,None,,,,,,,,,,Kiste,,,cuedRecallAdj,1,,,,,,,,,,,,,,,,,,,,,,,,,,,,,,,,,,,,,,,,,,,,,,,,,,,,,610.2578523999546,610.267527999822,0,610.267527999822,612.6276918000076,,return,2.355638900073245,None,612.6279562998097,612.6373037998565,612.6373037998565,612.630089999875,,None,,,,,,,1,2023-12-06_13h58.28.698,watkins1,2023.2.3,99.7386846535348,49,2023-12-06 13h58.34.349332 +0000,
,,,,,,,,,,,,,,,,,,,,,,,9,0,9,0,613.1392759999726,,,,,,,,,,620.5620547998697,621.0534096998163,,,,6.5479430998675525,,,,,,,,,,,,0.8728527999483049,None,,,,,,,,,,Rucksack,,,cuedRecallAdj,1,,,,,,,,,,,,,,,,,,,,,,,,,,,,,,,,,,,,,,,,,,,,,,,,,,,,,613.1296102998313,613.1392759999726,0,613.1392759999726,619.6881874999963,durchsichtig,return,6.5479430998675525,None,619.6884547998197,619.6977436998859,619.6977436998859,620.5617887999397,,return,0.8614461999386549,None,,,,,1,2023-12-06_13h58.28.698,watkins1,2023.2.3,99.7386846535348,49,2023-12-06 13h58.34.349332 +0000,
,,,,,,,,,,,,,,,,,,,,,,,10,0,10,0,621.0633739000186,,,,,,,,,,623.9491468998604,624.4477132000029,,,,2.8797484999522567,,,,,,,,,,,,None,None,,,,,,,,,,Löffel,,,cuedRecallAdj,1,,,,,,,,,,,,,,,,,,,,,,,,,,,,,,,,,,,,,,,,,,,,,,,,,,,,,621.0536499000154,621.0633739000186,0,621.0633739000186,623.9461467999499,nachhaltig,return,2.8797484999522567,None,623.9464085998479,623.9557014999446,623.9557014999446,623.9490465999115,,None,,,,,,,1,2023-12-06_13h58.28.698,watkins1,2023.2.3,99.7386846535348,49,2023-12-06 13h58.34.349332 +0000,
,,,,,,,,,,,,,,,,,,,,,,,11,0,11,0,624.4577128000092,,,,,,,,,,643.7109302999452,644.2025570999831,,,,18.741251499857754,,,,,,,,,,,,0.5015034000389278,None,,,,,,,,,,Hammer,,,cuedRecallAdj,1,,,,,,,,,,,,,,,,,,,,,,,,,,,,,,,,,,,,,,,,,,,,,,,,,,,,,624.4479590998963,624.4577128000092,0,624.4577128000092,643.2086165999062,kurvig,return,18.741251499857754,None,643.2088819998316,643.2183736998122,643.2183736998122,643.7106616999954,,return,0.48471929994411767,None,,,,,1,2023-12-06_13h58.28.698,watkins1,2023.2.3,99.7386846535348,49,2023-12-06 13h58.34.349332 +0000,
,,,,,,,,,,,,,,,,,,,,,,,12,0,12,0,644.2125087999739,,,,,,,,,,648.8324064998887,649.3238073999528,,,kurz,3.4905014999676496,,,,,,,,,,,,0.45067150006070733,None,,,,,,,,,,Fahrrad,,,cuedRecallAdj,1,,,,,,,,,,,,,,,,,,,,,,,,,,,,,,,,,,,,,,,,,,,,,,,,,,,,,644.2028059998993,644.2125087999739,0,644.2125087999739,647.7080258999486,klein,return,3.4905014999676496,None,647.7082940998953,647.7171088999603,647.7171088999603,648.832142899977,kurz,return,1.1139917999971658,None,,,,,1,2023-12-06_13h58.28.698,watkins1,2023.2.3,99.7386846535348,49,2023-12-06 13h58.34.349332 +0000,
,,,,,,,,,,,,,,,,,,,,,,,13,0,13,0,649.3337617998477,,,,,,,,,,652.3374067998957,652.828869599849,,,,2.52928869985044,,,,,,,,,,,,0.47097410005517304,None,,,,,,,,,,Tasche,,,cuedRecallAdj,1,,,,,,,,,,,,,,,,,,,,,,,,,,,,,,,,,,,,,,,,,,,,,,,,,,,,,649.3240530998446,649.3337617998477,0,649.3337617998477,651.8656106998678,,return,2.52928869985044,None,651.8658762997948,651.8749488999601,651.8749488999601,652.3371476000175,,return,0.45208790013566613,None,,,,,1,2023-12-06_13h58.28.698,watkins1,2023.2.3,99.7386846535348,49,2023-12-06 13h58.34.349332 +0000,
,,,,,,,,,,,,,,,,,,,,,,,14,0,14,0,652.8389287998434,,,,,,,,,,661.8092248998582,662.3080305999611,,,,8.960184699855745,,,,,,,,,,,,None,None,,,,,,,,,,Vase,,,cuedRecallAdj,1,,,,,,,,,,,,,,,,,,,,,,,,,,,,,,,,,,,,,,,,,,,,,,,,,,,,,652.8291123998351,652.8389287998434,0,652.8389287998434,661.806303899968,sportlich,return,8.960184699855745,None,661.8065669999924,661.8160190999042,661.8160190999042,661.8091223998927,,None,,,,,,,1,2023-12-06_13h58.28.698,watkins1,2023.2.3,99.7386846535348,49,2023-12-06 13h58.34.349332 +0000,
,,,,,,,,,,,,,,,,,,,,,,,15,0,15,0,662.3179650998209,,,,,,,,,,668.655003799824,669.1465655998327,,,,4.793047100072727,,,,,,,,,,,,1.5357518999371678,None,,,,,,,,,,Geige,,,cuedRecallAdj,1,,,,,,,,,,,,,,,,,,,,,,,,,,,,,,,,,,,,,,,,,,,,,,,,,,,,,662.3082762998529,662.3179650998209,0,662.3179650998209,667.1184386999812,groß,return,4.793047100072727,None,667.1187052999157,667.1281329998747,667.1281329998747,668.6547396997921,,return,1.518897500121966,None,,,,,1,2023-12-06_13h58.28.698,watkins1,2023.2.3,99.7386846535348,49,2023-12-06 13h58.34.349332 +0000,
,,,,,,,,,,,,,,,,,,,,,,,16,0,16,0,669.1564752999693,,,,,,,,,,673.2842192999087,673.775647399947,,,,3.330526400124654,,,,,,,,,,,,0.7925615001004189,None,,,,,,,,,,Kamera,,,cuedRecallAdj,1,,,,,,,,,,,,,,,,,,,,,,,,,,,,,,,,,,,,,,,,,,,,,,,,,,,,,669.1468105998356,669.1564752999693,0,669.1564752999693,672.4906768000219,teuer,return,3.330526400124654,None,672.4909434998408,672.5003011999652,672.5003011999652,673.2839596997947,,return,0.7786989999003708,None,,,,,1,2023-12-06_13h58.28.698,watkins1,2023.2.3,99.7386846535348,49,2023-12-06 13h58.34.349332 +0000,
,,,,,,,,,,,,,,,,,,,,,,,17,0,17,0,673.78560069995,,,,,,,,,,676.4197707998101,676.9090077998117,,,,2.629360100021586,,,,,,,,,,,,None,None,,,,,,,,,,Eimer,,,cuedRecallAdj,1,,,,,,,,,,,,,,,,,,,,,,,,,,,,,,,,,,,,,,,,,,,,,,,,,,,,,673.7758875999134,673.78560069995,0,673.78560069995,676.4175528998021,,return,2.629360100021586,None,676.4178163998295,676.4270358998328,676.4270358998328,676.4196696998551,,None,,,,,,,1,2023-12-06_13h58.28.698,watkins1,2023.2.3,99.7386846535348,49,2023-12-06 13h58.34.349332 +0000,
,,,,,,,,,,,,,,,,,,,,,,,18,0,18,0,676.918925399892,,,,,,,,,,679.320068599889,679.8112970998045,,,,1.9921360001899302,,,,,,,,,,,,0.40106429997831583,None,,,,,,,,,,Kette,,,cuedRecallAdj,1,,,,,,,,,,,,,,,,,,,,,,,,,,,,,,,,,,,,,,,,,,,,,,,,,,,,,676.9092704998329,676.918925399892,0,676.918925399892,678.9179681998212,biegsam,return,1.9921360001899302,None,678.918234199984,678.9274627999403,678.9274627999403,679.3197981999256,,return,0.39149040007032454,None,,,,,1,2023-12-06_13h58.28.698,watkins1,2023.2.3,99.7386846535348,49,2023-12-06 13h58.34.349332 +0000,
,,,,,,,,,,,,,,,,,,,,,,,19,0,19,0,679.8212537998334,,,,,,,,,,688.1370941998903,688.6285154998768,,,,7.681672099977732,,,,,,,,,,,,0.631990100024268,None,,,,,,,,,,Telefon,,,cuedRecallAdj,1,,,,,,,,,,,,,,,,,,,,,,,,,,,,,,,,,,,,,,,,,,,,,,,,,,,,,679.8115433999337,679.8212537998334,0,679.8212537998334,687.504241499817,lustig,return,7.681672099977732,None,687.5045093998779,687.513794099912,687.513794099912,688.1368269999512,,return,0.613171499921009,None,,,,,1,2023-12-06_13h58.28.698,watkins1,2023.2.3,99.7386846535348,49,2023-12-06 13h58.34.349332 +0000,
,,,,,,,,,,,,,,,,,,,,,,,20,0,20,0,688.6384737999178,,,,,,,,,,691.554365699878,692.0528679999989,,,,2.9126924998126924,,,,,,,,,,,,None,None,,,,,,,,,,Würfel,,,cuedRecallAdj,1,,,,,,,,,,,,,,,,,,,,,,,,,,,,,,,,,,,,,,,,,,,,,,,,,,,,,688.6287590998691,688.6384737999178,0,688.6384737999178,691.5515437999275,kurz,return,2.9126924998126924,None,691.5518105998635,691.5608095999341,691.5608095999341,691.5542642998043,,None,,,,,,,1,2023-12-06_13h58.28.698,watkins1,2023.2.3,99.7386846535348,49,2023-12-06 13h58.34.349332 +0000,
,,,,,,,,,,,,,,,,,,,,,,,21,0,21,0,692.0628256998025,,,,,,,,,,693.0202678998467,693.5191994998604,,,,0.9522249998990446,,,,,,,,,,,,None,None,,,,,,,,,,Lampe,,,cuedRecallAdj,1,,,,,,,,,,,,,,,,,,,,,,,,,,,,,,,,,,,,,,,,,,,,,,,,,,,,,692.0531130000018,692.0628256998025,0,692.0628256998025,693.0181159998756,,return,0.9522249998990446,None,693.0183799997903,693.0270974999294,693.0270974999294,693.020167700015,,None,,,,,,,1,2023-12-06_13h58.28.698,watkins1,2023.2.3,99.7386846535348,49,2023-12-06 13h58.34.349332 +0000,
,,,,,,,,,,,,,,,,,,,,,,,22,0,22,0,693.5291496999562,,,,,,,,,,704.7779982998036,705.2678945998196,,,,11.237862600013614,,,,,,,,,,,,None,None,,,,,,,,,,Ring,,,cuedRecallAdj,1,,,,,,,,,,,,,,,,,,,,,,,,,,,,,,,,,,,,,,,,,,,,,,,,,,,,,693.5194449999835,693.5291496999562,0,693.5291496999562,704.7760326999705,,return,11.237862600013614,None,704.7763004999142,704.7857196999248,704.7857196999248,704.7778958999552,,None,,,,,,,1,2023-12-06_13h58.28.698,watkins1,2023.2.3,99.7386846535348,49,2023-12-06 13h58.34.349332 +0000,
,,,,,,,,,,,,,,,,,,,,,,,23,0,23,0,705.2778396999929,,,,,,,,,,707.7490129999351,708.2402148998808,,,,0.8891753000207245,,,,,,,,,,,,1.576050499919802,None,,,,,,,,,,Bürste,,,cuedRecallAdj,1,,,,,,,,,,,,,,,,,,,,,,,,,,,,,,,,,,,,,,,,,,,,,,,,,,,,,705.2681491998956,705.2778396999929,0,705.2778396999929,706.1719295999501,,return,0.8891753000207245,None,706.172194799874,706.1815140999388,706.1815140999388,707.7487484999001,,return,1.561460099881515,None,,,,,1,2023-12-06_13h58.28.698,watkins1,2023.2.3,99.7386846535348,49,2023-12-06 13h58.34.349332 +0000,
,,,,,,,,,,,,,,,,,,,,,,,24,0,24,0,708.2501271998044,,,,,,,,,,713.694938399829,714.1864632999059,,,dreckig,2.0208497000858188,,,,,,,,,,,,2.159674899885431,None,,,,,,,,,,Socke,,,cuedRecallAdj,1,,,,,,,,,,,,,,,,,,,,,,,,,,,,,,,,,,,,,,,,,,,,,,,,,,,,,708.2404567999765,708.2501271998044,0,708.2501271998044,710.2789743000176,sauber,return,2.0208497000858188,None,710.2792380999308,710.2887159998063,710.2887159998063,713.694674299797,dreckig,return,3.3982583000324667,None,,,,,1,2023-12-06_13h58.28.698,watkins1,2023.2.3,99.7386846535348,49,2023-12-06 13h58.34.349332 +0000,
,,,,,,,,,,,,,,,,,,,,,,,25,0,25,0,714.1964088999666,,,,,,,,,,719.428616899997,719.9199794998858,,,,4.194543299963698,,,,,,,,,,,,1.0335139001253992,None,,,,,,,,,,Blume,,,cuedRecallAdj,1,,,,,,,,,,,,,,,,,,,,,,,,,,,,,,,,,,,,,,,,,,,,,,,,,,,,,714.1867050998844,714.1964088999666,0,714.1964088999666,718.3941203998402,,return,4.194543299963698,None,718.3943762998097,718.4037665999494,718.4037665999494,719.4283485999331,,return,1.0191619000397623,None,,,,,1,2023-12-06_13h58.28.698,watkins1,2023.2.3,99.7386846535348,49,2023-12-06 13h58.34.349332 +0000,
,,,,,,,,,,,,,,,,,,,,,,,26,0,26,0,719.9299076998141,,,,,,,,,,725.9570689999964,726.4469405999407,,,,6.021042000036687,,,,,,,,,,,,None,None,,,,,,,,,,Uhr,,,cuedRecallAdj,1,,,,,,,,,,,,,,,,,,,,,,,,,,,,,,,,,,,,,,,,,,,,,,,,,,,,,719.9202238998841,719.9299076998141,0,719.9299076998141,725.9553119998891,,return,6.021042000036687,None,725.9555716998875,725.9648501998745,725.9648501998745,725.9569655999076,,None,,,,,,,1,2023-12-06_13h58.28.698,watkins1,2023.2.3,99.7386846535348,49,2023-12-06 13h58.34.349332 +0000,
,,,,,,,,,,,,,,,,,,,,,,,27,0,27,0,726.4568925998174,,,,,,,,,,729.5101248999126,730.0014901999384,,,,2.5899219000712037,,,,,,,,,,,,0.46114359982311726,None,,,,,,,,,,Tasse,,,cuedRecallAdj,1,,,,,,,,,,,,,,,,,,,,,,,,,,,,,,,,,,,,,,,,,,,,,,,,,,,,,726.447188799968,726.4568925998174,0,726.4568925998174,729.0479944997933,,return,2.5899219000712037,None,729.0482677000109,729.0575701999478,729.0575701999478,729.5098595998716,,return,0.44543269998393953,None,,,,,1,2023-12-06_13h58.28.698,watkins1,2023.2.3,99.7386846535348,49,2023-12-06 13h58.34.349332 +0000,
,,,,,,,,,,,,,,,,,,,,,,,28,0,28,0,730.0114450999536,,,,,,,,,,731.198640299961,731.6885301999282,,,,1.1794656999409199,,,,,,,,,,,,None,None,,,,,,,,,,Jacke,,,cuedRecallAdj,1,,,,,,,,,,,,,,,,,,,,,,,,,,,,,,,,,,,,,,,,,,,,,,,,,,,,,730.0017307999078,730.0114450999536,0,730.0114450999536,731.1967316998634,,return,1.1794656999409199,None,731.196997899795,731.20625129994,731.20625129994,731.1985379999969,,None,,,,,,,1,2023-12-06_13h58.28.698,watkins1,2023.2.3,99.7386846535348,49,2023-12-06 13h58.34.349332 +0000,
,,,,,,,,,,,,,,,,,,,,,,,29,0,29,0,731.6985809998587,,,,,,,,,,735.7789467999246,736.2774973998312,,,,4.076349999988452,,,,,,,,,,,,None,None,,,,,,,,,,Schlüssel,,,cuedRecallAdj,1,,,,,,,,,,,,,,,,,,,,,,,,,,,,,,,,,,,,,,,,,,,,,,,,,,,,,731.6887761999387,731.6985809998587,0,731.6985809998587,735.7758229998872,gepunktet,return,4.076349999988452,None,735.7760909998324,735.7853910999838,735.7853910999838,735.7788430999499,,None,,,,,,,1,2023-12-06_13h58.28.698,watkins1,2023.2.3,99.7386846535348,49,2023-12-06 13h58.34.349332 +0000,
,,,,,,,,,,,,,,,,,,,,,,,,,,,,,,,,,,,,,,,,,,,,,,,,,,,,,,,,,,,,,,,,,,,,,1,,,,,,,,,,,,,,,,,,,,,,,,,,,,,,,,,,,,,,,,,,,,,,,,,,,,,,,,,,,,,,,,,,,,,,736.2947911999654,q,1572.741484099999,None,1,2023-12-06_13h58.28.698,watkins1,2023.2.3,99.7386846535348,49,2023-12-06 13h58.34.349332 +0000,
