Equation,CorrectResponse,Correctbutton,trials_7.thisRepN,trials_7.thisTrialN,trials_7.thisN,trials_7.thisIndex,trials.thisRepN,trials.thisTrialN,trials.thisN,trials.thisIndex,trials_3.thisRepN,trials_3.thisTrialN,trials_3.thisN,trials_3.thisIndex,trials_2.thisRepN,trials_2.thisTrialN,trials_2.thisN,trials_2.thisIndex,trials_4.thisRepN,trials_4.thisTrialN,trials_4.thisN,trials_4.thisIndex,trials_5.thisRepN,trials_5.thisTrialN,trials_5.thisN,trials_5.thisIndex,thisRow.t,notes,code_marius.started,code_marius.stopped,welcome.started,welcome.stopped,instruction_study.started,instruction_study.stopped,fixationcross.started,fixationcross.stopped,blanc.started,blanc.stopped,study_control_probe.started,study_control_probe.stopped,responseKey,responseTime,scale_answer_2.keys,study_control_probe_2.started,study_control_probe_2.stopped,scale_answer_3.keys,scale_answer_3.rt,scale_answer_3.duration,blanc_2.started,blanc_2.stopped,test_attr_probe.started,test_attr_probe.stopped,recalled_attr,firstKeyTime,secondWordTime,blanc_3.started,blanc_3.stopped,test_sub_probe.started,test_sub_probe.stopped,recalled_sub,instruction_probe_end.started,instruction_probe_end.stopped,study.started,study.stopped,substantive,adjective,wordpair,task,condition,liste_sub_phase1,liste_adj_phase1,scale_answer.keys,scale_answer.rt,scale_answer.duration,code_defineWordsInit.started,code_defineWordsInit.stopped,liste_sub_phase2,study_control.started,study_control.stopped,scale_answer_4.keys,restudy_same.started,restudy_same.stopped,scale_answer_5.keys,restudy_different.started,restudy_different.stopped,scale_answer_6.keys,scale_answer_6.rt,scale_answer_6.duration,test_attr.started,test_attr.stopped,test_sub.started,test_sub.stopped,scale_answer_4.rt,scale_answer_4.duration,distractortask.started,equation_text.started,distractortask.stopped,mouse_answer.x,mouse_answer.y,mouse_answer.leftButton,mouse_answer.midButton,mouse_answer.rightButton,mouse_answer.time,mouse_answer.clicked_name,feedback_distractortask.started,feedback_distractortask.stopped,free_recall.started,text_enter.started,key_resp.started,free_recall.stopped,key_resp.keys,key_resp.rt,key_resp.duration,free_recalled_sub,mouse_continue.x,mouse_continue.y,mouse_continue.leftButton,mouse_continue.midButton,mouse_continue.rightButton,mouse_continue.time,mouse_continue.clicked_name,cued_recall.started,text_enter_2.started,correct,key_continue.started,cued_recall.stopped,recalled_attr1,key_continue.keys,key_continue.rt,key_continue.duration,cued_recall_2.started,text_enter_3.started,key_continue_2.started,cued_recall_2.stopped,recalled_attr2,key_continue_2.keys,key_continue_2.rt,key_continue_2.duration,key_resp_8.started,key_resp_8.keys,key_resp_8.rt,key_resp_8.duration,condition,date,expName,psychopyVersion,frameRate,participant,expStart,
,,,,,,,,,,,,,,,,,,,,,,,,,,,,,0.10975470009725541,0.10982250003144145,0.1098309000954032,4.380647800047882,,,,,,,,,,,,,,,,,,,,,,,,,,,,,,,,,,,,,1,,,,,,,,,,,,,,,,,,,,,,,,,,,,,,,,,,,,,,,,,,,,,,,,,,,,,,,,,,,,,,,,,,,,,,,,,,1,2023-12-20_12h31.41.696,watkins1,2023.2.3,99.73928152996459,73,2023-12-20 12h31.47.196432 +0000,
,,,,,,,,,,,,,,,,,,,,,,,,,,,,,,,,,4.380697500077076,27.005377200082876,,,,,,,,,,,,,,,,,,,,,,,,,,,,,,,,,,,1,,,,,,,,,,,,,,,,,,,,,,,,,,,,,,,,,,,,,,,,,,,,,,,,,,,,,,,,,,,,,,,,,,,,,,,,,,1,2023-12-20_12h31.41.696,watkins1,2023.2.3,99.73928152996459,73,2023-12-20 12h31.47.196432 +0000,
,,,0,0,0,0,,,,,,,,,,,,,,,,,,,,,28.0191874000011,,,,,,,,27.005392800085247,28.009098800015636,34.50746610003989,34.998933400027454,28.50128200009931,34.50730210007168,1,2.4416460000211373,None,34.99894449999556,41.00782759999856,1,2.4416460000211373,None,41.008114400086924,41.008137900033034,41.008144800085574,41.00822410010733,,None,None,41.00838200002909,41.008401600061916,41.008408199995756,41.00850840006024,,,,,,,,,,1,,,,,,,,,,,,,,,,,,,,,,,,,,,,,,,,,,,,,,,,,,,,,,,,,,,,,,,,,,,,,,,,,,,,,,,,,,1,2023-12-20_12h31.41.696,watkins1,2023.2.3,99.73928152996459,73,2023-12-20 12h31.47.196432 +0000,
,,,,,,,,,,,,,,,,,,,,,,,,,,,,,,,,,,,,,,,,,,,,,,,,,,,,,,,,,,,,,41.00861900008749,45.502898700069636,,,,,,,1,,,,,,,,,,,,,,,,,,,,,,,,,,,,,,,,,,,,,,,,,,,,,,,,,,,,,,,,,,,,,,,,,,,,,,,,,,1,2023-12-20_12h31.41.696,watkins1,2023.2.3,99.73928152996459,73,2023-12-20 12h31.47.196432 +0000,
,,,,,,,0,0,0,0,,,,,,,,,,,,,,,,,46.51656870008446,,,,,,,,45.50291740009561,46.50648670003284,46.506932500051335,46.998549700016156,,,1,2.545856000040658,,,,,,,,,,,,,,,,,,,,,46.99856010009535,53.00220260000788,Jacke,breit,"['Jacke', 'breit']",restudy_diff,1,"['Jacke', 'Uhr', 'Lampe', 'Geige', 'Kette', 'Rucksack', 'Kamera', 'Schere', 'Ring', 'Trommel', 'Eimer', 'Fahrrad', 'Blume', 'Schlüssel', 'Hammer', 'Stift', 'Kerze', 'Flasche', 'Tasse', 'Telefon', 'Vase', 'Socke']",['breit'],1,2.545856000040658,None,,,,,,,,,,,,,,,,,,,,,,,,,,,,,,,,,,,,,,,,,,,,,,,,,,,,,,,,,,,,,,,,,,,,,1,2023-12-20_12h31.41.696,watkins1,2023.2.3,99.73928152996459,73,2023-12-20 12h31.47.196432 +0000,
,,,,,,,1,0,1,0,,,,,,,,,,,,,,,,,53.01173650007695,,,,,,,,,,53.00289350003004,53.493677900056355,,,2,2.110583500005305,,,,,,,,,,,,,,,,,,,,,53.4936889000237,59.496859900071286,Uhr,elegant,"['Uhr', 'elegant']",restudy_diff,1,"['Jacke', 'Uhr', 'Lampe', 'Geige', 'Kette', 'Rucksack', 'Kamera', 'Schere', 'Ring', 'Trommel', 'Eimer', 'Fahrrad', 'Blume', 'Schlüssel', 'Hammer', 'Stift', 'Kerze', 'Flasche', 'Tasse', 'Telefon', 'Vase', 'Socke']","['breit', 'elegant']",2,2.110583500005305,None,,,,,,,,,,,,,,,,,,,,,,,,,,,,,,,,,,,,,,,,,,,,,,,,,,,,,,,,,,,,,,,,,,,,,1,2023-12-20_12h31.41.696,watkins1,2023.2.3,99.73928152996459,73,2023-12-20 12h31.47.196432 +0000,
,,,,,,,2,0,2,0,,,,,,,,,,,,,,,,,59.50629310007207,,,,,,,,,,59.497330700047314,59.98830430000089,,,1,2.6879936000332236,,,,,,,,,,,,,,,,,,,,,59.98831470008008,65.99142650002614,Lampe,flach,"['Lampe', 'flach']",control,1,"['Jacke', 'Uhr', 'Lampe', 'Geige', 'Kette', 'Rucksack', 'Kamera', 'Schere', 'Ring', 'Trommel', 'Eimer', 'Fahrrad', 'Blume', 'Schlüssel', 'Hammer', 'Stift', 'Kerze', 'Flasche', 'Tasse', 'Telefon', 'Vase', 'Socke']","['breit', 'elegant', 'flach']",1,2.6879936000332236,None,,,,,,,,,,,,,,,,,,,,,,,,,,,,,,,,,,,,,,,,,,,,,,,,,,,,,,,,,,,,,,,,,,,,,1,2023-12-20_12h31.41.696,watkins1,2023.2.3,99.73928152996459,73,2023-12-20 12h31.47.196432 +0000,
,,,,,,,3,0,3,0,,,,,,,,,,,,,,,,,66.00082920002751,,,,,,,,,,65.99190380005166,66.48316520010121,,,1,0.2745266000274569,,,,,,,,,,,,,,,,,,,,,66.48317640007008,72.48647040000651,Geige,lang,"['Geige', 'lang']",restudy_diff,1,"['Jacke', 'Uhr', 'Lampe', 'Geige', 'Kette', 'Rucksack', 'Kamera', 'Schere', 'Ring', 'Trommel', 'Eimer', 'Fahrrad', 'Blume', 'Schlüssel', 'Hammer', 'Stift', 'Kerze', 'Flasche', 'Tasse', 'Telefon', 'Vase', 'Socke']","['breit', 'elegant', 'flach', 'lang']",1,0.2745266000274569,None,,,,,,,,,,,,,,,,,,,,,,,,,,,,,,,,,,,,,,,,,,,,,,,,,,,,,,,,,,,,,,,,,,,,,1,2023-12-20_12h31.41.696,watkins1,2023.2.3,99.73928152996459,73,2023-12-20 12h31.47.196432 +0000,
,,,,,,,4,0,4,0,,,,,,,,,,,,,,,,,72.49598090001382,,,,,,,,,,72.48694800003432,72.97819980001077,,,1,2.2510655999649316,,,,,,,,,,,,,,,,,,,,,72.97821090009529,78.9817686000606,Kette,gut,"['Kette', 'gut']",restudy_diff,1,"['Jacke', 'Uhr', 'Lampe', 'Geige', 'Kette', 'Rucksack', 'Kamera', 'Schere', 'Ring', 'Trommel', 'Eimer', 'Fahrrad', 'Blume', 'Schlüssel', 'Hammer', 'Stift', 'Kerze', 'Flasche', 'Tasse', 'Telefon', 'Vase', 'Socke']","['breit', 'elegant', 'flach', 'lang', 'gut']",1,2.2510655999649316,None,,,,,,,,,,,,,,,,,,,,,,,,,,,,,,,,,,,,,,,,,,,,,,,,,,,,,,,,,,,,,,,,,,,,,1,2023-12-20_12h31.41.696,watkins1,2023.2.3,99.73928152996459,73,2023-12-20 12h31.47.196432 +0000,
,,,,,,,5,0,5,0,,,,,,,,,,,,,,,,,78.99132930010092,,,,,,,,,,78.98223349999171,79.47332550003193,,,3,3.1711931999307126,,,,,,,,,,,,,,,,,,,,,79.47333639999852,85.47843940008897,Rucksack,hohl,"['Rucksack', 'hohl']",restudy_diff,1,"['Jacke', 'Uhr', 'Lampe', 'Geige', 'Kette', 'Rucksack', 'Kamera', 'Schere', 'Ring', 'Trommel', 'Eimer', 'Fahrrad', 'Blume', 'Schlüssel', 'Hammer', 'Stift', 'Kerze', 'Flasche', 'Tasse', 'Telefon', 'Vase', 'Socke']","['breit', 'elegant', 'flach', 'lang', 'gut', 'hohl']",3,3.1711931999307126,None,,,,,,,,,,,,,,,,,,,,,,,,,,,,,,,,,,,,,,,,,,,,,,,,,,,,,,,,,,,,,,,,,,,,,1,2023-12-20_12h31.41.696,watkins1,2023.2.3,99.73928152996459,73,2023-12-20 12h31.47.196432 +0000,
,,,,,,,6,0,6,0,,,,,,,,,,,,,,,,,85.48789039999247,,,,,,,,,,85.47891930001788,85.97010060003959,,,1,3.572881400003098,,,,,,,,,,,,,,,,,,,,,85.97011120000388,91.97889330005273,Kamera,kaputt,"['Kamera', 'kaputt']",restudy_diff,1,"['Jacke', 'Uhr', 'Lampe', 'Geige', 'Kette', 'Rucksack', 'Kamera', 'Schere', 'Ring', 'Trommel', 'Eimer', 'Fahrrad', 'Blume', 'Schlüssel', 'Hammer', 'Stift', 'Kerze', 'Flasche', 'Tasse', 'Telefon', 'Vase', 'Socke']","['breit', 'elegant', 'flach', 'lang', 'gut', 'hohl', 'kaputt']",1,3.572881400003098,None,,,,,,,,,,,,,,,,,,,,,,,,,,,,,,,,,,,,,,,,,,,,,,,,,,,,,,,,,,,,,,,,,,,,,1,2023-12-20_12h31.41.696,watkins1,2023.2.3,99.73928152996459,73,2023-12-20 12h31.47.196432 +0000,
,,,,,,,7,0,7,0,,,,,,,,,,,,,,,,,91.98832270002458,,,,,,,,,,91.97935480007436,92.47033670009114,,,2,2.9354839000152424,,,,,,,,,,,,,,,,,,,,,92.47034750005696,98.48002830008045,Schere,schlicht,"['Schere', 'schlicht']",control,1,"['Jacke', 'Uhr', 'Lampe', 'Geige', 'Kette', 'Rucksack', 'Kamera', 'Schere', 'Ring', 'Trommel', 'Eimer', 'Fahrrad', 'Blume', 'Schlüssel', 'Hammer', 'Stift', 'Kerze', 'Flasche', 'Tasse', 'Telefon', 'Vase', 'Socke']","['breit', 'elegant', 'flach', 'lang', 'gut', 'hohl', 'kaputt', 'schlicht']",2,2.9354839000152424,None,,,,,,,,,,,,,,,,,,,,,,,,,,,,,,,,,,,,,,,,,,,,,,,,,,,,,,,,,,,,,,,,,,,,,1,2023-12-20_12h31.41.696,watkins1,2023.2.3,99.73928152996459,73,2023-12-20 12h31.47.196432 +0000,
,,,,,,,8,0,8,0,,,,,,,,,,,,,,,,,98.48945420002565,,,,,,,,,,98.4805032000877,98.97155890008435,,,1,2.634854600066319,,,,,,,,,,,,,,,,,,,,,98.97157000005245,104.98014680005144,Ring,gepunktet,"['Ring', 'gepunktet']",control,1,"['Jacke', 'Uhr', 'Lampe', 'Geige', 'Kette', 'Rucksack', 'Kamera', 'Schere', 'Ring', 'Trommel', 'Eimer', 'Fahrrad', 'Blume', 'Schlüssel', 'Hammer', 'Stift', 'Kerze', 'Flasche', 'Tasse', 'Telefon', 'Vase', 'Socke']","['breit', 'elegant', 'flach', 'lang', 'gut', 'hohl', 'kaputt', 'schlicht', 'gepunktet']",1,2.634854600066319,None,,,,,,,,,,,,,,,,,,,,,,,,,,,,,,,,,,,,,,,,,,,,,,,,,,,,,,,,,,,,,,,,,,,,,1,2023-12-20_12h31.41.696,watkins1,2023.2.3,99.73928152996459,73,2023-12-20 12h31.47.196432 +0000,
,,,,,,,9,0,9,0,,,,,,,,,,,,,,,,,104.98961210006382,,,,,,,,,,104.98063040000852,105.47169190004934,,,1,1.5096843000501394,,,,,,,,,,,,,,,,,,,,,105.47170300001744,111.47350530000404,Trommel,niedlich,"['Trommel', 'niedlich']",restudy_diff,1,"['Jacke', 'Uhr', 'Lampe', 'Geige', 'Kette', 'Rucksack', 'Kamera', 'Schere', 'Ring', 'Trommel', 'Eimer', 'Fahrrad', 'Blume', 'Schlüssel', 'Hammer', 'Stift', 'Kerze', 'Flasche', 'Tasse', 'Telefon', 'Vase', 'Socke']","['breit', 'elegant', 'flach', 'lang', 'gut', 'hohl', 'kaputt', 'schlicht', 'gepunktet', 'niedlich']",1,1.5096843000501394,None,,,,,,,,,,,,,,,,,,,,,,,,,,,,,,,,,,,,,,,,,,,,,,,,,,,,,,,,,,,,,,,,,,,,,1,2023-12-20_12h31.41.696,watkins1,2023.2.3,99.73928152996459,73,2023-12-20 12h31.47.196432 +0000,
,,,,,,,10,0,10,0,,,,,,,,,,,,,,,,,111.48291130003054,,,,,,,,,,111.47397360007744,111.96509529999457,,,1,1.4882822999497876,,,,,,,,,,,,,,,,,,,,,111.9651064000791,117.96756630006712,Eimer,sportlich,"['Eimer', 'sportlich']",control,1,"['Jacke', 'Uhr', 'Lampe', 'Geige', 'Kette', 'Rucksack', 'Kamera', 'Schere', 'Ring', 'Trommel', 'Eimer', 'Fahrrad', 'Blume', 'Schlüssel', 'Hammer', 'Stift', 'Kerze', 'Flasche', 'Tasse', 'Telefon', 'Vase', 'Socke']","['breit', 'elegant', 'flach', 'lang', 'gut', 'hohl', 'kaputt', 'schlicht', 'gepunktet', 'niedlich', 'sportlich']",1,1.4882822999497876,None,,,,,,,,,,,,,,,,,,,,,,,,,,,,,,,,,,,,,,,,,,,,,,,,,,,,,,,,,,,,,,,,,,,,,1,2023-12-20_12h31.41.696,watkins1,2023.2.3,99.73928152996459,73,2023-12-20 12h31.47.196432 +0000,
,,,,,,,11,0,11,0,,,,,,,,,,,,,,,,,117.9770029000938,,,,,,,,,,117.96803760004696,118.459371700068,,,1,1.2499469000613317,,,,,,,,,,,,,,,,,,,,,118.4593823000323,124.4601735000033,Fahrrad,hübsch,"['Fahrrad', 'hübsch']",restudy_diff,1,"['Jacke', 'Uhr', 'Lampe', 'Geige', 'Kette', 'Rucksack', 'Kamera', 'Schere', 'Ring', 'Trommel', 'Eimer', 'Fahrrad', 'Blume', 'Schlüssel', 'Hammer', 'Stift', 'Kerze', 'Flasche', 'Tasse', 'Telefon', 'Vase', 'Socke']","['breit', 'elegant', 'flach', 'lang', 'gut', 'hohl', 'kaputt', 'schlicht', 'gepunktet', 'niedlich', 'sportlich', 'hübsch']",1,1.2499469000613317,None,,,,,,,,,,,,,,,,,,,,,,,,,,,,,,,,,,,,,,,,,,,,,,,,,,,,,,,,,,,,,,,,,,,,,1,2023-12-20_12h31.41.696,watkins1,2023.2.3,99.73928152996459,73,2023-12-20 12h31.47.196432 +0000,
,,,,,,,12,0,12,0,,,,,,,,,,,,,,,,,124.46962480002549,,,,,,,,,,124.46062980010174,124.95156770001631,,,1,2.4450751999393106,,,,,,,,,,,,,,,,,,,,,124.95157780009322,130.957174600102,Blume,winzig,"['Blume', 'winzig']",restudy_diff,1,"['Jacke', 'Uhr', 'Lampe', 'Geige', 'Kette', 'Rucksack', 'Kamera', 'Schere', 'Ring', 'Trommel', 'Eimer', 'Fahrrad', 'Blume', 'Schlüssel', 'Hammer', 'Stift', 'Kerze', 'Flasche', 'Tasse', 'Telefon', 'Vase', 'Socke']","['breit', 'elegant', 'flach', 'lang', 'gut', 'hohl', 'kaputt', 'schlicht', 'gepunktet', 'niedlich', 'sportlich', 'hübsch', 'winzig']",1,2.4450751999393106,None,,,,,,,,,,,,,,,,,,,,,,,,,,,,,,,,,,,,,,,,,,,,,,,,,,,,,,,,,,,,,,,,,,,,,1,2023-12-20_12h31.41.696,watkins1,2023.2.3,99.73928152996459,73,2023-12-20 12h31.47.196432 +0000,
,,,,,,,13,0,13,0,,,,,,,,,,,,,,,,,130.96670690004248,,,,,,,,,,130.95764260005672,131.44873950001784,,,2,2.4456761999754235,,,,,,,,,,,,,,,,,,,,,131.44875040010083,137.45010030001868,Schlüssel,robust,"['Schlüssel', 'robust']",control,1,"['Jacke', 'Uhr', 'Lampe', 'Geige', 'Kette', 'Rucksack', 'Kamera', 'Schere', 'Ring', 'Trommel', 'Eimer', 'Fahrrad', 'Blume', 'Schlüssel', 'Hammer', 'Stift', 'Kerze', 'Flasche', 'Tasse', 'Telefon', 'Vase', 'Socke']","['breit', 'elegant', 'flach', 'lang', 'gut', 'hohl', 'kaputt', 'schlicht', 'gepunktet', 'niedlich', 'sportlich', 'hübsch', 'winzig', 'robust']",2,2.4456761999754235,None,,,,,,,,,,,,,,,,,,,,,,,,,,,,,,,,,,,,,,,,,,,,,,,,,,,,,,,,,,,,,,,,,,,,,1,2023-12-20_12h31.41.696,watkins1,2023.2.3,99.73928152996459,73,2023-12-20 12h31.47.196432 +0000,
,,,,,,,14,0,14,0,,,,,,,,,,,,,,,,,137.45958390005399,,,,,,,,,,137.450563600054,137.9416884999955,,,1,2.935739600099623,,,,,,,,,,,,,,,,,,,,,137.94169900007546,143.95205469999928,Hammer,nachhaltig,"['Hammer', 'nachhaltig']",restudy_diff,1,"['Jacke', 'Uhr', 'Lampe', 'Geige', 'Kette', 'Rucksack', 'Kamera', 'Schere', 'Ring', 'Trommel', 'Eimer', 'Fahrrad', 'Blume', 'Schlüssel', 'Hammer', 'Stift', 'Kerze', 'Flasche', 'Tasse', 'Telefon', 'Vase', 'Socke']","['breit', 'elegant', 'flach', 'lang', 'gut', 'hohl', 'kaputt', 'schlicht', 'gepunktet', 'niedlich', 'sportlich', 'hübsch', 'winzig', 'robust', 'nachhaltig']",1,2.935739600099623,None,,,,,,,,,,,,,,,,,,,,,,,,,,,,,,,,,,,,,,,,,,,,,,,,,,,,,,,,,,,,,,,,,,,,,1,2023-12-20_12h31.41.696,watkins1,2023.2.3,99.73928152996459,73,2023-12-20 12h31.47.196432 +0000,
,,,,,,,15,0,15,0,,,,,,,,,,,,,,,,,143.9615341000026,,,,,,,,,,143.95252930000424,144.44357030000538,,,3,2.2907411999767646,,,,,,,,,,,,,,,,,,,,,144.44358070008457,150.44758500007447,Stift,praktisch,"['Stift', 'praktisch']",control,1,"['Jacke', 'Uhr', 'Lampe', 'Geige', 'Kette', 'Rucksack', 'Kamera', 'Schere', 'Ring', 'Trommel', 'Eimer', 'Fahrrad', 'Blume', 'Schlüssel', 'Hammer', 'Stift', 'Kerze', 'Flasche', 'Tasse', 'Telefon', 'Vase', 'Socke']","['breit', 'elegant', 'flach', 'lang', 'gut', 'hohl', 'kaputt', 'schlicht', 'gepunktet', 'niedlich', 'sportlich', 'hübsch', 'winzig', 'robust', 'nachhaltig', 'praktisch']",3,2.2907411999767646,None,,,,,,,,,,,,,,,,,,,,,,,,,,,,,,,,,,,,,,,,,,,,,,,,,,,,,,,,,,,,,,,,,,,,,1,2023-12-20_12h31.41.696,watkins1,2023.2.3,99.73928152996459,73,2023-12-20 12h31.47.196432 +0000,
,,,,,,,16,0,16,0,,,,,,,,,,,,,,,,,150.45712120004464,,,,,,,,,,150.4480550000444,150.93925200006925,,,3,2.123475300031714,,,,,,,,,,,,,,,,,,,,,150.93926240003202,156.94749270007014,Kerze,neu,"['Kerze', 'neu']",restudy_diff,1,"['Jacke', 'Uhr', 'Lampe', 'Geige', 'Kette', 'Rucksack', 'Kamera', 'Schere', 'Ring', 'Trommel', 'Eimer', 'Fahrrad', 'Blume', 'Schlüssel', 'Hammer', 'Stift', 'Kerze', 'Flasche', 'Tasse', 'Telefon', 'Vase', 'Socke']","['breit', 'elegant', 'flach', 'lang', 'gut', 'hohl', 'kaputt', 'schlicht', 'gepunktet', 'niedlich', 'sportlich', 'hübsch', 'winzig', 'robust', 'nachhaltig', 'praktisch', 'neu']",3,2.123475300031714,None,,,,,,,,,,,,,,,,,,,,,,,,,,,,,,,,,,,,,,,,,,,,,,,,,,,,,,,,,,,,,,,,,,,,,1,2023-12-20_12h31.41.696,watkins1,2023.2.3,99.73928152996459,73,2023-12-20 12h31.47.196432 +0000,
,,,,,,,17,0,17,0,,,,,,,,,,,,,,,,,156.95701490005013,,,,,,,,,,156.94797100010328,157.43911390006542,,,1,2.591472400003113,,,,,,,,,,,,,,,,,,,,,157.4391251000343,163.44737000006717,Flasche,kurz,"['Flasche', 'kurz']",control,1,"['Jacke', 'Uhr', 'Lampe', 'Geige', 'Kette', 'Rucksack', 'Kamera', 'Schere', 'Ring', 'Trommel', 'Eimer', 'Fahrrad', 'Blume', 'Schlüssel', 'Hammer', 'Stift', 'Kerze', 'Flasche', 'Tasse', 'Telefon', 'Vase', 'Socke']","['breit', 'elegant', 'flach', 'lang', 'gut', 'hohl', 'kaputt', 'schlicht', 'gepunktet', 'niedlich', 'sportlich', 'hübsch', 'winzig', 'robust', 'nachhaltig', 'praktisch', 'neu', 'kurz']",1,2.591472400003113,None,,,,,,,,,,,,,,,,,,,,,,,,,,,,,,,,,,,,,,,,,,,,,,,,,,,,,,,,,,,,,,,,,,,,,1,2023-12-20_12h31.41.696,watkins1,2023.2.3,99.73928152996459,73,2023-12-20 12h31.47.196432 +0000,
,,,,,,,18,0,18,0,,,,,,,,,,,,,,,,,163.45679960004054,,,,,,,,,,163.44784270005766,163.93892310000956,,,1,1.7154480000026524,,,,,,,,,,,,,,,,,,,,,163.93893410009332,169.94851340004243,Tasse,kratzig,"['Tasse', 'kratzig']",restudy_diff,1,"['Jacke', 'Uhr', 'Lampe', 'Geige', 'Kette', 'Rucksack', 'Kamera', 'Schere', 'Ring', 'Trommel', 'Eimer', 'Fahrrad', 'Blume', 'Schlüssel', 'Hammer', 'Stift', 'Kerze', 'Flasche', 'Tasse', 'Telefon', 'Vase', 'Socke']","['breit', 'elegant', 'flach', 'lang', 'gut', 'hohl', 'kaputt', 'schlicht', 'gepunktet', 'niedlich', 'sportlich', 'hübsch', 'winzig', 'robust', 'nachhaltig', 'praktisch', 'neu', 'kurz', 'kratzig']",1,1.7154480000026524,None,,,,,,,,,,,,,,,,,,,,,,,,,,,,,,,,,,,,,,,,,,,,,,,,,,,,,,,,,,,,,,,,,,,,,1,2023-12-20_12h31.41.696,watkins1,2023.2.3,99.73928152996459,73,2023-12-20 12h31.47.196432 +0000,
,,,,,,,19,0,19,0,,,,,,,,,,,,,,,,,169.95808600005694,,,,,,,,,,169.94898840005044,170.43991459999233,,,1,1.837408399907872,,,,,,,,,,,,,,,,,,,,,170.43992570007686,176.44099110004026,Telefon,hässlich,"['Telefon', 'hässlich']",restudy_diff,1,"['Jacke', 'Uhr', 'Lampe', 'Geige', 'Kette', 'Rucksack', 'Kamera', 'Schere', 'Ring', 'Trommel', 'Eimer', 'Fahrrad', 'Blume', 'Schlüssel', 'Hammer', 'Stift', 'Kerze', 'Flasche', 'Tasse', 'Telefon', 'Vase', 'Socke']","['breit', 'elegant', 'flach', 'lang', 'gut', 'hohl', 'kaputt', 'schlicht', 'gepunktet', 'niedlich', 'sportlich', 'hübsch', 'winzig', 'robust', 'nachhaltig', 'praktisch', 'neu', 'kurz', 'kratzig', 'hässlich']",1,1.837408399907872,None,,,,,,,,,,,,,,,,,,,,,,,,,,,,,,,,,,,,,,,,,,,,,,,,,,,,,,,,,,,,,,,,,,,,,1,2023-12-20_12h31.41.696,watkins1,2023.2.3,99.73928152996459,73,2023-12-20 12h31.47.196432 +0000,
,,,,,,,20,0,20,0,,,,,,,,,,,,,,,,,176.45049410010688,,,,,,,,,,176.44146410003304,176.93256860005204,,,3,1.3442634999519214,,,,,,,,,,,,,,,,,,,,,176.93257940001786,182.93525490001775,Vase,groß,"['Vase', 'groß']",restudy_diff,1,"['Jacke', 'Uhr', 'Lampe', 'Geige', 'Kette', 'Rucksack', 'Kamera', 'Schere', 'Ring', 'Trommel', 'Eimer', 'Fahrrad', 'Blume', 'Schlüssel', 'Hammer', 'Stift', 'Kerze', 'Flasche', 'Tasse', 'Telefon', 'Vase', 'Socke']","['breit', 'elegant', 'flach', 'lang', 'gut', 'hohl', 'kaputt', 'schlicht', 'gepunktet', 'niedlich', 'sportlich', 'hübsch', 'winzig', 'robust', 'nachhaltig', 'praktisch', 'neu', 'kurz', 'kratzig', 'hässlich', 'groß']",3,1.3442634999519214,None,,,,,,,,,,,,,,,,,,,,,,,,,,,,,,,,,,,,,,,,,,,,,,,,,,,,,,,,,,,,,,,,,,,,,1,2023-12-20_12h31.41.696,watkins1,2023.2.3,99.73928152996459,73,2023-12-20 12h31.47.196432 +0000,
,,,,,,,21,0,21,0,,,,,,,,,,,,,,,,,182.94476630003192,,,,,,,,,,182.9357293000212,183.42678710003383,,,3,2.0031874000560492,,,,,,,,,,,,,,,,,,,,,183.42679870000575,189.4362778000068,Socke,schmutzig,"['Socke', 'schmutzig']",restudy_diff,1,"['Jacke', 'Uhr', 'Lampe', 'Geige', 'Kette', 'Rucksack', 'Kamera', 'Schere', 'Ring', 'Trommel', 'Eimer', 'Fahrrad', 'Blume', 'Schlüssel', 'Hammer', 'Stift', 'Kerze', 'Flasche', 'Tasse', 'Telefon', 'Vase', 'Socke']","['breit', 'elegant', 'flach', 'lang', 'gut', 'hohl', 'kaputt', 'schlicht', 'gepunktet', 'niedlich', 'sportlich', 'hübsch', 'winzig', 'robust', 'nachhaltig', 'praktisch', 'neu', 'kurz', 'kratzig', 'hässlich', 'groß', 'schmutzig']",3,2.0031874000560492,None,,,,,,,,,,,,,,,,,,,,,,,,,,,,,,,,,,,,,,,,,,,,,,,,,,,,,,,,,,,,,,,,,,,,,1,2023-12-20_12h31.41.696,watkins1,2023.2.3,99.73928152996459,73,2023-12-20 12h31.47.196432 +0000,
,,,,,,,,,,,0,0,0,0,,,,,,,,,,,,,189.44572370010428,,,,,,,,,,189.43709650007077,189.92780770000536,,,1,2.104587999987416,,,,,,,,,,,,None,None,,,,,,,,,,Trommel,teuer,"['Trommel', 'teuer']",restudy_diff,1,,,,,,189.4370209000772,189.43707109999377,"['Trommel', 'Rucksack', 'Kette', 'Kerze', 'Geige', 'Buch', 'Kiste', 'Socke', 'Hammer', 'Fahrrad', 'Hut', 'Brille', 'Löffel', 'Telefon', 'Tasse', 'Jacke', 'Würfel', 'Tasche', 'Blume', 'Vase', 'Kamera', 'Uhr', 'Bürste']",189.92781830008607,189.93070190004073,None,189.93087280006148,189.93350370007101,None,189.9336559000658,195.93911090004258,1,2.104587999987416,None,195.93950730003417,195.94081160007045,195.9408239000477,195.94195830007084,,,,,,,,,,,,,,,,,,,,,,,,,,,,,,,,,,,,,,,,,,,,,,,,,,,1,2023-12-20_12h31.41.696,watkins1,2023.2.3,99.73928152996459,73,2023-12-20 12h31.47.196432 +0000,
,,,,,,,,,,,1,0,1,0,,,,,,,,,,,,,195.94865080004092,,,,,,,,,,195.9422240999993,196.4406133000739,,,3,1.5681650000624359,,,,,,,,,,,,None,None,,,,,,,,,,Rucksack,gestreift,"['Rucksack', 'gestreift']",restudy_diff,1,,,,,,195.94216120010242,195.94219830003567,"['Trommel', 'Rucksack', 'Kette', 'Kerze', 'Geige', 'Buch', 'Kiste', 'Socke', 'Hammer', 'Fahrrad', 'Hut', 'Brille', 'Löffel', 'Telefon', 'Tasse', 'Jacke', 'Würfel', 'Tasche', 'Blume', 'Vase', 'Kamera', 'Uhr', 'Bürste']",196.44062510004733,196.44348060002085,None,196.4436039000284,196.4461888000369,None,196.44629160000477,202.45456860004924,3,1.5681650000624359,None,202.45485310000367,202.45618400000967,202.456195600098,202.45742520003114,,,,,,,,,,,,,,,,,,,,,,,,,,,,,,,,,,,,,,,,,,,,,,,,,,,1,2023-12-20_12h31.41.696,watkins1,2023.2.3,99.73928152996459,73,2023-12-20 12h31.47.196432 +0000,
,,,,,,,,,,,2,0,2,0,,,,,,,,,,,,,202.46391760010738,,,,,,,,,,202.4576895000646,202.95579810009804,,,1,1.4365241000195965,,,,,,,,,,,,None,None,,,,,,,,,,Kette,dunkel,"['Kette', 'dunkel']",restudy_diff,1,,,,,,202.45762410003226,202.4576615000842,"['Trommel', 'Rucksack', 'Kette', 'Kerze', 'Geige', 'Buch', 'Kiste', 'Socke', 'Hammer', 'Fahrrad', 'Hut', 'Brille', 'Löffel', 'Telefon', 'Tasse', 'Jacke', 'Würfel', 'Tasche', 'Blume', 'Vase', 'Kamera', 'Uhr', 'Bürste']",202.95580970006995,202.95894130005036,None,202.9590589000145,202.96167140000034,None,202.9617745000869,208.96384450001642,1,1.4365241000195965,None,208.96411659999285,208.9653884000145,208.96540040010586,208.96658230002504,,,,,,,,,,,,,,,,,,,,,,,,,,,,,,,,,,,,,,,,,,,,,,,,,,,1,2023-12-20_12h31.41.696,watkins1,2023.2.3,99.73928152996459,73,2023-12-20 12h31.47.196432 +0000,
,,,,,,,,,,,3,0,3,0,,,,,,,,,,,,,208.97342250007205,,,,,,,,,,208.96685500000603,209.46564080007374,,,2,4.143364100018516,,,,,,,,,,,,None,None,,,,,,,,,,Kerze,glänzend,"['Kerze', 'glänzend']",restudy_diff,1,,,,,,208.9667899000924,208.96682840003632,"['Trommel', 'Rucksack', 'Kette', 'Kerze', 'Geige', 'Buch', 'Kiste', 'Socke', 'Hammer', 'Fahrrad', 'Hut', 'Brille', 'Löffel', 'Telefon', 'Tasse', 'Jacke', 'Würfel', 'Tasche', 'Blume', 'Vase', 'Kamera', 'Uhr', 'Bürste']",209.4656520000426,209.4685143000679,None,209.46863060002215,209.47115390002728,None,209.47125820000656,215.47817250003573,2,4.143364100018516,None,215.47844460001215,215.47971530002542,215.47972719999962,215.48093800002243,,,,,,,,,,,,,,,,,,,,,,,,,,,,,,,,,,,,,,,,,,,,,,,,,,,1,2023-12-20_12h31.41.696,watkins1,2023.2.3,99.73928152996459,73,2023-12-20 12h31.47.196432 +0000,
,,,,,,,,,,,4,0,4,0,,,,,,,,,,,,,215.48769690003246,,,,,,,,,,215.48120530007873,215.9796830000123,,,1,1.8774651000276208,,,,,,,,,,,,None,None,,,,,,,,,,Geige,dick,"['Geige', 'dick']",restudy_diff,1,,,,,,215.48114080005325,215.48117859999184,"['Trommel', 'Rucksack', 'Kette', 'Kerze', 'Geige', 'Buch', 'Kiste', 'Socke', 'Hammer', 'Fahrrad', 'Hut', 'Brille', 'Löffel', 'Telefon', 'Tasse', 'Jacke', 'Würfel', 'Tasche', 'Blume', 'Vase', 'Kamera', 'Uhr', 'Bürste']",215.97969380009454,215.98263970005792,None,215.98275680001825,215.985293500009,None,215.9853952000849,221.9941937000258,1,1.8774651000276208,None,221.9944697000319,221.99576640001033,221.99577900010627,221.996830600081,,,,,,,,,,,,,,,,,,,,,,,,,,,,,,,,,,,,,,,,,,,,,,,,,,,1,2023-12-20_12h31.41.696,watkins1,2023.2.3,99.73928152996459,73,2023-12-20 12h31.47.196432 +0000,
,,,,,,,,,,,5,0,5,0,,,,,,,,,,,,,222.0036170000676,,,,,,,,,,221.99710380006582,222.49571070005186,,,[],[],,,,,,,,,,,,None,None,,,,,,,,,,Buch,klobig,"['Buch', 'klobig']",control,1,,,,,,221.99703780002892,221.99707640009,"['Trommel', 'Rucksack', 'Kette', 'Kerze', 'Geige', 'Buch', 'Kiste', 'Socke', 'Hammer', 'Fahrrad', 'Hut', 'Brille', 'Löffel', 'Telefon', 'Tasse', 'Jacke', 'Würfel', 'Tasche', 'Blume', 'Vase', 'Kamera', 'Uhr', 'Bürste']",222.49572160001844,228.50037840008736,2,228.50073570001405,228.50338550005108,None,228.50349110004026,228.5058907000348,None,,,228.50599239999428,228.50704010005575,228.50705190002918,228.50822350010276,2.461942399968393,None,,,,,,,,,,,,,,,,,,,,,,,,,,,,,,,,,,,,,,,,,,,,,,,,,1,2023-12-20_12h31.41.696,watkins1,2023.2.3,99.73928152996459,73,2023-12-20 12h31.47.196432 +0000,
,,,,,,,,,,,6,0,6,0,,,,,,,,,,,,,228.51191520004068,,,,,,,,,,228.5084948000731,229.0050253000809,,,[],[],,,,,,,,,,,,None,None,,,,,,,,,,Kiste,durchsichtig,"['Kiste', 'durchsichtig']",control,1,,,,,,228.50842940004077,228.50846860010643,"['Trommel', 'Rucksack', 'Kette', 'Kerze', 'Geige', 'Buch', 'Kiste', 'Socke', 'Hammer', 'Fahrrad', 'Hut', 'Brille', 'Löffel', 'Telefon', 'Tasse', 'Jacke', 'Würfel', 'Tasche', 'Blume', 'Vase', 'Kamera', 'Uhr', 'Bürste']",229.00503600004595,235.01556610001717,3,235.01583190006204,235.01862720004283,None,235.01872930000536,235.0213015000336,None,,,235.02140070009045,235.02252170001157,235.02253320009913,235.02379940007813,3.1133452999638394,None,,,,,,,,,,,,,,,,,,,,,,,,,,,,,,,,,,,,,,,,,,,,,,,,,1,2023-12-20_12h31.41.696,watkins1,2023.2.3,99.73928152996459,73,2023-12-20 12h31.47.196432 +0000,
,,,,,,,,,,,7,0,7,0,,,,,,,,,,,,,235.02739560010377,,,,,,,,,,235.02406190009788,235.5206989001017,,,1,1.810799700091593,,,,,,,,,,,,None,None,,,,,,,,,,Socke,schwer,"['Socke', 'schwer']",restudy_diff,1,,,,,,235.02399800007697,235.02403820003383,"['Trommel', 'Rucksack', 'Kette', 'Kerze', 'Geige', 'Buch', 'Kiste', 'Socke', 'Hammer', 'Fahrrad', 'Hut', 'Brille', 'Löffel', 'Telefon', 'Tasse', 'Jacke', 'Würfel', 'Tasche', 'Blume', 'Vase', 'Kamera', 'Uhr', 'Bürste']",235.52071180008352,235.52226180001162,None,235.5223770000739,235.52378950000275,None,235.52389140008017,241.52735970006324,1,1.810799700091593,None,241.527632500045,241.52889459999278,241.5289065000834,241.53005260007922,,,,,,,,,,,,,,,,,,,,,,,,,,,,,,,,,,,,,,,,,,,,,,,,,,,1,2023-12-20_12h31.41.696,watkins1,2023.2.3,99.73928152996459,73,2023-12-20 12h31.47.196432 +0000,
,,,,,,,,,,,8,0,8,0,,,,,,,,,,,,,241.53681560000405,,,,,,,,,,241.5303158001043,242.02887790009845,,,1,2.9566924000391737,,,,,,,,,,,,None,None,,,,,,,,,,Hammer,nass,"['Hammer', 'nass']",restudy_diff,1,,,,,,241.5302524000872,241.53029020002577,"['Trommel', 'Rucksack', 'Kette', 'Kerze', 'Geige', 'Buch', 'Kiste', 'Socke', 'Hammer', 'Fahrrad', 'Hut', 'Brille', 'Löffel', 'Telefon', 'Tasse', 'Jacke', 'Würfel', 'Tasche', 'Blume', 'Vase', 'Kamera', 'Uhr', 'Bürste']",242.028888400062,242.03152680001222,None,242.03164230007678,242.03413700009696,None,242.03423920006026,248.03886349999812,1,2.9566924000391737,None,248.03913440008182,248.04052320006303,248.04053510003723,248.0415564000141,,,,,,,,,,,,,,,,,,,,,,,,,,,,,,,,,,,,,,,,,,,,,,,,,,,1,2023-12-20_12h31.41.696,watkins1,2023.2.3,99.73928152996459,73,2023-12-20 12h31.47.196432 +0000,
,,,,,,,,,,,9,0,9,0,,,,,,,,,,,,,248.0483733000001,,,,,,,,,,248.04182360006962,248.5405101000797,,,1,5.373218100052327,,,,,,,,,,,,None,None,,,,,,,,,,Fahrrad,zart,"['Fahrrad', 'zart']",restudy_diff,1,,,,,,248.04175910004415,248.0417970000999,"['Trommel', 'Rucksack', 'Kette', 'Kerze', 'Geige', 'Buch', 'Kiste', 'Socke', 'Hammer', 'Fahrrad', 'Hut', 'Brille', 'Löffel', 'Telefon', 'Tasse', 'Jacke', 'Würfel', 'Tasche', 'Blume', 'Vase', 'Kamera', 'Uhr', 'Bürste']",248.5405215000501,248.54316090000793,None,248.54327750008088,248.54565270000603,None,248.54575380007736,254.54853020003065,1,5.373218100052327,None,254.54880029999185,254.5500788000645,254.55009060003795,254.55120200000238,,,,,,,,,,,,,,,,,,,,,,,,,,,,,,,,,,,,,,,,,,,,,,,,,,,1,2023-12-20_12h31.41.696,watkins1,2023.2.3,99.73928152996459,73,2023-12-20 12h31.47.196432 +0000,
,,,,,,,,,,,10,0,10,0,,,,,,,,,,,,,254.55796550004743,,,,,,,,,,254.55146670003887,255.0500286000315,,,[],[],,,,,,,,,,,,None,None,,,,,,,,,,Hut,strahlend,"['Hut', 'strahlend']",control,1,,,,,,254.55140460003167,254.55144170008134,"['Trommel', 'Rucksack', 'Kette', 'Kerze', 'Geige', 'Buch', 'Kiste', 'Socke', 'Hammer', 'Fahrrad', 'Hut', 'Brille', 'Löffel', 'Telefon', 'Tasse', 'Jacke', 'Würfel', 'Tasche', 'Blume', 'Vase', 'Kamera', 'Uhr', 'Bürste']",255.05003959999885,261.05156330007594,1,261.05183570005465,261.0544419999933,None,261.05454969999846,261.0569889000617,None,,,261.0570931000402,261.058124900097,261.05813650006894,261.0593782000942,2.7564667999977246,None,,,,,,,,,,,,,,,,,,,,,,,,,,,,,,,,,,,,,,,,,,,,,,,,,1,2023-12-20_12h31.41.696,watkins1,2023.2.3,99.73928152996459,73,2023-12-20 12h31.47.196432 +0000,
,,,,,,,,,,,11,0,11,0,,,,,,,,,,,,,261.06289030006155,,,,,,,,,,261.05964920006227,261.5558075000299,,,[],[],,,,,,,,,,,,None,None,,,,,,,,,,Brille,glatt,"['Brille', 'glatt']",control,1,,,,,,261.05958510003984,261.0596249999944,"['Trommel', 'Rucksack', 'Kette', 'Kerze', 'Geige', 'Buch', 'Kiste', 'Socke', 'Hammer', 'Fahrrad', 'Hut', 'Brille', 'Löffel', 'Telefon', 'Tasse', 'Jacke', 'Würfel', 'Tasche', 'Blume', 'Vase', 'Kamera', 'Uhr', 'Bürste']",261.55581900000107,267.5612897000974,2,267.56156639999244,267.56426080001984,None,267.5643640999915,267.5668816000689,None,,,267.5669842000352,267.56817630003206,267.5681881000055,267.56934190005995,3.1867800999898463,None,,,,,,,,,,,,,,,,,,,,,,,,,,,,,,,,,,,,,,,,,,,,,,,,,1,2023-12-20_12h31.41.696,watkins1,2023.2.3,99.73928152996459,73,2023-12-20 12h31.47.196432 +0000,
,,,,,,,,,,,12,0,12,0,,,,,,,,,,,,,267.57295400009025,,,,,,,,,,267.56960690009873,268.06596140004694,,,[],[],,,,,,,,,,,,None,None,,,,,,,,,,Löffel,rustikal,"['Löffel', 'rustikal']",control,1,,,,,,267.56954460009,267.56958300003316,"['Trommel', 'Rucksack', 'Kette', 'Kerze', 'Geige', 'Buch', 'Kiste', 'Socke', 'Hammer', 'Fahrrad', 'Hut', 'Brille', 'Löffel', 'Telefon', 'Tasse', 'Jacke', 'Würfel', 'Tasche', 'Blume', 'Vase', 'Kamera', 'Uhr', 'Bürste']",268.0659723000135,274.0684572000755,1,274.06873370008543,274.07145700010005,None,274.0715619000839,274.07412500004284,None,,,274.07422660000157,274.07540080009494,274.0754125000676,274.07661420002114,2.9399078999413177,None,,,,,,,,,,,,,,,,,,,,,,,,,,,,,,,,,,,,,,,,,,,,,,,,,1,2023-12-20_12h31.41.696,watkins1,2023.2.3,99.73928152996459,73,2023-12-20 12h31.47.196432 +0000,
,,,,,,,,,,,13,0,13,0,,,,,,,,,,,,,274.08017550001387,,,,,,,,,,274.0768795000622,274.57325510005467,,,1,2.358369500027038,,,,,,,,,,,,None,None,,,,,,,,,,Telefon,kalt,"['Telefon', 'kalt']",restudy_diff,1,,,,,,274.0768166000489,274.0768554999959,"['Trommel', 'Rucksack', 'Kette', 'Kerze', 'Geige', 'Buch', 'Kiste', 'Socke', 'Hammer', 'Fahrrad', 'Hut', 'Brille', 'Löffel', 'Telefon', 'Tasse', 'Jacke', 'Würfel', 'Tasche', 'Blume', 'Vase', 'Kamera', 'Uhr', 'Bürste']",274.57326650002506,274.5748542000074,None,274.5749693000689,274.5764219000703,None,274.57652150001377,280.5809557000175,1,2.358369500027038,None,280.58123040001374,280.5825440000044,280.58255590009503,280.5835963001009,,,,,,,,,,,,,,,,,,,,,,,,,,,,,,,,,,,,,,,,,,,,,,,,,,,1,2023-12-20_12h31.41.696,watkins1,2023.2.3,99.73928152996459,73,2023-12-20 12h31.47.196432 +0000,
,,,,,,,,,,,14,0,14,0,,,,,,,,,,,,,280.5904903000919,,,,,,,,,,280.58386320003774,281.0825121999951,,,1,2.0222353000426665,,,,,,,,,,,,None,None,,,,,,,,,,Tasse,verspielt,"['Tasse', 'verspielt']",restudy_diff,1,,,,,,280.5837991000153,280.58383710007183,"['Trommel', 'Rucksack', 'Kette', 'Kerze', 'Geige', 'Buch', 'Kiste', 'Socke', 'Hammer', 'Fahrrad', 'Hut', 'Brille', 'Löffel', 'Telefon', 'Tasse', 'Jacke', 'Würfel', 'Tasche', 'Blume', 'Vase', 'Kamera', 'Uhr', 'Bürste']",281.08252320007887,281.08515830000397,None,281.0852742000716,281.0876488999929,None,281.08775110007264,287.0922527000075,1,2.0222353000426665,None,287.09253340004943,287.0938245001016,287.0938364000758,287.0950881000608,,,,,,,,,,,,,,,,,,,,,,,,,,,,,,,,,,,,,,,,,,,,,,,,,,,1,2023-12-20_12h31.41.696,watkins1,2023.2.3,99.73928152996459,73,2023-12-20 12h31.47.196432 +0000,
,,,,,,,,,,,15,0,15,0,,,,,,,,,,,,,287.1016556000104,,,,,,,,,,287.0953601000365,287.5938856001012,,,1,3.8064831000519916,,,,,,,,,,,,None,None,,,,,,,,,,Jacke,biegsam,"['Jacke', 'biegsam']",restudy_diff,1,,,,,,287.09529290010687,287.0953314000508,"['Trommel', 'Rucksack', 'Kette', 'Kerze', 'Geige', 'Buch', 'Kiste', 'Socke', 'Hammer', 'Fahrrad', 'Hut', 'Brille', 'Löffel', 'Telefon', 'Tasse', 'Jacke', 'Würfel', 'Tasche', 'Blume', 'Vase', 'Kamera', 'Uhr', 'Bürste']",287.59389660006855,287.59717640001327,None,287.5972954001045,287.59990010003094,None,287.60000430000946,293.60488860006444,1,3.8064831000519916,None,293.6051616000477,293.60643939999864,293.6064517000923,293.6076271000784,,,,,,,,,,,,,,,,,,,,,,,,,,,,,,,,,,,,,,,,,,,,,,,,,,,1,2023-12-20_12h31.41.696,watkins1,2023.2.3,99.73928152996459,73,2023-12-20 12h31.47.196432 +0000,
,,,,,,,,,,,16,0,16,0,,,,,,,,,,,,,293.6143752000062,,,,,,,,,,293.6078930000076,294.10638760006987,,,[],[],,,,,,,,,,,,None,None,,,,,,,,,,Würfel,matt,"['Würfel', 'matt']",control,1,,,,,,293.6078289001016,293.60786730004475,"['Trommel', 'Rucksack', 'Kette', 'Kerze', 'Geige', 'Buch', 'Kiste', 'Socke', 'Hammer', 'Fahrrad', 'Hut', 'Brille', 'Löffel', 'Telefon', 'Tasse', 'Jacke', 'Würfel', 'Tasche', 'Blume', 'Vase', 'Kamera', 'Uhr', 'Bürste']",294.10639800003264,300.1072268000571,1,300.10750090004876,300.11010859999806,None,300.1102147999918,300.1126160999993,None,,,300.1127193000866,300.1139048000332,300.11391630000435,300.1149391999934,2.019185999990441,None,,,,,,,,,,,,,,,,,,,,,,,,,,,,,,,,,,,,,,,,,,,,,,,,,1,2023-12-20_12h31.41.696,watkins1,2023.2.3,99.73928152996459,73,2023-12-20 12h31.47.196432 +0000,
,,,,,,,,,,,17,0,17,0,,,,,,,,,,,,,300.11860680009704,,,,,,,,,,300.1152073000558,300.6115393000655,,,[],[],,,,,,,,,,,,None,None,,,,,,,,,,Tasche,blass,"['Tasche', 'blass']",control,1,,,,,,300.11514340003487,300.11518300010357,"['Trommel', 'Rucksack', 'Kette', 'Kerze', 'Geige', 'Buch', 'Kiste', 'Socke', 'Hammer', 'Fahrrad', 'Hut', 'Brille', 'Löffel', 'Telefon', 'Tasse', 'Jacke', 'Würfel', 'Tasche', 'Blume', 'Vase', 'Kamera', 'Uhr', 'Bürste']",300.6115517000435,306.6149920000462,1,306.61527670000214,306.61793770000804,None,306.61804380000103,306.62054960010573,None,,,306.62065170006827,306.6218203000026,306.62183230009396,306.6229647001019,1.490737900021486,None,,,,,,,,,,,,,,,,,,,,,,,,,,,,,,,,,,,,,,,,,,,,,,,,,1,2023-12-20_12h31.41.696,watkins1,2023.2.3,99.73928152996459,73,2023-12-20 12h31.47.196432 +0000,
,,,,,,,,,,,18,0,18,0,,,,,,,,,,,,,306.6265200000489,,,,,,,,,,306.62323250004556,307.119591100025,,,1,2.691821000073105,,,,,,,,,,,,None,None,,,,,,,,,,Blume,lustig,"['Blume', 'lustig']",restudy_diff,1,,,,,,306.62317020003684,306.6232084000949,"['Trommel', 'Rucksack', 'Kette', 'Kerze', 'Geige', 'Buch', 'Kiste', 'Socke', 'Hammer', 'Fahrrad', 'Hut', 'Brille', 'Löffel', 'Telefon', 'Tasse', 'Jacke', 'Würfel', 'Tasche', 'Blume', 'Vase', 'Kamera', 'Uhr', 'Bürste']",307.1196021999931,307.1211566000711,None,307.12127320002764,307.1228616000153,None,307.12296400009654,313.124184000073,1,2.691821000073105,None,313.1244619000936,313.1257783001056,313.1257904000813,313.1269943000516,,,,,,,,,,,,,,,,,,,,,,,,,,,,,,,,,,,,,,,,,,,,,,,,,,,1,2023-12-20_12h31.41.696,watkins1,2023.2.3,99.73928152996459,73,2023-12-20 12h31.47.196432 +0000,
,,,,,,,,,,,19,0,19,0,,,,,,,,,,,,,313.13370010000654,,,,,,,,,,313.12726239999756,313.6257615000941,,,1,1.3754948999267071,,,,,,,,,,,,None,None,,,,,,,,,,Vase,flauschig,"['Vase', 'flauschig']",restudy_diff,1,,,,,,313.1271971000824,313.1272362000309,"['Trommel', 'Rucksack', 'Kette', 'Kerze', 'Geige', 'Buch', 'Kiste', 'Socke', 'Hammer', 'Fahrrad', 'Hut', 'Brille', 'Löffel', 'Telefon', 'Tasse', 'Jacke', 'Würfel', 'Tasche', 'Blume', 'Vase', 'Kamera', 'Uhr', 'Bürste']",313.62577240006067,313.62834340007976,None,313.6284634000622,313.63087250001263,None,313.6309770999942,319.63245820009615,1,1.3754948999267071,None,319.6327303000726,319.63389490009286,319.6339070000686,319.63515440002084,,,,,,,,,,,,,,,,,,,,,,,,,,,,,,,,,,,,,,,,,,,,,,,,,,,1,2023-12-20_12h31.41.696,watkins1,2023.2.3,99.73928152996459,73,2023-12-20 12h31.47.196432 +0000,
,,,,,,,,,,,20,0,20,0,,,,,,,,,,,,,319.64192320010625,,,,,,,,,,319.63542629999574,320.1338410000317,,,1,2.0112536000087857,,,,,,,,,,,,None,None,,,,,,,,,,Kamera,krumm,"['Kamera', 'krumm']",restudy_diff,1,,,,,,319.63536080007907,319.63539990002755,"['Trommel', 'Rucksack', 'Kette', 'Kerze', 'Geige', 'Buch', 'Kiste', 'Socke', 'Hammer', 'Fahrrad', 'Hut', 'Brille', 'Löffel', 'Telefon', 'Tasse', 'Jacke', 'Würfel', 'Tasche', 'Blume', 'Vase', 'Kamera', 'Uhr', 'Bürste']",320.1338514999952,320.1366055000108,None,320.1367232000921,320.13932400010526,None,320.13942670007236,326.1465532000875,1,2.0112536000087857,None,326.1468267000746,326.1482474000659,326.14825960004237,326.1495325000724,,,,,,,,,,,,,,,,,,,,,,,,,,,,,,,,,,,,,,,,,,,,,,,,,,,1,2023-12-20_12h31.41.696,watkins1,2023.2.3,99.73928152996459,73,2023-12-20 12h31.47.196432 +0000,
,,,,,,,,,,,21,0,21,0,,,,,,,,,,,,,326.156052300008,,,,,,,,,,326.14980840007775,326.64825010008644,,,1,2.289602200035006,,,,,,,,,,,,None,None,,,,,,,,,,Uhr,bunt,"['Uhr', 'bunt']",restudy_diff,1,,,,,,326.1497430000454,326.1497822999954,"['Trommel', 'Rucksack', 'Kette', 'Kerze', 'Geige', 'Buch', 'Kiste', 'Socke', 'Hammer', 'Fahrrad', 'Hut', 'Brille', 'Löffel', 'Telefon', 'Tasse', 'Jacke', 'Würfel', 'Tasche', 'Blume', 'Vase', 'Kamera', 'Uhr', 'Bürste']",326.6482613000553,326.65077550010756,None,326.6508933000732,326.6532340000849,None,326.653336700052,332.65912100009155,1,2.289602200035006,None,332.6593980001053,332.6607408000855,332.6607532000635,332.6618454999989,,,,,,,,,,,,,,,,,,,,,,,,,,,,,,,,,,,,,,,,,,,,,,,,,,,1,2023-12-20_12h31.41.696,watkins1,2023.2.3,99.73928152996459,73,2023-12-20 12h31.47.196432 +0000,
,,,,,,,,,,,22,0,22,0,,,,,,,,,,,,,332.66858230007347,,,,,,,,,,332.66211979999207,333.1607257000869,,,[],[],,,,,,,,,,,,None,None,,,,,,,,,,Bürste,sauber,"['Bürste', 'sauber']",control,1,,,,,,332.66205520008225,332.6620936000254,"['Trommel', 'Rucksack', 'Kette', 'Kerze', 'Geige', 'Buch', 'Kiste', 'Socke', 'Hammer', 'Fahrrad', 'Hut', 'Brille', 'Löffel', 'Telefon', 'Tasse', 'Jacke', 'Würfel', 'Tasche', 'Blume', 'Vase', 'Kamera', 'Uhr', 'Bürste']",333.16073620005045,339.1694733001059,3,339.16974640008993,339.1724191000685,None,339.1725237000501,339.17503600008786,None,,,339.17513900005724,339.1763088000007,339.1763207000913,339.1776107000187,1.7736636000918224,None,,,,,,,,,,,,,,,,,,,,,,,,,,,,,,,,,,,,,,,,,,,,,,,,,1,2023-12-20_12h31.41.696,watkins1,2023.2.3,99.73928152996459,73,2023-12-20 12h31.47.196432 +0000,
,,,,,,,,,,,,,,,,,,,,,,,,,,,,,,,,,,,,,,,,,,,,,,,,,,,,,,,,,,,,,,,,,,,,,1,,,,,,,,,,,,,,,,,,,,,,,,,,,,,,,,,,,,,,,,,,,,,,,,,,,,,,,,,,,,,,,,,,,,,,,,,,1,2023-12-20_12h31.41.696,watkins1,2023.2.3,99.73928152996459,73,2023-12-20 12h31.47.196432 +0000,
(25 : 5) + 5 = 9 ,Incorrect,button_incorrect,,,,,,,,,,,,,0,0,0,6,,,,,,,,,354.25641120004,,,,,,,,353.22562370006926,354.22937940002885,,,,,['button_incorrect'],[5.122969400021248],,,,,,,,,,,,,,,,,,,,,,,,,,distractorTask,1,,,,,,,,,,,,,,,,,,,,,,,,,,354.2455678000115,354.25641120004,359.3733221000293,[-0.2972222222222222],[-0.39537037037037037],[1],[0],[0],[5.122969400021248],['button_incorrect'],359.3739874000894,360.37687520007603,,,,,,,,,,,,,,,,,,,,,,,,,,,,,,,,,,,,,1,2023-12-20_12h31.41.696,watkins1,2023.2.3,99.73928152996459,73,2023-12-20 12h31.47.196432 +0000,
(80 : 10) + 9 = 17 ,Correct,button_correct,,,,,,,,,,,,,0,1,1,3,,,,,,,,,360.38686230010353,,,,,,,,,,,,,,['button_correct'],"[3.722550999955274, 4.124241599929519]",,,,,,,,,,,,,,,,,,,,,,,,,,distractorTask,1,,,,,,,,,,,,,,,,,,,,,,,,,,360.37707410007715,360.38686230010353,364.5048527000472,"[0.27037037037037037, 0.2962962962962963]","[-0.39444444444444443, -0.39444444444444443]","[1, 1]","[0, 0]","[0, 0]","[3.722550999955274, 4.124241599929519]",['button_correct'],364.5052540000761,365.5085797000211,,,,,,,,,,,,,,,,,,,,,,,,,,,,,,,,,,,,,1,2023-12-20_12h31.41.696,watkins1,2023.2.3,99.73928152996459,73,2023-12-20 12h31.47.196432 +0000,
(9 x 5) - 9 = 36 ,Correct,button_correct,,,,,,,,,,,,,0,2,2,4,,,,,,,,,365.51853430003393,,,,,,,,,,,,,,['button_correct'],[4.203987600049004],,,,,,,,,,,,,,,,,,,,,,,,,,distractorTask,1,,,,,,,,,,,,,,,,,,,,,,,,,,365.5087729000952,365.51853430003393,369.7162592000095,[0.36018518518518516],[-0.3861111111111111],[1],[0],[0],[4.203987600049004],['button_correct'],369.71664250001777,370.71996310004033,,,,,,,,,,,,,,,,,,,,,,,,,,,,,,,,,,,,,1,2023-12-20_12h31.41.696,watkins1,2023.2.3,99.73928152996459,73,2023-12-20 12h31.47.196432 +0000,
(7 x 6) + 9 = 48 ,Incorrect,button_incorrect,,,,,,,,,,,,,0,3,3,9,,,,,,,,,370.7300524000311,,,,,,,,,,,,,,['button_incorrect'],"[3.0205087999347597, 3.341841399902478]",,,,,,,,,,,,,,,,,,,,,,,,,,distractorTask,1,,,,,,,,,,,,,,,,,,,,,,,,,,370.72015450010076,370.7300524000311,374.0643862000434,"[-0.2740740740740741, -0.29907407407407405]","[-0.4064814814814815, -0.4064814814814815]","[1, 1]","[0, 0]","[0, 0]","[3.0205087999347597, 3.341841399902478]",['button_incorrect'],374.064789300086,375.068173800013,,,,,,,,,,,,,,,,,,,,,,,,,,,,,,,,,,,,,1,2023-12-20_12h31.41.696,watkins1,2023.2.3,99.73928152996459,73,2023-12-20 12h31.47.196432 +0000,
(28 : 7) - 3 = 1 ,Correct,button_correct,,,,,,,,,,,,,0,4,4,0,,,,,,,,,375.07816270005424,,,,,,,,,,,,,,['button_correct'],[2.418352699954994],,,,,,,,,,,,,,,,,,,,,,,,,,distractorTask,1,,,,,,,,,,,,,,,,,,,,,,,,,,375.0683773000492,375.07816270005424,377.48862160008866,[0.31203703703703706],[-0.387037037037037],[1],[0],[0],[2.418352699954994],['button_correct'],377.48900250007864,378.49224100005813,,,,,,,,,,,,,,,,,,,,,,,,,,,,,,,,,,,,,1,2023-12-20_12h31.41.696,watkins1,2023.2.3,99.73928152996459,73,2023-12-20 12h31.47.196432 +0000,
(40 : 5) + 8 = 15 ,Incorrect,button_incorrect,,,,,,,,,,,,,0,5,5,7,,,,,,,,,378.502218300011,,,,,,,,,,,,,,['button_incorrect'],[3.1012876000022516],,,,,,,,,,,,,,,,,,,,,,,,,,distractorTask,1,,,,,,,,,,,,,,,,,,,,,,,,,,378.4924346000189,378.502218300011,381.59546810004395,[-0.32407407407407407],[-0.387037037037037],[1],[0],[0],[3.1012876000022516],['button_incorrect'],381.5958472000202,382.5991859000642,,,,,,,,,,,,,,,,,,,,,,,,,,,,,,,,,,,,,1,2023-12-20_12h31.41.696,watkins1,2023.2.3,99.73928152996459,73,2023-12-20 12h31.47.196432 +0000,
(54 : 6) - 10 = 0 ,Incorrect,button_incorrect,,,,,,,,,,,,,0,6,6,5,,,,,,,,,382.6092682000017,,,,,,,,,,,,,,['button_incorrect'],[3.201810200000182],,,,,,,,,,,,,,,,,,,,,,,,,,distractorTask,1,,,,,,,,,,,,,,,,,,,,,,,,,,382.59938110003714,382.6092682000017,385.8029308000114,[-0.30925925925925923],[-0.3861111111111111],[1],[0],[0],[3.201810200000182],['button_incorrect'],385.8033263999969,386.80661279999185,,,,,,,,,,,,,,,,,,,,,,,,,,,,,,,,,,,,,1,2023-12-20_12h31.41.696,watkins1,2023.2.3,99.73928152996459,73,2023-12-20 12h31.47.196432 +0000,
(6 x 3) + 10 = 27 ,Incorrect,button_incorrect,,,,,,,,,,,,,0,7,7,8,,,,,,,,,386.816701300093,,,,,,,,,,,,,,['button_incorrect'],[2.237875399994664],,,,,,,,,,,,,,,,,,,,,,,,,,distractorTask,1,,,,,,,,,,,,,,,,,,,,,,,,,,386.8068089000881,386.816701300093,389.046416600002,[-0.33055555555555555],[-0.39166666666666666],[1],[0],[0],[2.237875399994664],['button_incorrect'],389.04679390008096,390.05003270006273,,,,,,,,,,,,,,,,,,,,,,,,,,,,,,,,,,,,,1,2023-12-20_12h31.41.696,watkins1,2023.2.3,99.73928152996459,73,2023-12-20 12h31.47.196432 +0000,
(2 x 5) + 3 = 13 ,Correct,button_correct,,,,,,,,,,,,,0,8,8,2,,,,,,,,,390.06001090002246,,,,,,,,,,,,,,['button_correct'],[2.4088905000826344],,,,,,,,,,,,,,,,,,,,,,,,,,distractorTask,1,,,,,,,,,,,,,,,,,,,,,,,,,,390.0502263000235,390.06001090002246,392.4608317000093,[0.2898148148148148],[-0.412962962962963],[1],[0],[0],[2.4088905000826344],['button_correct'],392.46120670007076,393.4645656000357,,,,,,,,,,,,,,,,,,,,,,,,,,,,,,,,,,,,,1,2023-12-20_12h31.41.696,watkins1,2023.2.3,99.73928152996459,73,2023-12-20 12h31.47.196432 +0000,
(4 : 2) + 4 = 6 ,Correct,button_correct,,,,,,,,,,,,,0,9,9,1,,,,,,,,,393.4744961000979,,,,,,,,,,,,,,['button_correct'],[2.8401859999867156],,,,,,,,,,,,,,,,,,,,,,,,,,distractorTask,1,,,,,,,,,,,,,,,,,,,,,,,,,,393.46475800010376,393.4744961000979,396.30661230010446,[0.337037037037037],[-0.3990740740740741],[1],[0],[0],[2.8401859999867156],['button_correct'],396.30700070003513,397.3105650000507,,,,,,,,,,,,,,,,,,,,,,,,,,,,,,,,,,,,,1,2023-12-20_12h31.41.696,watkins1,2023.2.3,99.73928152996459,73,2023-12-20 12h31.47.196432 +0000,
,,,,,,,,,,,,,,,,,,,,,,,,,,,,,,,,,,,,,,,,,,,,,,,,,,,,,,,,,,,,,,,,,,,,,1,,,,,,,,,,,,,,,,,,,,,,,,,,,,,,,,,,,,,,,,,,,,,,,,,,,,,,,,,,,,,,,,,,,,,,,,,,1,2023-12-20_12h31.41.696,watkins1,2023.2.3,99.73928152996459,73,2023-12-20 12h31.47.196432 +0000,
,,,,,,,,,,,,,,,,,,,0,0,0,0,,,,,406.67734440008644,,,,,,,,,,,,,,,7.965520399971865,,,,,,,,,,,,7.982650400022976,None,,,,,,,,,,,,,freeRecallSub,1,,,,,,,,,,,,,,,,,,,,,,,,,,,,,,,,,,,,,,406.66853660007473,406.67734440008644,406.67734440008644,414.6505572000751,return,7.965520399971865,None,,"[-0.025925925925925925, -0.024074074074074074, -0.674074074074074, -0.009259259259259259]","[0.02962962962962963, 0.03981481481481482, 0.15185185185185185, 0.03333333333333333]","[1, 1, 1, 1]","[0, 0, 0, 0]","[0, 0, 0, 0]","[1.5754386999178678, 1.9268535999581218, 2.3987846999661997, 4.266800099983811]",[],,,,,,,,,,,,,,,,,,,,,,1,2023-12-20_12h31.41.696,watkins1,2023.2.3,99.73928152996459,73,2023-12-20 12h31.47.196432 +0000,
,,,,,,,,,,,,,,,,,,,1,0,1,0,,,,,414.6604324000655,,,,,,,,,,,,,,Bürste,6.446475600008853,,,,,,,,,,,,3.207745400024578,None,,,,,,,,,,,,,freeRecallSub,1,,,,,,,,,,,,,,,,,,,,,,,,,,,,,,,,,,,,,,414.6524201000575,414.6604324000655,414.6604324000655,421.11343660007697,return,6.446475600008853,None,Bürste,[],[],[],[],[],[],[],,,,,,,,,,,,,,,,,,,,,,1,2023-12-20_12h31.41.696,watkins1,2023.2.3,99.73928152996459,73,2023-12-20 12h31.47.196432 +0000,
,,,,,,,,,,,,,,,,,,,2,0,2,0,,,,,421.1254306000192,,,,,,,,,,,,,,Uhr,2.237386900000274,,,,,,,,,,,,1.116924799978733,None,,,,,,,,,,,,,freeRecallSub,1,,,,,,,,,,,,,,,,,,,,,,,,,,,,,,,,,,,,,,421.11471029999666,421.1254306000192,421.1254306000192,423.3664449000498,return,2.237386900000274,None,Uhr,[],[],[],[],[],[],[],,,,,,,,,,,,,,,,,,,,,,1,2023-12-20_12h31.41.696,watkins1,2023.2.3,99.73928152996459,73,2023-12-20 12h31.47.196432 +0000,
,,,,,,,,,,,,,,,,,,,3,0,3,0,,,,,423.3770943999989,,,,,,,,,,,,,,Geige,3.6498256999766454,,,,,,,,,,,,2.62062890001107,None,,,,,,,,,,,,,freeRecallSub,1,,,,,,,,,,,,,,,,,,,,,,,,,,,,,,,,,,,,,,423.3676850000629,423.3770943999989,423.3770943999989,427.0330759000499,return,3.6498256999766454,None,Geige,[],[],[],[],[],[],[],,,,,,,,,,,,,,,,,,,,,,1,2023-12-20_12h31.41.696,watkins1,2023.2.3,99.73928152996459,73,2023-12-20 12h31.47.196432 +0000,
,,,,,,,,,,,,,,,,,,,4,0,4,0,,,,,427.04366740002297,,,,,,,,,,,,,,Kette,5.74315520003438,,,,,,,,,,,,4.388077400042675,None,,,,,,,,,,,,,freeRecallSub,1,,,,,,,,,,,,,,,,,,,,,,,,,,,,,,,,,,,,,,427.0343322000699,427.04366740002297,427.04366740002297,432.7880876000272,return,5.74315520003438,None,Kette,[],[],[],[],[],[],[],,,,,,,,,,,,,,,,,,,,,,1,2023-12-20_12h31.41.696,watkins1,2023.2.3,99.73928152996459,73,2023-12-20 12h31.47.196432 +0000,
,,,,,,,,,,,,,,,,,,,5,0,5,0,,,,,432.7986952000065,,,,,,,,,,,,,,Kerze,4.748012500000186,,,,,,,,,,,,3.4436050000367686,None,,,,,,,,,,,,,freeRecallSub,1,,,,,,,,,,,,,,,,,,,,,,,,,,,,,,,,,,,,,,432.7893624000717,432.7986952000065,432.7986952000065,437.54851780005265,return,4.748012500000186,None,Kerze,[],[],[],[],[],[],[],,,,,,,,,,,,,,,,,,,,,,1,2023-12-20_12h31.41.696,watkins1,2023.2.3,99.73928152996459,73,2023-12-20 12h31.47.196432 +0000,
,,,,,,,,,,,,,,,,,,,6,0,6,0,,,,,437.5592574001057,,,,,,,,,,,,,,Katze,5.547577199991792,,,,,,,,,,,,0.8136983000440523,3.806373200030066,,,,,,,,,,,,,freeRecallSub,1,,,,,,,,,,,,,,,,,,,,,,,,,,,,,,,,,,,,,,437.5497699000407,437.5592574001057,437.5592574001057,443.1132766000228,return,5.547577199991792,None,Katze,[],[],[],[],[],[],[],,,,,,,,,,,,,,,,,,,,,,1,2023-12-20_12h31.41.696,watkins1,2023.2.3,99.73928152996459,73,2023-12-20 12h31.47.196432 +0000,
,,,,,,,,,,,,,,,,,,,7,0,7,0,,,,,443.12421650008764,,,,,,,,,,,,,,Hund,2.5906171000096947,,,,,,,,,,,,1.2256325000198558,None,,,,,,,,,,,,,freeRecallSub,1,,,,,,,,,,,,,,,,,,,,,,,,,,,,,,,,,,,,,,443.11455380008556,443.12421650008764,443.12421650008764,445.71586280001793,return,2.5906171000096947,None,Hund,[],[],[],[],[],[],[],,,,,,,,,,,,,,,,,,,,,,1,2023-12-20_12h31.41.696,watkins1,2023.2.3,99.73928152996459,73,2023-12-20 12h31.47.196432 +0000,
,,,,,,,,,,,,,,,,,,,8,0,8,0,,,,,445.7276052000234,,,,,,,,,,,,,,Trommel,7.699236800079234,,,,,,,,,,,,2.9038068000227213,None,,,,,,,,,,,,,freeRecallSub,1,,,,,,,,,,,,,,,,,,,,,,,,,,,,,,,,,,,,,,445.717119500041,445.7276052000234,445.7276052000234,453.43094660004135,return,7.699236800079234,None,Trommel,[],[],[],[],[],[],[],,,,,,,,,,,,,,,,,,,,,,1,2023-12-20_12h31.41.696,watkins1,2023.2.3,99.73928152996459,73,2023-12-20 12h31.47.196432 +0000,
,,,,,,,,,,,,,,,,,,,9,0,9,0,,,,,453.4429247000953,,,,,,,,,,,,,,Eimer,13.071917699999176,,,,,,,,,,,,11.863343899953179,None,,,,,,,,,,,,,freeRecallSub,1,,,,,,,,,,,,,,,,,,,,,,,,,,,,,,,,,,,,,,453.4322223000927,453.4429247000953,453.4429247000953,466.52060590009205,return,13.071917699999176,None,Eimer,[],[],[],[],[],[],[],,,,,,,,,,,,,,,,,,,,,,1,2023-12-20_12h31.41.696,watkins1,2023.2.3,99.73928152996459,73,2023-12-20 12h31.47.196432 +0000,
,,,,,,,,,,,,,,,,,,,10,0,10,0,,,,,466.5322526000673,,,,,,,,,,,,,,Jacke,5.238613200024702,,,,,,,,,,,,3.927555799949914,None,,,,,,,,,,,,,freeRecallSub,1,,,,,,,,,,,,,,,,,,,,,,,,,,,,,,,,,,,,,,466.52183920005336,466.5322526000673,466.5322526000673,471.7751837000251,return,5.238613200024702,None,Jacke,[],[],[],[],[],[],[],,,,,,,,,,,,,,,,,,,,,,1,2023-12-20_12h31.41.696,watkins1,2023.2.3,99.73928152996459,73,2023-12-20 12h31.47.196432 +0000,
,,,,,,,,,,,,,,,,,,,11,0,11,0,,,,,471.7877342000138,,,,,,,,,,,,,,Rucksack,9.639009200036526,,,,,,,,,,,,7.454201699933037,None,,,,,,,,,,,,,freeRecallSub,1,,,,,,,,,,,,,,,,,,,,,,,,,,,,,,,,,,,,,,471.77645230002236,471.7877342000138,471.7877342000138,481.429823600105,return,9.639009200036526,None,Rucksack,[],[],[],[],[],[],[],,,,,,,,,,,,,,,,,,,,,,1,2023-12-20_12h31.41.696,watkins1,2023.2.3,99.73928152996459,73,2023-12-20 12h31.47.196432 +0000,
,,,,,,,,,,,,,,,,,,,12,0,12,0,,,,,481.44223620009143,,,,,,,,,,,,,,Uhr,11.336627300013788,,,,,,,,,,,,9.533133999910206,None,,,,,,,,,,,,,freeRecallSub,1,,,,,,,,,,,,,,,,,,,,,,,,,,,,,,,,,,,,,,481.4311446000356,481.44223620009143,481.44223620009143,492.78190530010033,return,11.336627300013788,None,Uhr,[],[],[],[],[],[],[],,,,,,,,,,,,,,,,,,,,,,1,2023-12-20_12h31.41.696,watkins1,2023.2.3,99.73928152996459,73,2023-12-20 12h31.47.196432 +0000,
,,,,,,,,,,,,,,,,,,,13,0,13,0,,,,,492.793896600022,,,,,,,,,,,,,,,[],,,,,,,,,,,,None,None,,,,,,,,,,,,,freeRecallSub,1,,,,,,,,,,,,,,,,,,,,,,,,,,,,,,,,,,,,,,492.7831799000269,492.793896600022,492.793896600022,526.7166721000103,None,,,,[0.1638888888888889],[-0.38981481481481484],[1],[0],[0],[33.92894559993874],"['button_continue', 'continue_text']",,,,,,,,,,,,,,,,,,,,,,1,2023-12-20_12h31.41.696,watkins1,2023.2.3,99.73928152996459,73,2023-12-20 12h31.47.196432 +0000,
,,,,,,,,,,,,,,,,,,,,,,,,,,,,,,,,,,,,,,,,,,,,,,,,,,,,,,,,,,,,,,,,,,,,,1,,,,,,,,,,,,,,,,,,,,,,,,,,,,,,,,,,,,,,,,,,,,,,,,,,,,,,,,,,,,,,,,,,,,,,,,,,1,2023-12-20_12h31.41.696,watkins1,2023.2.3,99.73928152996459,73,2023-12-20 12h31.47.196432 +0000,
,,,,,,,,,,,,,,,,,,,,,,,0,0,0,0,537.3847782000666,,,,,,,,,,540.2507782001048,540.7491991000716,,,,2.857975099934265,,,,,,,,,,,,None,None,,,,,,,,,,Würfel,,,cuedRecallAdj,1,,,,,,,,,,,,,,,,,,,,,,,,,,,,,,,,,,,,,,,,,,,,,,,,,,,,,537.3757606000872,537.3847782000666,0,537.3847782000666,540.2476016000146,matt,return,2.857975099934265,None,540.2479987000115,540.2571345000761,540.2571345000761,540.2506280000089,,None,,,,,,,1,2023-12-20_12h31.41.696,watkins1,2023.2.3,99.73928152996459,73,2023-12-20 12h31.47.196432 +0000,
,,,,,,,,,,,,,,,,,,,,,,,1,0,1,0,540.7591483000433,,,,,,,,,,552.1170798999956,552.6083876000484,,,,9.859759000013582,,,,,,,,,,,,1.4954950000392273,None,,,,,,,,,,Kette,,,cuedRecallAdj,1,,,,,,,,,,,,,,,,,,,,,,,,,,,,,,,,,,,,,,,,,,,,,,,,,,,,,540.7494489999954,540.7591483000433,0,540.7591483000433,550.6205280000577,dunkel,return,9.859759000013582,None,550.6207931000972,550.6300695000682,550.6300695000682,552.1167294000043,,return,1.4847146000247449,None,,,,,1,2023-12-20_12h31.41.696,watkins1,2023.2.3,99.73928152996459,73,2023-12-20 12h31.47.196432 +0000,
,,,,,,,,,,,,,,,,,,,,,,,2,0,2,0,552.618348200107,,,,,,,,,,562.0704758000793,562.569445900037,,,,9.448426199960522,,,,,,,,,,,,None,None,,,,,,,,,,Buch,,,cuedRecallAdj,1,,,,,,,,,,,,,,,,,,,,,,,,,,,,,,,,,,,,,,,,,,,,,,,,,,,,,552.6086353000719,552.618348200107,0,552.618348200107,562.0676117000403,klobig,return,9.448426199960522,None,562.067875900073,562.0771599001018,562.0771599001018,562.0703752000118,,None,,,,,,,1,2023-12-20_12h31.41.696,watkins1,2023.2.3,99.73928152996459,73,2023-12-20 12h31.47.196432 +0000,
,,,,,,,,,,,,,,,,,,,,,,,3,0,3,0,562.579354000045,,,,,,,,,,571.4692629000638,571.958766900003,,,,8.879516100045294,,,,,,,,,,,,None,None,,,,,,,,,,Tasche,,,cuedRecallAdj,1,,,,,,,,,,,,,,,,,,,,,,,,,,,,,,,,,,,,,,,,,,,,,,,,,,,,,562.5696891000262,562.579354000045,0,562.579354000045,571.4670040000929,,return,8.879516100045294,None,571.4672681000084,571.4767072000541,571.4767072000541,571.4691606000997,,None,,,,,,,1,2023-12-20_12h31.41.696,watkins1,2023.2.3,99.73928152996459,73,2023-12-20 12h31.47.196432 +0000,
,,,,,,,,,,,,,,,,,,,,,,,4,0,4,0,571.9686611000216,,,,,,,,,,575.7174660000019,576.2164487000555,,,,3.738167700008489,,,,,,,,,,,,None,None,,,,,,,,,,Eimer,,,cuedRecallAdj,1,,,,,,,,,,,,,,,,,,,,,,,,,,,,,,,,,,,,,,,,,,,,,,,,,,,,,571.959010599996,571.9686611000216,0,571.9686611000216,575.7144392000046,sportlich,return,3.738167700008489,None,575.7147012000205,575.7242768000579,575.7242768000579,575.7173648000462,,None,,,,,,,1,2023-12-20_12h31.41.696,watkins1,2023.2.3,99.73928152996459,73,2023-12-20 12h31.47.196432 +0000,
,,,,,,,,,,,,,,,,,,,,,,,5,0,5,0,576.2263930001063,,,,,,,,,,585.8274380000075,586.3189700000221,,,gestreift,4.70440539997071,,,,,,,,,,,,0.802491599926725,None,,,,,,,,,,Rucksack,,,cuedRecallAdj,1,,,,,,,,,,,,,,,,,,,,,,,,,,,,,,,,,,,,,,,,,,,,,,,,,,,,,576.2166911000386,576.2263930001063,0,576.2263930001063,580.9371658000164,hohl,return,4.70440539997071,None,580.9374266000232,580.9467122000642,580.9467122000642,585.8271703000646,gestreift,return,4.87212760001421,None,,,,,1,2023-12-20_12h31.41.696,watkins1,2023.2.3,99.73928152996459,73,2023-12-20 12h31.47.196432 +0000,
,,,,,,,,,,,,,,,,,,,,,,,6,0,6,0,586.3290097001009,,,,,,,,,,590.550082800095,591.0486297000898,,,,4.209850899991579,,,,,,,,,,,,None,None,,,,,,,,,,Schere,,,cuedRecallAdj,1,,,,,,,,,,,,,,,,,,,,,,,,,,,,,,,,,,,,,,,,,,,,,,,,,,,,,586.319212500006,586.3290097001009,0,586.3290097001009,590.546761100064,schlicht,return,4.209850899991579,None,590.5470230000792,590.5564841000596,590.5564841000596,590.5499801000115,,None,,,,,,,1,2023-12-20_12h31.41.696,watkins1,2023.2.3,99.73928152996459,73,2023-12-20 12h31.47.196432 +0000,
,,,,,,,,,,,,,,,,,,,,,,,7,0,7,0,591.0586763001047,,,,,,,,,,593.7231115000322,594.2218060001032,,,,2.656072299927473,,,,,,,,,,,,None,None,,,,,,,,,,Lampe,,,cuedRecallAdj,1,,,,,,,,,,,,,,,,,,,,,,,,,,,,,,,,,,,,,,,,,,,,,,,,,,,,,591.0488672000356,591.0586763001047,0,591.0586763001047,593.7199674000731,flach,return,2.656072299927473,None,593.720234700013,593.7294939000858,593.7294939000858,593.7230113000842,,None,,,,,,,1,2023-12-20_12h31.41.696,watkins1,2023.2.3,99.73928152996459,73,2023-12-20 12h31.47.196432 +0000,
,,,,,,,,,,,,,,,,,,,,,,,8,0,8,0,594.2318595000543,,,,,,,,,,606.5237217000686,607.0153021001024,,,schräg,3.8189942999742925,,,,,,,,,,,,3.7043745999690145,None,,,,,,,,,,Kamera,,,cuedRecallAdj,1,,,,,,,,,,,,,,,,,,,,,,,,,,,,,,,,,,,,,,,,,,,,,,,,,,,,,594.222049800097,594.2318595000543,0,594.2318595000543,598.0579937000293,kaputt,return,3.8189942999742925,None,598.0582491999958,598.0676220000023,598.0676220000023,606.5234580000397,schräg,return,8.44721159990877,None,,,,,1,2023-12-20_12h31.41.696,watkins1,2023.2.3,99.73928152996459,73,2023-12-20 12h31.47.196432 +0000,
,,,,,,,,,,,,,,,,,,,,,,,9,0,9,0,607.0252523000818,,,,,,,,,,612.9635939000873,613.4619110000785,,,,5.929540899931453,,,,,,,,,,,,None,None,,,,,,,,,,Schlüssel,,,cuedRecallAdj,1,,,,,,,,,,,,,,,,,,,,,,,,,,,,,,,,,,,,,,,,,,,,,,,,,,,,,607.0155396000482,607.0252523000818,0,607.0252523000818,612.9602653000038,stabil,return,5.929540899931453,None,612.9605294000357,612.9697646000423,612.9697646000423,612.9634926000144,,None,,,,,,,1,2023-12-20_12h31.41.696,watkins1,2023.2.3,99.73928152996459,73,2023-12-20 12h31.47.196432 +0000,
,,,,,,,,,,,,,,,,,,,,,,,10,0,10,0,613.4718625000678,,,,,,,,,,618.2521331000607,618.7435729000717,,,,3.8591318000108004,,,,,,,,,,,,0.913291500066407,None,,,,,,,,,,Vase,,,cuedRecallAdj,1,,,,,,,,,,,,,,,,,,,,,,,,,,,,,,,,,,,,,,,,,,,,,,,,,,,,,613.462158300099,613.4718625000678,0,613.4718625000678,617.3380157999927,groß,return,3.8591318000108004,None,617.3383010000689,617.3476522000274,617.3476522000274,618.2518663000083,,return,0.8951221000170335,None,,,,,1,2023-12-20_12h31.41.696,watkins1,2023.2.3,99.73928152996459,73,2023-12-20 12h31.47.196432 +0000,
,,,,,,,,,,,,,,,,,,,,,,,11,0,11,0,618.7535212000366,,,,,,,,,,627.7748687000712,628.2735036000377,,,,9.017406000057235,,,,,,,,,,,,None,None,,,,,,,,,,Brille,,,cuedRecallAdj,1,,,,,,,,,,,,,,,,,,,,,,,,,,,,,,,,,,,,,,,,,,,,,,,,,,,,,618.7438230999978,618.7535212000366,0,618.7535212000366,627.7720381000545,matt,return,9.017406000057235,None,627.7723029000917,627.7815410000039,627.7815410000039,627.7747656001011,,None,,,,,,,1,2023-12-20_12h31.41.696,watkins1,2023.2.3,99.73928152996459,73,2023-12-20 12h31.47.196432 +0000,
,,,,,,,,,,,,,,,,,,,,,,,12,0,12,0,628.2835063000675,,,,,,,,,,633.0539480000734,633.545182300033,,,,4.1272354000248015,,,,,,,,,,,,0.6323023000732064,None,,,,,,,,,,Tasse,,,cuedRecallAdj,1,,,,,,,,,,,,,,,,,,,,,,,,,,,,,,,,,,,,,,,,,,,,,,,,,,,,,628.2737446000101,628.2835063000675,0,628.2835063000675,632.4206823999994,,return,4.1272354000248015,None,632.4209477000404,632.4304185000947,632.4304185000947,633.0536831000354,,return,0.6204185000387952,None,,,,,1,2023-12-20_12h31.41.696,watkins1,2023.2.3,99.73928152996459,73,2023-12-20 12h31.47.196432 +0000,
,,,,,,,,,,,,,,,,,,,,,,,13,0,13,0,633.5551172000123,,,,,,,,,,645.2042052000761,645.6953973000636,,,,5.183645699988119,,,,,,,,,,,,6.456160100060515,None,,,,,,,,,,Blume,,,cuedRecallAdj,1,,,,,,,,,,,,,,,,,,,,,,,,,,,,,,,,,,,,,,,,,,,,,,,,,,,,,633.5454339000862,633.5551172000123,0,633.5551172000123,638.7470388000365,winzig,return,5.183645699988119,None,638.7473019000608,638.7567625000374,638.7567625000374,645.2039398000343,,return,6.44601870002225,None,,,,,1,2023-12-20_12h31.41.696,watkins1,2023.2.3,99.73928152996459,73,2023-12-20 12h31.47.196432 +0000,
,,,,,,,,,,,,,,,,,,,,,,,14,0,14,0,645.7052894000662,,,,,,,,,,651.2997907000827,651.7911425000057,,,,4.769509199890308,,,,,,,,,,,,0.8228019999805838,None,,,,,,,,,,Jacke,,,cuedRecallAdj,1,,,,,,,,,,,,,,,,,,,,,,,,,,,,,,,,,,,,,,,,,,,,,,,,,,,,,645.6956461000955,645.7052894000662,0,645.7052894000662,650.476009300095,biegsam,return,4.769509199890308,None,650.4762740000151,650.4854896001052,650.4854896001052,651.2995157000842,,return,0.8133959999540821,None,,,,,1,2023-12-20_12h31.41.696,watkins1,2023.2.3,99.73928152996459,73,2023-12-20 12h31.47.196432 +0000,
,,,,,,,,,,,,,,,,,,,,,,,15,0,15,0,651.8010578000685,,,,,,,,,,656.5843109000707,657.0827271000016,,,,4.777709300047718,,,,,,,,,,,,None,None,,,,,,,,,,Kiste,,,cuedRecallAdj,1,,,,,,,,,,,,,,,,,,,,,,,,,,,,,,,,,,,,,,,,,,,,,,,,,,,,,651.791391500039,651.8010578000685,0,651.8010578000685,656.5810877000913,durchsichtig,return,4.777709300047718,None,656.5813444000669,656.5906808000291,656.5906808000291,656.5842120000161,,None,,,,,,,1,2023-12-20_12h31.41.696,watkins1,2023.2.3,99.73928152996459,73,2023-12-20 12h31.47.196432 +0000,
,,,,,,,,,,,,,,,,,,,,,,,16,0,16,0,657.092606500024,,,,,,,,,,663.0179524000268,663.5093217000831,,,,5.1822714000009,,,,,,,,,,,,0.7324896999634802,None,,,,,,,,,,Kerze,,,cuedRecallAdj,1,,,,,,,,,,,,,,,,,,,,,,,,,,,,,,,,,,,,,,,,,,,,,,,,,,,,,657.0829762000358,657.092606500024,0,657.092606500024,662.2844886000967,neu,return,5.1822714000009,None,662.2847490001004,662.2942169000162,662.2942169000162,663.0176900000079,,return,0.7166651000734419,None,,,,,1,2023-12-20_12h31.41.696,watkins1,2023.2.3,99.73928152996459,73,2023-12-20 12h31.47.196432 +0000,
,,,,,,,,,,,,,,,,,,,,,,,17,0,17,0,663.5192638000008,,,,,,,,,,667.0668567999965,667.556032499997,,,,3.5395153999561444,,,,,,,,,,,,None,None,,,,,,,,,,Löffel,,,cuedRecallAdj,1,,,,,,,,,,,,,,,,,,,,,,,,,,,,,,,,,,,,,,,,,,,,,,,,,,,,,663.5095633000601,663.5192638000008,0,663.5192638000008,667.0645041000098,,return,3.5395153999561444,None,667.0647887000814,667.074093000032,667.074093000032,667.0667486001039,,None,,,,,,,1,2023-12-20_12h31.41.696,watkins1,2023.2.3,99.73928152996459,73,2023-12-20 12h31.47.196432 +0000,
,,,,,,,,,,,,,,,,,,,,,,,18,0,18,0,667.5659911000403,,,,,,,,,,672.1553924001055,672.6469174000667,,,,4.052788099972531,,,,,,,,,,,,0.5314531000331044,None,,,,,,,,,,Fahrrad,,,cuedRecallAdj,1,,,,,,,,,,,,,,,,,,,,,,,,,,,,,,,,,,,,,,,,,,,,,,,,,,,,,667.5562799000181,667.5659911000403,0,667.5659911000403,671.6231389000313,hübsch,return,4.052788099972531,None,671.6234016000526,671.6327311000787,671.6327311000787,672.1551301000873,,return,0.5140658000018448,None,,,,,1,2023-12-20_12h31.41.696,watkins1,2023.2.3,99.73928152996459,73,2023-12-20 12h31.47.196432 +0000,
,,,,,,,,,,,,,,,,,,,,,,,19,0,19,0,672.6568804000271,,,,,,,,,,676.887453500065,677.386544500012,,,,4.217963200062513,,,,,,,,,,,,None,None,,,,,,,,,,Bürste,,,cuedRecallAdj,1,,,,,,,,,,,,,,,,,,,,,,,,,,,,,,,,,,,,,,,,,,,,,,,,,,,,,672.6471609000582,672.6568804000271,0,672.6568804000271,676.8846373000415,neu,return,4.217963200062513,None,676.8849010000704,676.8943278000224,676.8943278000224,676.8873529999983,,None,,,,,,,1,2023-12-20_12h31.41.696,watkins1,2023.2.3,99.73928152996459,73,2023-12-20 12h31.47.196432 +0000,
,,,,,,,,,,,,,,,,,,,,,,,20,0,20,0,677.3964919000864,,,,,,,,,,683.603862100048,684.0953862000024,,,,5.438290799967945,,,,,,,,,,,,0.7623573000309989,None,,,,,,,,,,Hammer,,,cuedRecallAdj,1,,,,,,,,,,,,,,,,,,,,,,,,,,,,,,,,,,,,,,,,,,,,,,,,,,,,,677.3867898000171,677.3964919000864,0,677.3964919000864,682.8406784000108,nachhaltig,return,5.438290799967945,None,682.8409440000542,682.8502300000982,682.8502300000982,683.6036025000503,,return,0.7446273999521509,None,,,,,1,2023-12-20_12h31.41.696,watkins1,2023.2.3,99.73928152996459,73,2023-12-20 12h31.47.196432 +0000,
,,,,,,,,,,,,,,,,,,,,,,,21,0,21,0,684.1053395000054,,,,,,,,,,690.6834735000739,691.1749760000966,,,,3.8574239999288693,,,,,,,,,,,,2.7110999999567866,None,,,,,,,,,,Uhr,,,cuedRecallAdj,1,,,,,,,,,,,,,,,,,,,,,,,,,,,,,,,,,,,,,,,,,,,,,,,,,,,,,684.0956313000061,684.1053395000054,0,684.1053395000054,687.971578800003,elegant,return,3.8574239999288693,None,687.9718377999961,687.9813540000468,687.9813540000468,690.6832105000503,,return,2.693435200024396,None,,,,,1,2023-12-20_12h31.41.696,watkins1,2023.2.3,99.73928152996459,73,2023-12-20 12h31.47.196432 +0000,
,,,,,,,,,,,,,,,,,,,,,,,22,0,22,0,691.1849895000923,,,,,,,,,,699.9621462000068,700.453529600054,,,dick,4.553986000013538,,,,,,,,,,,,2.7004365999018773,None,,,,,,,,,,Geige,,,cuedRecallAdj,1,,,,,,,,,,,,,,,,,,,,,,,,,,,,,,,,,,,,,,,,,,,,,,,,,,,,,691.1752154000569,691.1849895000923,0,691.1849895000923,695.7444093000377,flach,return,4.553986000013538,None,695.7446672000224,695.7539477000246,695.7539477000246,699.9618609000463,dick,return,4.2008448000997305,None,,,,,1,2023-12-20_12h31.41.696,watkins1,2023.2.3,99.73928152996459,73,2023-12-20 12h31.47.196432 +0000,
,,,,,,,,,,,,,,,,,,,,,,,23,0,23,0,700.4634852000745,,,,,,,,,,705.4847739000106,705.9763569000643,,,,4.411473699961789,,,,,,,,,,,,0.6017576999729499,None,,,,,,,,,,Socke,,,cuedRecallAdj,1,,,,,,,,,,,,,,,,,,,,,,,,,,,,,,,,,,,,,,,,,,,,,,,,,,,,,700.4537802000996,700.4634852000745,0,700.4634852000745,704.8822027000133,schmutzig,return,4.411473699961789,None,704.8824760999996,704.8917994000949,704.8917994000949,705.4845072000753,,return,0.583046399988234,None,,,,,1,2023-12-20_12h31.41.696,watkins1,2023.2.3,99.73928152996459,73,2023-12-20 12h31.47.196432 +0000,
,,,,,,,,,,,,,,,,,,,,,,,24,0,24,0,705.9863042000216,,,,,,,,,,710.6863934000721,711.1776483000722,,,,4.208585600019433,,,,,,,,,,,,0.4814071001019329,None,,,,,,,,,,Telefon,,,cuedRecallAdj,1,,,,,,,,,,,,,,,,,,,,,,,,,,,,,,,,,,,,,,,,,,,,,,,,,,,,,705.976596100023,705.9863042000216,0,705.9863042000216,710.2039823000086,hübsch,return,4.208585600019433,None,710.204245400033,710.2137594000669,710.2137594000669,710.6861125000287,,return,0.469145999988541,None,,,,,1,2023-12-20_12h31.41.696,watkins1,2023.2.3,99.73928152996459,73,2023-12-20 12h31.47.196432 +0000,
,,,,,,,,,,,,,,,,,,,,,,,25,0,25,0,711.1875701000681,,,,,,,,,,715.680994000053,716.1797385000391,,,,4.48736310005188,,,,,,,,,,,,None,None,,,,,,,,,,Ring,,,cuedRecallAdj,1,,,,,,,,,,,,,,,,,,,,,,,,,,,,,,,,,,,,,,,,,,,,,,,,,,,,,711.1778889000416,711.1875701000681,0,711.1875701000681,715.6780965999933,gepunktet,return,4.48736310005188,None,715.6783568999963,715.6877182000317,715.6877182000317,715.6808932001004,,None,,,,,,,1,2023-12-20_12h31.41.696,watkins1,2023.2.3,99.73928152996459,73,2023-12-20 12h31.47.196432 +0000,
,,,,,,,,,,,,,,,,,,,,,,,26,0,26,0,716.1897415000712,,,,,,,,,,719.5769312001066,720.0756948000053,,,,3.381121000042185,,,,,,,,,,,,None,None,,,,,,,,,,Flasche,,,cuedRecallAdj,1,,,,,,,,,,,,,,,,,,,,,,,,,,,,,,,,,,,,,,,,,,,,,,,,,,,,,716.1799792000093,716.1897415000712,0,716.1897415000712,719.5740437000059,kurz,return,3.381121000042185,None,719.5743076000363,719.583655500086,719.583655500086,719.5768306000391,,None,,,,,,,1,2023-12-20_12h31.41.696,watkins1,2023.2.3,99.73928152996459,73,2023-12-20 12h31.47.196432 +0000,
,,,,,,,,,,,,,,,,,,,,,,,27,0,27,0,720.0856353000272,,,,,,,,,,722.2569556999952,722.7467636000365,,,,2.1652559000067413,,,,,,,,,,,,None,None,,,,,,,,,,Hut,,,cuedRecallAdj,1,,,,,,,,,,,,,,,,,,,,,,,,,,,,,,,,,,,,,,,,,,,,,,,,,,,,,720.0759386999998,720.0856353000272,0,720.0856353000272,722.2548866000725,,return,2.1652559000067413,None,722.2551531000063,722.2644848000491,722.2644848000491,722.2568533000303,,None,,,,,,,1,2023-12-20_12h31.41.696,watkins1,2023.2.3,99.73928152996459,73,2023-12-20 12h31.47.196432 +0000,
,,,,,,,,,,,,,,,,,,,,,,,28,0,28,0,722.7567087000934,,,,,,,,,,735.6206842000829,736.1124659000197,,,,3.2781257999595255,,,,,,,,,,,,9.578977800090797,None,,,,,,,,,,Trommel,,,cuedRecallAdj,1,,,,,,,,,,,,,,,,,,,,,,,,,,,,,,,,,,,,,,,,,,,,,,,,,,,,,722.7470053000143,722.7567087000934,0,722.7567087000934,726.0408952001017,teuer,return,3.2781257999595255,None,726.0411609000294,726.050423800014,726.050423800014,735.6204185000388,,return,9.560332200024277,None,,,,,1,2023-12-20_12h31.41.696,watkins1,2023.2.3,99.73928152996459,73,2023-12-20 12h31.47.196432 +0000,
,,,,,,,,,,,,,,,,,,,,,,,29,0,29,0,736.1224077000516,,,,,,,,,,739.4997160000494,739.9983125000726,,,,3.3684401999926195,,,,,,,,,,,,None,None,,,,,,,,,,Stift,,,cuedRecallAdj,1,,,,,,,,,,,,,,,,,,,,,,,,,,,,,,,,,,,,,,,,,,,,,,,,,,,,,736.1127164000645,736.1224077000516,0,736.1224077000516,739.4966771000763,praktisch,return,3.3684401999926195,None,739.4969478000421,739.5062522999942,739.5062522999942,739.4996147000929,,None,,,,,,,1,2023-12-20_12h31.41.696,watkins1,2023.2.3,99.73928152996459,73,2023-12-20 12h31.47.196432 +0000,
,,,,,,,,,,,,,,,,,,,,,,,,,,,,,,,,,,,,,,,,,,,,,,,,,,,,,,,,,,,,,,,,,,,,,1,,,,,,,,,,,,,,,,,,,,,,,,,,,,,,,,,,,,,,,,,,,,,,,,,,,,,,,,,,,,,,,,,,,,,,740.0153263000539,q,4100.243903900031,None,1,2023-12-20_12h31.41.696,watkins1,2023.2.3,99.73928152996459,73,2023-12-20 12h31.47.196432 +0000,
