subject_nr,contrast_group,iat_order,block_order_1,block_order_2,color_counter,which_IAT_which_block,current_contrast,current_comp,trialnr,trial_type,target_type,task_switch, response_switch,left_target,right_target,left_attribute,right_attribute,trial_target,target_color,target_role,attribute_valence,correct_response,response_first_response,correct_first_response,time_assignments_show,time_target_show,time_first_response,response_time_first_response,response_force_correct,correct_force_correct,time_force_correct,response_time_force_correct,time_logger
29,old,ending_first,incompatible_first,compatible_first,ES_yellow,first_IAT_first_block,ending,incompatible,0,NA,target_practice,target_practice,target_practice,Gelbe Wesen,Lila Wesen,target_practice,target_practice,IAT_yellow4.bmp,yellow,ending_scream,target_practice,c,c,1,798384,798773,798774,4192,none,none,none,none,802994
29,old,ending_first,incompatible_first,compatible_first,ES_yellow,first_IAT_first_block,ending,incompatible,1,change,target_practice,target_practice,target_practice,Gelbe Wesen,Lila Wesen,target_practice,target_practice,IAT_purple4.bmp,purple,ending_melody,target_practice,m,m,1,803614,804004,804004,518,none,none,none,none,804544
29,old,ending_first,incompatible_first,compatible_first,ES_yellow,first_IAT_first_block,ending,incompatible,2,change,target_practice,target_practice,target_practice,Gelbe Wesen,Lila Wesen,target_practice,target_practice,IAT_yellow2.bmp,yellow,ending_scream,target_practice,c,c,1,805144,805534,805534,777,none,none,none,none,806334
29,old,ending_first,incompatible_first,compatible_first,ES_yellow,first_IAT_first_block,ending,incompatible,3,change,target_practice,target_practice,target_practice,Gelbe Wesen,Lila Wesen,target_practice,target_practice,IAT_purple3.bmp,purple,ending_melody,target_practice,m,m,1,806934,807324,807324,417,none,none,none,none,807764
29,old,ending_first,incompatible_first,compatible_first,ES_yellow,first_IAT_first_block,ending,incompatible,4,repetition,target_practice,target_practice,target_practice,Gelbe Wesen,Lila Wesen,target_practice,target_practice,IAT_purple2.bmp,purple,ending_melody,target_practice,m,c,0,808384,808774,808774,384,m,1,809174,740,809934
29,old,ending_first,incompatible_first,compatible_first,ES_yellow,first_IAT_first_block,ending,incompatible,5,repetition,target_practice,target_practice,target_practice,Gelbe Wesen,Lila Wesen,target_practice,target_practice,IAT_purple2.bmp,purple,ending_melody,target_practice,m,m,1,810534,810924,810924,440,none,none,none,none,811384
29,old,ending_first,incompatible_first,compatible_first,ES_yellow,first_IAT_first_block,ending,incompatible,6,change,target_practice,target_practice,target_practice,Gelbe Wesen,Lila Wesen,target_practice,target_practice,IAT_yellow1.bmp,yellow,ending_scream,target_practice,c,c,1,811984,812374,812374,483,none,none,none,none,812884
29,old,ending_first,incompatible_first,compatible_first,ES_yellow,first_IAT_first_block,ending,incompatible,7,change,target_practice,target_practice,target_practice,Gelbe Wesen,Lila Wesen,target_practice,target_practice,IAT_purple1.bmp,purple,ending_melody,target_practice,m,m,1,813533,813923,813924,445,none,none,none,none,814394
29,old,ending_first,incompatible_first,compatible_first,ES_yellow,first_IAT_first_block,ending,incompatible,8,repetition,target_practice,target_practice,target_practice,Gelbe Wesen,Lila Wesen,target_practice,target_practice,IAT_purple1.bmp,purple,ending_melody,target_practice,m,m,1,814993,815383,815384,377,none,none,none,none,815783
29,old,ending_first,incompatible_first,compatible_first,ES_yellow,first_IAT_first_block,ending,incompatible,9,repetition,target_practice,target_practice,target_practice,Gelbe Wesen,Lila Wesen,target_practice,target_practice,IAT_purple4.bmp,purple,ending_melody,target_practice,m,m,1,816393,816783,816784,322,none,none,none,none,817133
29,old,ending_first,incompatible_first,compatible_first,ES_yellow,first_IAT_first_block,ending,incompatible,10,repetition,target_practice,target_practice,target_practice,Gelbe Wesen,Lila Wesen,target_practice,target_practice,IAT_purple4.bmp,purple,ending_melody,target_practice,m,m,1,817733,818123,818123,323,none,none,none,none,818473
29,old,ending_first,incompatible_first,compatible_first,ES_yellow,first_IAT_first_block,ending,incompatible,11,change,target_practice,target_practice,target_practice,Gelbe Wesen,Lila Wesen,target_practice,target_practice,IAT_yellow4.bmp,yellow,ending_scream,target_practice,c,c,1,819088,819484,819484,447,none,none,none,none,819954
29,old,ending_first,incompatible_first,compatible_first,ES_yellow,first_IAT_first_block,ending,incompatible,12,repetition,target_practice,target_practice,target_practice,Gelbe Wesen,Lila Wesen,target_practice,target_practice,IAT_yellow3.bmp,yellow,ending_scream,target_practice,c,c,1,820524,820914,820914,366,none,none,none,none,821304
29,old,ending_first,incompatible_first,compatible_first,ES_yellow,first_IAT_first_block,ending,incompatible,13,repetition,target_practice,target_practice,target_practice,Gelbe Wesen,Lila Wesen,target_practice,target_practice,IAT_yellow3.bmp,yellow,ending_scream,target_practice,c,c,1,821864,822254,822254,431,none,none,none,none,822704
29,old,ending_first,incompatible_first,compatible_first,ES_yellow,first_IAT_first_block,ending,incompatible,14,change,target_practice,target_practice,target_practice,Gelbe Wesen,Lila Wesen,target_practice,target_practice,IAT_purple2.bmp,purple,ending_melody,target_practice,m,m,1,823264,823654,823654,367,none,none,none,none,824044
29,old,ending_first,incompatible_first,compatible_first,ES_yellow,first_IAT_first_block,ending,incompatible,15,change,target_practice,target_practice,target_practice,Gelbe Wesen,Lila Wesen,target_practice,target_practice,IAT_yellow1.bmp,yellow,ending_scream,target_practice,c,c,1,824614,825004,825004,394,none,none,none,none,825424
29,old,ending_first,incompatible_first,compatible_first,ES_yellow,first_IAT_first_block,ending,incompatible,16,repetition,target_practice,target_practice,target_practice,Gelbe Wesen,Lila Wesen,target_practice,target_practice,IAT_yellow2.bmp,yellow,ending_scream,target_practice,c,c,1,825984,826374,826374,401,none,none,none,none,826804
29,old,ending_first,incompatible_first,compatible_first,ES_yellow,first_IAT_first_block,ending,incompatible,17,repetition,target_practice,target_practice,target_practice,Gelbe Wesen,Lila Wesen,target_practice,target_practice,IAT_yellow2.bmp,yellow,ending_scream,target_practice,c,c,1,827383,827773,827774,373,none,none,none,none,828173
29,old,ending_first,incompatible_first,compatible_first,ES_yellow,first_IAT_first_block,ending,incompatible,18,change,target_practice,target_practice,target_practice,Gelbe Wesen,Lila Wesen,target_practice,target_practice,IAT_purple3.bmp,purple,ending_melody,target_practice,m,m,1,828743,829133,829134,356,none,none,none,none,829513
29,old,ending_first,incompatible_first,compatible_first,ES_yellow,first_IAT_first_block,ending,incompatible,19,change,target_practice,target_practice,target_practice,Gelbe Wesen,Lila Wesen,target_practice,target_practice,IAT_yellow1.bmp,yellow,ending_scream,target_practice,c,c,1,830073,830463,830464,367,none,none,none,none,830853
29,old,ending_first,incompatible_first,compatible_first,ES_yellow,first_IAT_first_block,ending,incompatible,20,repetition,target_practice,target_practice,target_practice,Gelbe Wesen,Lila Wesen,target_practice,target_practice,IAT_yellow3.bmp,yellow,ending_scream,target_practice,c,c,1,831443,831833,831833,336,none,none,none,none,832193
