subject_nr,contrast_group,iat_order,block_order_1,block_order_2,color_counter,which_IAT_which_block,current_contrast,current_comp,trialnr,trial_type,target_type,task_switch, response_switch,left_target,right_target,left_attribute,right_attribute,trial_target,target_color,target_role,attribute_valence,correct_response,response_first_response,correct_first_response,time_assignments_show,time_target_show,time_first_response,response_time_first_response,response_force_correct,correct_force_correct,time_force_correct,response_time_force_correct,time_logger
36,new,melody_first,compatible_first,compatible_first,ES_green,second_IAT_second_block,scream,incompatible,0,none,attribute,NA,NA,Grüne Wesen,Lila Wesen,Negativ,Positiv,Wundervoll,NA,NA,positive,m,m,1,1546723,1547113,1547113,671,none,none,none,none,1547803
36,new,melody_first,compatible_first,compatible_first,ES_green,second_IAT_second_block,scream,incompatible,1,none,target,task_switch,response_switch,Grüne Wesen,Lila Wesen,Negativ,Positiv,IAT_green4.bmp,green,ending_scream,NA,c,c,1,1548512,1548902,1548903,903,none,none,none,none,1549832
36,new,melody_first,compatible_first,compatible_first,ES_green,second_IAT_second_block,scream,incompatible,2,none,attribute,task_switch,response_repetition,Grüne Wesen,Lila Wesen,Negativ,Positiv,Böse,NA,NA,negative,c,c,1,1550572,1550962,1550963,547,none,none,none,none,1551532
36,new,melody_first,compatible_first,compatible_first,ES_green,second_IAT_second_block,scream,incompatible,3,none,attribute,task_repetition,response_repetition,Grüne Wesen,Lila Wesen,Negativ,Positiv,Bedrohung,NA,NA,negative,c,c,1,1552262,1552652,1552652,635,none,none,none,none,1553313
36,new,melody_first,compatible_first,compatible_first,ES_green,second_IAT_second_block,scream,incompatible,4,none,attribute,task_repetition,response_repetition,Grüne Wesen,Lila Wesen,Negativ,Positiv,Schlecht,NA,NA,negative,c,c,1,1554044,1554433,1554433,563,none,none,none,none,1555023
36,new,melody_first,compatible_first,compatible_first,ES_green,second_IAT_second_block,scream,incompatible,5,none,target,task_switch,response_repetition,Grüne Wesen,Lila Wesen,Negativ,Positiv,IAT_green2.bmp,green,ending_scream,NA,c,c,1,1555733,1556123,1556123,776,none,none,none,none,1556923
36,new,melody_first,compatible_first,compatible_first,ES_green,second_IAT_second_block,scream,incompatible,6,none,target,task_repetition,response_repetition,Grüne Wesen,Lila Wesen,Negativ,Positiv,IAT_green1.bmp,green,ending_scream,NA,c,c,1,1557623,1558013,1558013,421,none,none,none,none,1558453
36,new,melody_first,compatible_first,compatible_first,ES_green,second_IAT_second_block,scream,incompatible,7,none,attribute,task_switch,response_switch,Grüne Wesen,Lila Wesen,Negativ,Positiv,Liebe,NA,NA,positive,m,m,1,1559193,1559583,1559583,546,none,none,none,none,1560153
36,new,melody_first,compatible_first,compatible_first,ES_green,second_IAT_second_block,scream,incompatible,8,none,attribute,task_repetition,response_repetition,Grüne Wesen,Lila Wesen,Negativ,Positiv,Spaß,NA,NA,positive,m,m,1,1560893,1561283,1561283,877,none,none,none,none,1562183
36,new,melody_first,compatible_first,compatible_first,ES_green,second_IAT_second_block,scream,incompatible,9,none,attribute,task_repetition,response_switch,Grüne Wesen,Lila Wesen,Negativ,Positiv,Trauer,NA,NA,negative,c,c,1,1562913,1563303,1563303,567,none,none,none,none,1563893
36,new,melody_first,compatible_first,compatible_first,ES_green,second_IAT_second_block,scream,incompatible,10,none,attribute,task_repetition,response_switch,Grüne Wesen,Lila Wesen,Negativ,Positiv,Frieden,NA,NA,positive,m,m,1,1564622,1565012,1565013,790,none,none,none,none,1565823
36,new,melody_first,compatible_first,compatible_first,ES_green,second_IAT_second_block,scream,incompatible,11,none,attribute,task_repetition,response_repetition,Grüne Wesen,Lila Wesen,Negativ,Positiv,Wundervoll,NA,NA,positive,m,m,1,1566574,1566962,1566963,710,none,none,none,none,1567692
36,new,melody_first,compatible_first,compatible_first,ES_green,second_IAT_second_block,scream,incompatible,12,none,target,task_switch,response_switch,Grüne Wesen,Lila Wesen,Negativ,Positiv,IAT_green3.bmp,green,ending_scream,NA,c,c,1,1568392,1568782,1568782,795,none,none,none,none,1569602
36,new,melody_first,compatible_first,compatible_first,ES_green,second_IAT_second_block,scream,incompatible,13,none,target,task_repetition,response_switch,Grüne Wesen,Lila Wesen,Negativ,Positiv,IAT_purple3.bmp,purple,starting_scream,NA,m,m,1,1570323,1570713,1570713,357,none,none,none,none,1571093
36,new,melody_first,compatible_first,compatible_first,ES_green,second_IAT_second_block,scream,incompatible,14,none,target,task_repetition,response_repetition,Grüne Wesen,Lila Wesen,Negativ,Positiv,IAT_purple1.bmp,purple,starting_scream,NA,m,m,1,1571803,1572193,1572193,535,none,none,none,none,1572753
36,new,melody_first,compatible_first,compatible_first,ES_green,second_IAT_second_block,scream,incompatible,15,none,target,task_repetition,response_switch,Grüne Wesen,Lila Wesen,Negativ,Positiv,IAT_green4.bmp,green,ending_scream,NA,c,c,1,1573463,1573853,1573853,439,none,none,none,none,1574313
36,new,melody_first,compatible_first,compatible_first,ES_green,second_IAT_second_block,scream,incompatible,16,none,target,task_repetition,response_repetition,Grüne Wesen,Lila Wesen,Negativ,Positiv,IAT_green1.bmp,green,ending_scream,NA,c,c,1,1575023,1575413,1575413,492,none,none,none,none,1575933
36,new,melody_first,compatible_first,compatible_first,ES_green,second_IAT_second_block,scream,incompatible,17,none,target,task_repetition,response_repetition,Grüne Wesen,Lila Wesen,Negativ,Positiv,IAT_green3.bmp,green,ending_scream,NA,c,c,1,1576633,1577023,1577023,572,none,none,none,none,1577623
36,new,melody_first,compatible_first,compatible_first,ES_green,second_IAT_second_block,scream,incompatible,18,none,attribute,task_switch,response_repetition,Grüne Wesen,Lila Wesen,Negativ,Positiv,Versagen,NA,NA,negative,c,c,1,1578373,1578763,1578763,568,none,none,none,none,1579353
36,new,melody_first,compatible_first,compatible_first,ES_green,second_IAT_second_block,scream,incompatible,19,none,target,task_switch,response_switch,Grüne Wesen,Lila Wesen,Negativ,Positiv,IAT_purple4.bmp,purple,starting_scream,NA,m,m,1,1580063,1580453,1580453,753,none,none,none,none,1581233
36,new,melody_first,compatible_first,compatible_first,ES_green,second_IAT_second_block,scream,incompatible,20,none,target,task_repetition,response_switch,Grüne Wesen,Lila Wesen,Negativ,Positiv,IAT_green2.bmp,green,ending_scream,NA,c,c,1,1581932,1582322,1582323,841,none,none,none,none,1583182
36,new,melody_first,compatible_first,compatible_first,ES_green,second_IAT_second_block,scream,incompatible,21,none,target,task_repetition,response_switch,Grüne Wesen,Lila Wesen,Negativ,Positiv,IAT_purple2.bmp,purple,starting_scream,NA,m,m,1,1583892,1584282,1584283,700,none,none,none,none,1585002
36,new,melody_first,compatible_first,compatible_first,ES_green,second_IAT_second_block,scream,incompatible,22,none,target,task_repetition,response_repetition,Grüne Wesen,Lila Wesen,Negativ,Positiv,IAT_purple4.bmp,purple,starting_scream,NA,m,m,1,1585692,1586082,1586082,583,none,none,none,none,1586692
36,new,melody_first,compatible_first,compatible_first,ES_green,second_IAT_second_block,scream,incompatible,23,none,attribute,task_switch,response_switch,Grüne Wesen,Lila Wesen,Negativ,Positiv,Schmerz,NA,NA,negative,c,c,1,1587432,1587822,1587822,755,none,none,none,none,1588603
36,new,melody_first,compatible_first,compatible_first,ES_green,second_IAT_second_block,scream,incompatible,24,none,target,task_switch,response_repetition,Grüne Wesen,Lila Wesen,Negativ,Positiv,IAT_green4.bmp,green,ending_scream,NA,c,c,1,1589303,1589693,1589693,698,none,none,none,none,1590413
36,new,melody_first,compatible_first,compatible_first,ES_green,second_IAT_second_block,scream,incompatible,25,none,attribute,task_switch,response_switch,Grüne Wesen,Lila Wesen,Negativ,Positiv,Glücklich,NA,NA,positive,m,m,1,1591195,1591583,1591583,769,none,none,none,none,1592373
36,new,melody_first,compatible_first,compatible_first,ES_green,second_IAT_second_block,scream,incompatible,26,none,attribute,task_repetition,response_repetition,Grüne Wesen,Lila Wesen,Negativ,Positiv,Freude,NA,NA,positive,m,m,1,1593103,1593493,1593493,527,none,none,none,none,1594043
36,new,melody_first,compatible_first,compatible_first,ES_green,second_IAT_second_block,scream,incompatible,27,none,target,task_switch,response_repetition,Grüne Wesen,Lila Wesen,Negativ,Positiv,IAT_purple1.bmp,purple,starting_scream,NA,m,m,1,1594743,1595133,1595133,709,none,none,none,none,1595863
36,new,melody_first,compatible_first,compatible_first,ES_green,second_IAT_second_block,scream,incompatible,28,none,attribute,task_switch,response_switch,Grüne Wesen,Lila Wesen,Negativ,Positiv,Trauer,NA,NA,negative,c,c,1,1596583,1596973,1596973,577,none,none,none,none,1597573
36,new,melody_first,compatible_first,compatible_first,ES_green,second_IAT_second_block,scream,incompatible,29,none,target,task_switch,response_repetition,Grüne Wesen,Lila Wesen,Negativ,Positiv,IAT_green1.bmp,green,ending_scream,NA,c,c,1,1598282,1598672,1598673,409,none,none,none,none,1599103
36,new,melody_first,compatible_first,compatible_first,ES_green,second_IAT_second_block,scream,incompatible,30,none,target,task_repetition,response_switch,Grüne Wesen,Lila Wesen,Negativ,Positiv,IAT_purple2.bmp,purple,starting_scream,NA,m,m,1,1599822,1600212,1600213,493,none,none,none,none,1600732
36,new,melody_first,compatible_first,compatible_first,ES_green,second_IAT_second_block,scream,incompatible,31,none,attribute,task_switch,response_switch,Grüne Wesen,Lila Wesen,Negativ,Positiv,Bedrohung,NA,NA,negative,c,c,1,1601472,1601862,1601862,511,none,none,none,none,1602392
36,new,melody_first,compatible_first,compatible_first,ES_green,second_IAT_second_block,scream,incompatible,32,none,target,task_switch,response_switch,Grüne Wesen,Lila Wesen,Negativ,Positiv,IAT_purple3.bmp,purple,starting_scream,NA,m,m,1,1603092,1603482,1603482,468,none,none,none,none,1603972
36,new,melody_first,compatible_first,compatible_first,ES_green,second_IAT_second_block,scream,incompatible,33,none,target,task_repetition,response_repetition,Grüne Wesen,Lila Wesen,Negativ,Positiv,IAT_purple4.bmp,purple,starting_scream,NA,m,m,1,1604682,1605072,1605072,453,none,none,none,none,1605553
36,new,melody_first,compatible_first,compatible_first,ES_green,second_IAT_second_block,scream,incompatible,34,none,attribute,task_switch,response_repetition,Grüne Wesen,Lila Wesen,Negativ,Positiv,Glücklich,NA,NA,positive,m,m,1,1606363,1606753,1606753,570,none,none,none,none,1607343
36,new,melody_first,compatible_first,compatible_first,ES_green,second_IAT_second_block,scream,incompatible,35,none,attribute,task_repetition,response_switch,Grüne Wesen,Lila Wesen,Negativ,Positiv,Böse,NA,NA,negative,c,c,1,1608063,1608453,1608453,545,none,none,none,none,1609023
36,new,melody_first,compatible_first,compatible_first,ES_green,second_IAT_second_block,scream,incompatible,36,none,attribute,task_repetition,response_repetition,Grüne Wesen,Lila Wesen,Negativ,Positiv,Schlecht,NA,NA,negative,c,c,1,1609753,1610143,1610143,583,none,none,none,none,1610753
36,new,melody_first,compatible_first,compatible_first,ES_green,second_IAT_second_block,scream,incompatible,37,none,target,task_switch,response_switch,Grüne Wesen,Lila Wesen,Negativ,Positiv,IAT_purple1.bmp,purple,starting_scream,NA,m,m,1,1611463,1611853,1611853,677,none,none,none,none,1612553
36,new,melody_first,compatible_first,compatible_first,ES_green,second_IAT_second_block,scream,incompatible,38,none,target,task_repetition,response_switch,Grüne Wesen,Lila Wesen,Negativ,Positiv,IAT_green2.bmp,green,ending_scream,NA,c,c,1,1613296,1613693,1613693,325,none,none,none,none,1614043
36,new,melody_first,compatible_first,compatible_first,ES_green,second_IAT_second_block,scream,incompatible,39,none,attribute,task_switch,response_repetition,Grüne Wesen,Lila Wesen,Negativ,Positiv,Versagen,NA,NA,negative,c,c,1,1614783,1615172,1615173,580,none,none,none,none,1615773
36,new,melody_first,compatible_first,compatible_first,ES_green,second_IAT_second_block,scream,incompatible,40,none,attribute,task_repetition,response_switch,Grüne Wesen,Lila Wesen,Negativ,Positiv,Wundervoll,NA,NA,positive,m,m,1,1616502,1616892,1616893,551,none,none,none,none,1617462
36,new,melody_first,compatible_first,compatible_first,ES_green,second_IAT_second_block,scream,incompatible,41,none,attribute,task_repetition,response_switch,Grüne Wesen,Lila Wesen,Negativ,Positiv,Schmerz,NA,NA,negative,c,c,1,1618212,1618602,1618603,1006,none,none,none,none,1619632
36,new,melody_first,compatible_first,compatible_first,ES_green,second_IAT_second_block,scream,incompatible,42,none,attribute,task_repetition,response_switch,Grüne Wesen,Lila Wesen,Negativ,Positiv,Freude,NA,NA,positive,m,m,1,1620362,1620752,1620752,528,none,none,none,none,1621302
36,new,melody_first,compatible_first,compatible_first,ES_green,second_IAT_second_block,scream,incompatible,43,none,target,task_switch,response_switch,Grüne Wesen,Lila Wesen,Negativ,Positiv,IAT_green3.bmp,green,ending_scream,NA,c,c,1,1622012,1622402,1622402,508,none,none,none,none,1622932
36,new,melody_first,compatible_first,compatible_first,ES_green,second_IAT_second_block,scream,incompatible,44,none,attribute,task_switch,response_switch,Grüne Wesen,Lila Wesen,Negativ,Positiv,Liebe,NA,NA,positive,m,m,1,1623663,1624053,1624053,574,none,none,none,none,1624653
36,new,melody_first,compatible_first,compatible_first,ES_green,second_IAT_second_block,scream,incompatible,45,none,target,task_switch,response_repetition,Grüne Wesen,Lila Wesen,Negativ,Positiv,IAT_purple2.bmp,purple,starting_scream,NA,m,m,1,1625373,1625763,1625763,461,none,none,none,none,1626243
36,new,melody_first,compatible_first,compatible_first,ES_green,second_IAT_second_block,scream,incompatible,46,none,attribute,task_switch,response_repetition,Grüne Wesen,Lila Wesen,Negativ,Positiv,Frieden,NA,NA,positive,m,m,1,1626983,1627373,1627373,550,none,none,none,none,1627943
36,new,melody_first,compatible_first,compatible_first,ES_green,second_IAT_second_block,scream,incompatible,47,none,target,task_switch,response_repetition,Grüne Wesen,Lila Wesen,Negativ,Positiv,IAT_purple3.bmp,purple,starting_scream,NA,m,m,1,1628643,1629033,1629033,406,none,none,none,none,1629463
36,new,melody_first,compatible_first,compatible_first,ES_green,second_IAT_second_block,scream,incompatible,48,none,attribute,task_switch,response_repetition,Grüne Wesen,Lila Wesen,Negativ,Positiv,Spaß,NA,NA,positive,m,m,1,1630243,1630633,1630633,497,none,none,none,none,1631153
