subject_nr,contrast_group,iat_order,block_order_1,block_order_2,color_counter,which_IAT_which_block,current_contrast,current_comp,trialnr,trial_type,target_type,task_switch, response_switch,left_target,right_target,left_attribute,right_attribute,trial_target,target_color,target_role,attribute_valence,correct_response,response_first_response,correct_first_response,time_assignments_show,time_target_show,time_first_response,response_time_first_response,response_force_correct,correct_force_correct,time_force_correct,response_time_force_correct,time_logger
7,old,ending_first,incompatible_first,incompatible_first,ES_yellow,second_IAT_second_block,starting,compatible,0,none,attribute,NA,NA,Grüne Wesen,Rote Wesen,Negativ,Positiv,Versagen,NA,NA,negative,c,M,0,1649151,1649541,1649541,222,C,1,1649781,353,1650161
7,old,ending_first,incompatible_first,incompatible_first,ES_yellow,second_IAT_second_block,starting,compatible,1,none,attribute,task_repetition,response_switch,Grüne Wesen,Rote Wesen,Negativ,Positiv,Spaß,NA,NA,positive,m,M,1,1650871,1651261,1651261,107,none,none,none,none,1651391
7,old,ending_first,incompatible_first,incompatible_first,ES_yellow,second_IAT_second_block,starting,compatible,2,none,target,task_switch,response_repetition,Grüne Wesen,Rote Wesen,Negativ,Positiv,IAT_red4.bmp,red,starting_melody,NA,m,M,1,1652081,1652471,1652471,154,none,none,none,none,1652651
7,old,ending_first,incompatible_first,incompatible_first,ES_yellow,second_IAT_second_block,starting,compatible,3,none,attribute,task_switch,response_repetition,Grüne Wesen,Rote Wesen,Negativ,Positiv,Wundervoll,NA,NA,positive,m,M,1,1653371,1653761,1653761,36,none,none,none,none,1653821
7,old,ending_first,incompatible_first,incompatible_first,ES_yellow,second_IAT_second_block,starting,compatible,4,none,target,task_switch,response_switch,Grüne Wesen,Rote Wesen,Negativ,Positiv,IAT_green4.bmp,green,starting_scream,NA,c,C,1,1654521,1654911,1654911,116,none,none,none,none,1655051
7,old,ending_first,incompatible_first,incompatible_first,ES_yellow,second_IAT_second_block,starting,compatible,5,none,attribute,task_switch,response_switch,Grüne Wesen,Rote Wesen,Negativ,Positiv,Freude,NA,NA,positive,m,M,1,1655781,1656171,1656171,241,none,none,none,none,1656431
7,old,ending_first,incompatible_first,incompatible_first,ES_yellow,second_IAT_second_block,starting,compatible,6,none,target,task_switch,response_repetition,Grüne Wesen,Rote Wesen,Negativ,Positiv,IAT_red3.bmp,red,starting_melody,NA,m,C,0,1657141,1657531,1657531,242,M,1,1657791,115,1657931
7,old,ending_first,incompatible_first,incompatible_first,ES_yellow,second_IAT_second_block,starting,compatible,7,none,attribute,task_switch,response_switch,Grüne Wesen,Rote Wesen,Negativ,Positiv,Böse,NA,NA,negative,c,C,1,1658651,1659041,1659042,154,none,none,none,none,1659221
7,old,ending_first,incompatible_first,incompatible_first,ES_yellow,second_IAT_second_block,starting,compatible,8,none,target,task_switch,response_repetition,Grüne Wesen,Rote Wesen,Negativ,Positiv,IAT_green2.bmp,green,starting_scream,NA,c,C,1,1659921,1660311,1660312,318,none,none,none,none,1660651
7,old,ending_first,incompatible_first,incompatible_first,ES_yellow,second_IAT_second_block,starting,compatible,9,none,attribute,task_switch,response_switch,Grüne Wesen,Rote Wesen,Negativ,Positiv,Liebe,NA,NA,positive,m,M,1,1661371,1661761,1661761,9,none,none,none,none,1661791
7,old,ending_first,incompatible_first,incompatible_first,ES_yellow,second_IAT_second_block,starting,compatible,10,none,attribute,task_repetition,response_repetition,Grüne Wesen,Rote Wesen,Negativ,Positiv,Frieden,NA,NA,positive,m,M,1,1662511,1662901,1662901,229,none,none,none,none,1663151
7,old,ending_first,incompatible_first,incompatible_first,ES_yellow,second_IAT_second_block,starting,compatible,11,none,target,task_switch,response_repetition,Grüne Wesen,Rote Wesen,Negativ,Positiv,IAT_red1.bmp,red,starting_melody,NA,m,C,0,1663923,1664311,1664311,33,M,1,1664361,586,1664971
7,old,ending_first,incompatible_first,incompatible_first,ES_yellow,second_IAT_second_block,starting,compatible,12,none,attribute,task_switch,response_switch,Grüne Wesen,Rote Wesen,Negativ,Positiv,Schmerz,NA,NA,negative,c,C,1,1665701,1666091,1666091,662,none,none,none,none,1666781
7,old,ending_first,incompatible_first,incompatible_first,ES_yellow,second_IAT_second_block,starting,compatible,13,none,target,task_switch,response_switch,Grüne Wesen,Rote Wesen,Negativ,Positiv,IAT_red2.bmp,red,starting_melody,NA,m,C,0,1667491,1667881,1667881,126,M,1,1668021,97,1668141
7,old,ending_first,incompatible_first,incompatible_first,ES_yellow,second_IAT_second_block,starting,compatible,14,none,target,task_repetition,response_switch,Grüne Wesen,Rote Wesen,Negativ,Positiv,IAT_green3.bmp,green,starting_scream,NA,c,C,1,1668841,1669231,1669231,1301,none,none,none,none,1670561
7,old,ending_first,incompatible_first,incompatible_first,ES_yellow,second_IAT_second_block,starting,compatible,15,none,attribute,task_switch,response_repetition,Grüne Wesen,Rote Wesen,Negativ,Positiv,Versagen,NA,NA,negative,c,M,0,1671281,1671671,1671671,66,C,1,1671751,90,1671861
7,old,ending_first,incompatible_first,incompatible_first,ES_yellow,second_IAT_second_block,starting,compatible,16,none,attribute,task_repetition,response_switch,Grüne Wesen,Rote Wesen,Negativ,Positiv,Glücklich,NA,NA,positive,m,M,1,1672590,1672980,1672981,64,none,none,none,none,1673070
7,old,ending_first,incompatible_first,incompatible_first,ES_yellow,second_IAT_second_block,starting,compatible,17,none,attribute,task_repetition,response_repetition,Grüne Wesen,Rote Wesen,Negativ,Positiv,Glücklich,NA,NA,positive,m,C,0,1673800,1674190,1674191,43,M,1,1674251,99,1674370
7,old,ending_first,incompatible_first,incompatible_first,ES_yellow,second_IAT_second_block,starting,compatible,18,none,target,task_switch,response_switch,Grüne Wesen,Rote Wesen,Negativ,Positiv,IAT_green1.bmp,green,starting_scream,NA,c,C,1,1675060,1675451,1675451,59,none,none,none,none,1675531
7,old,ending_first,incompatible_first,incompatible_first,ES_yellow,second_IAT_second_block,starting,compatible,19,none,target,task_repetition,response_switch,Grüne Wesen,Rote Wesen,Negativ,Positiv,IAT_red1.bmp,red,starting_melody,NA,m,C,0,1676231,1676621,1676621,37,M,1,1676671,139,1676831
7,old,ending_first,incompatible_first,incompatible_first,ES_yellow,second_IAT_second_block,starting,compatible,20,none,target,task_repetition,response_repetition,Grüne Wesen,Rote Wesen,Negativ,Positiv,IAT_red3.bmp,red,starting_melody,NA,m,M,1,1677531,1677921,1677921,44,none,none,none,none,1677991
7,old,ending_first,incompatible_first,incompatible_first,ES_yellow,second_IAT_second_block,starting,compatible,21,none,target,task_repetition,response_repetition,Grüne Wesen,Rote Wesen,Negativ,Positiv,IAT_red4.bmp,red,starting_melody,NA,m,M,1,1678691,1679081,1679081,73,none,none,none,none,1679181
7,old,ending_first,incompatible_first,incompatible_first,ES_yellow,second_IAT_second_block,starting,compatible,22,none,target,task_repetition,response_switch,Grüne Wesen,Rote Wesen,Negativ,Positiv,IAT_green1.bmp,green,starting_scream,NA,c,C,1,1679901,1680291,1680291,40,none,none,none,none,1680351
7,old,ending_first,incompatible_first,incompatible_first,ES_yellow,second_IAT_second_block,starting,compatible,23,none,target,task_repetition,response_repetition,Grüne Wesen,Rote Wesen,Negativ,Positiv,IAT_green4.bmp,green,starting_scream,NA,c,C,1,1681051,1681441,1681441,374,none,none,none,none,1681841
7,old,ending_first,incompatible_first,incompatible_first,ES_yellow,second_IAT_second_block,starting,compatible,24,none,attribute,task_switch,response_switch,Grüne Wesen,Rote Wesen,Negativ,Positiv,Liebe,NA,NA,positive,m,M,1,1682604,1683001,1683001,26,none,none,none,none,1683051
7,old,ending_first,incompatible_first,incompatible_first,ES_yellow,second_IAT_second_block,starting,compatible,25,none,attribute,task_repetition,response_switch,Grüne Wesen,Rote Wesen,Negativ,Positiv,Trauer,NA,NA,negative,c,C,1,1683791,1684181,1684181,148,none,none,none,none,1684351
7,old,ending_first,incompatible_first,incompatible_first,ES_yellow,second_IAT_second_block,starting,compatible,26,none,target,task_switch,response_repetition,Grüne Wesen,Rote Wesen,Negativ,Positiv,IAT_green2.bmp,green,starting_scream,NA,c,M,0,1685051,1685441,1685441,143,C,1,1685601,77,1685701
7,old,ending_first,incompatible_first,incompatible_first,ES_yellow,second_IAT_second_block,starting,compatible,27,none,target,task_repetition,response_switch,Grüne Wesen,Rote Wesen,Negativ,Positiv,IAT_red2.bmp,red,starting_melody,NA,m,M,1,1686410,1686800,1686801,41,none,none,none,none,1686861
7,old,ending_first,incompatible_first,incompatible_first,ES_yellow,second_IAT_second_block,starting,compatible,28,none,attribute,task_switch,response_switch,Grüne Wesen,Rote Wesen,Negativ,Positiv,Bedrohung,NA,NA,negative,c,C,1,1687580,1687970,1687971,395,none,none,none,none,1688390
7,old,ending_first,incompatible_first,incompatible_first,ES_yellow,second_IAT_second_block,starting,compatible,29,none,attribute,task_repetition,response_repetition,Grüne Wesen,Rote Wesen,Negativ,Positiv,Schlecht,NA,NA,negative,c,M,0,1689120,1689510,1689510,358,C,1,1689880,219,1690120
7,old,ending_first,incompatible_first,incompatible_first,ES_yellow,second_IAT_second_block,starting,compatible,30,none,target,task_switch,response_switch,Grüne Wesen,Rote Wesen,Negativ,Positiv,IAT_red1.bmp,red,starting_melody,NA,m,M,1,1690810,1691200,1691200,27,none,none,none,none,1691250
7,old,ending_first,incompatible_first,incompatible_first,ES_yellow,second_IAT_second_block,starting,compatible,31,none,attribute,task_switch,response_repetition,Grüne Wesen,Rote Wesen,Negativ,Positiv,Wundervoll,NA,NA,positive,m,C,0,1691971,1692360,1692360,82,M,1,1692460,134,1692620
7,old,ending_first,incompatible_first,incompatible_first,ES_yellow,second_IAT_second_block,starting,compatible,32,none,target,task_switch,response_switch,Grüne Wesen,Rote Wesen,Negativ,Positiv,IAT_green3.bmp,green,starting_scream,NA,c,C,1,1693321,1693711,1693711,107,none,none,none,none,1693841
7,old,ending_first,incompatible_first,incompatible_first,ES_yellow,second_IAT_second_block,starting,compatible,33,none,target,task_repetition,response_repetition,Grüne Wesen,Rote Wesen,Negativ,Positiv,IAT_green2.bmp,green,starting_scream,NA,c,C,1,1694551,1694941,1694941,113,none,none,none,none,1695081
7,old,ending_first,incompatible_first,incompatible_first,ES_yellow,second_IAT_second_block,starting,compatible,34,none,target,task_repetition,response_switch,Grüne Wesen,Rote Wesen,Negativ,Positiv,IAT_red4.bmp,red,starting_melody,NA,m,M,1,1695801,1696191,1696191,32,none,none,none,none,1696241
7,old,ending_first,incompatible_first,incompatible_first,ES_yellow,second_IAT_second_block,starting,compatible,35,none,target,task_repetition,response_repetition,Grüne Wesen,Rote Wesen,Negativ,Positiv,IAT_red2.bmp,red,starting_melody,NA,m,M,1,1696951,1697341,1697341,52,none,none,none,none,1697421
7,old,ending_first,incompatible_first,incompatible_first,ES_yellow,second_IAT_second_block,starting,compatible,36,none,target,task_repetition,response_switch,Grüne Wesen,Rote Wesen,Negativ,Positiv,IAT_green4.bmp,green,starting_scream,NA,c,C,1,1698111,1698501,1698501,89,none,none,none,none,1698611
7,old,ending_first,incompatible_first,incompatible_first,ES_yellow,second_IAT_second_block,starting,compatible,37,none,target,task_repetition,response_repetition,Grüne Wesen,Rote Wesen,Negativ,Positiv,IAT_green1.bmp,green,starting_scream,NA,c,C,1,1699301,1699691,1699691,32,none,none,none,none,1699751
7,old,ending_first,incompatible_first,incompatible_first,ES_yellow,second_IAT_second_block,starting,compatible,38,none,attribute,task_switch,response_repetition,Grüne Wesen,Rote Wesen,Negativ,Positiv,Bedrohung,NA,NA,negative,c,C,1,1700502,1700890,1700891,996,none,none,none,none,1701910
7,old,ending_first,incompatible_first,incompatible_first,ES_yellow,second_IAT_second_block,starting,compatible,39,none,attribute,task_repetition,response_repetition,Grüne Wesen,Rote Wesen,Negativ,Positiv,Böse,NA,NA,negative,c,M,0,1702620,1703010,1703010,11,C,1,1703031,28,1703080
7,old,ending_first,incompatible_first,incompatible_first,ES_yellow,second_IAT_second_block,starting,compatible,40,none,target,task_switch,response_repetition,Grüne Wesen,Rote Wesen,Negativ,Positiv,IAT_green3.bmp,green,starting_scream,NA,c,C,1,1703790,1704180,1704180,135,none,none,none,none,1704340
7,old,ending_first,incompatible_first,incompatible_first,ES_yellow,second_IAT_second_block,starting,compatible,41,none,attribute,task_switch,response_repetition,Grüne Wesen,Rote Wesen,Negativ,Positiv,Schmerz,NA,NA,negative,c,C,1,1705070,1705460,1705460,598,none,none,none,none,1706080
7,old,ending_first,incompatible_first,incompatible_first,ES_yellow,second_IAT_second_block,starting,compatible,42,none,target,task_switch,response_switch,Grüne Wesen,Rote Wesen,Negativ,Positiv,IAT_red3.bmp,red,starting_melody,NA,m,C,0,1706780,1707170,1707170,35,M,1,1707220,104,1707350
7,old,ending_first,incompatible_first,incompatible_first,ES_yellow,second_IAT_second_block,starting,compatible,43,none,attribute,task_switch,response_repetition,Grüne Wesen,Rote Wesen,Negativ,Positiv,Freude,NA,NA,positive,m,M,1,1708080,1708470,1708470,86,none,none,none,none,1708580
7,old,ending_first,incompatible_first,incompatible_first,ES_yellow,second_IAT_second_block,starting,compatible,44,none,attribute,task_repetition,response_switch,Grüne Wesen,Rote Wesen,Negativ,Positiv,Trauer,NA,NA,negative,c,M,0,1709300,1709690,1709690,822,C,1,1710521,103,1710651
7,old,ending_first,incompatible_first,incompatible_first,ES_yellow,second_IAT_second_block,starting,compatible,45,none,attribute,task_repetition,response_repetition,Grüne Wesen,Rote Wesen,Negativ,Positiv,Schlecht,NA,NA,negative,c,C,1,1711381,1711771,1711771,50,none,none,none,none,1711841
7,old,ending_first,incompatible_first,incompatible_first,ES_yellow,second_IAT_second_block,starting,compatible,46,none,attribute,task_repetition,response_switch,Grüne Wesen,Rote Wesen,Negativ,Positiv,Spaß,NA,NA,positive,m,C,0,1712561,1712951,1712951,62,M,1,1713021,4,1713051
7,old,ending_first,incompatible_first,incompatible_first,ES_yellow,second_IAT_second_block,starting,compatible,47,none,attribute,task_repetition,response_repetition,Grüne Wesen,Rote Wesen,Negativ,Positiv,Frieden,NA,NA,positive,m,M,1,1713771,1714160,1714161,10,none,none,none,none,1714191
7,old,ending_first,incompatible_first,incompatible_first,ES_yellow,second_IAT_second_block,starting,compatible,48,none,attribute,task_repetition,response_switch,Grüne Wesen,Rote Wesen,Negativ,Positiv,Versagen,NA,NA,negative,c,M,0,1714910,1715300,1715301,38,C,1,1715351,43,1715420
