subject_nr,contrast_group,iat_order,block_order_1,block_order_2,color_counter,which_IAT_which_block,current_contrast,current_comp,trialnr,trial_type,target_type,task_switch, response_switch,left_target,right_target,left_attribute,right_attribute,trial_target,target_color,target_role,attribute_valence,correct_response,response_first_response,correct_first_response,time_assignments_show,time_target_show,time_first_response,response_time_first_response,response_force_correct,correct_force_correct,time_force_correct,response_time_force_correct,time_logger
7,old,ending_first,incompatible_first,incompatible_first,ES_yellow,second_IAT_first_block,starting,incompatible,0,NA,target_practice,target_practice,target_practice,Rote Wesen,Grüne Wesen,target_practice,target_practice,IAT_red2.bmp,red,starting_melody,target_practice,c,C,1,1398195,1398585,1398585,355,none,none,none,none,1398965
7,old,ending_first,incompatible_first,incompatible_first,ES_yellow,second_IAT_first_block,starting,incompatible,1,change,target_practice,target_practice,target_practice,Rote Wesen,Grüne Wesen,target_practice,target_practice,IAT_green4.bmp,green,starting_scream,target_practice,m,C,0,1399525,1399915,1399915,140,M,1,1400065,230,1400315
7,old,ending_first,incompatible_first,incompatible_first,ES_yellow,second_IAT_first_block,starting,incompatible,2,change,target_practice,target_practice,target_practice,Rote Wesen,Grüne Wesen,target_practice,target_practice,IAT_red1.bmp,red,starting_melody,target_practice,c,C,1,1400875,1401265,1401265,98,none,none,none,none,1401385
7,old,ending_first,incompatible_first,incompatible_first,ES_yellow,second_IAT_first_block,starting,incompatible,3,repetition,target_practice,target_practice,target_practice,Rote Wesen,Grüne Wesen,target_practice,target_practice,IAT_red4.bmp,red,starting_melody,target_practice,c,C,1,1401955,1402345,1402345,55,none,none,none,none,1402425
7,old,ending_first,incompatible_first,incompatible_first,ES_yellow,second_IAT_first_block,starting,incompatible,4,change,target_practice,target_practice,target_practice,Rote Wesen,Grüne Wesen,target_practice,target_practice,IAT_green3.bmp,green,starting_scream,target_practice,m,C,0,1402985,1403375,1403375,171,M,1,1403555,137,1403715
7,old,ending_first,incompatible_first,incompatible_first,ES_yellow,second_IAT_first_block,starting,incompatible,5,repetition,target_practice,target_practice,target_practice,Rote Wesen,Grüne Wesen,target_practice,target_practice,IAT_green2.bmp,green,starting_scream,target_practice,m,C,0,1404274,1404664,1404665,136,M,1,1404815,201,1405034
7,old,ending_first,incompatible_first,incompatible_first,ES_yellow,second_IAT_first_block,starting,incompatible,6,repetition,target_practice,target_practice,target_practice,Rote Wesen,Grüne Wesen,target_practice,target_practice,IAT_green1.bmp,green,starting_scream,target_practice,m,M,1,1405604,1405994,1405995,188,none,none,none,none,1406204
7,old,ending_first,incompatible_first,incompatible_first,ES_yellow,second_IAT_first_block,starting,incompatible,7,change,target_practice,target_practice,target_practice,Rote Wesen,Grüne Wesen,target_practice,target_practice,IAT_red1.bmp,red,starting_melody,target_practice,c,M,0,1406784,1407174,1407174,35,C,1,1407225,149,1407394
7,old,ending_first,incompatible_first,incompatible_first,ES_yellow,second_IAT_first_block,starting,incompatible,8,repetition,target_practice,target_practice,target_practice,Rote Wesen,Grüne Wesen,target_practice,target_practice,IAT_red3.bmp,red,starting_melody,target_practice,c,M,0,1407954,1408344,1408344,54,C,1,1408414,113,1408554
7,old,ending_first,incompatible_first,incompatible_first,ES_yellow,second_IAT_first_block,starting,incompatible,9,change,target_practice,target_practice,target_practice,Rote Wesen,Grüne Wesen,target_practice,target_practice,IAT_green1.bmp,green,starting_scream,target_practice,m,C,0,1409114,1409504,1409504,55,M,1,1409574,149,1409744
7,old,ending_first,incompatible_first,incompatible_first,ES_yellow,second_IAT_first_block,starting,incompatible,10,repetition,target_practice,target_practice,target_practice,Rote Wesen,Grüne Wesen,target_practice,target_practice,IAT_green3.bmp,green,starting_scream,target_practice,m,M,1,1410304,1410694,1410694,41,none,none,none,none,1410754
7,old,ending_first,incompatible_first,incompatible_first,ES_yellow,second_IAT_first_block,starting,incompatible,11,repetition,target_practice,target_practice,target_practice,Rote Wesen,Grüne Wesen,target_practice,target_practice,IAT_green3.bmp,green,starting_scream,target_practice,m,M,1,1411334,1411724,1411724,119,none,none,none,none,1411864
7,old,ending_first,incompatible_first,incompatible_first,ES_yellow,second_IAT_first_block,starting,incompatible,12,repetition,target_practice,target_practice,target_practice,Rote Wesen,Grüne Wesen,target_practice,target_practice,IAT_green4.bmp,green,starting_scream,target_practice,m,C,0,1412455,1412844,1412844,140,M,1,1412994,55,1413074
7,old,ending_first,incompatible_first,incompatible_first,ES_yellow,second_IAT_first_block,starting,incompatible,13,change,target_practice,target_practice,target_practice,Rote Wesen,Grüne Wesen,target_practice,target_practice,IAT_red3.bmp,red,starting_melody,target_practice,c,M,0,1413645,1414035,1414035,157,C,1,1414205,108,1414335
7,old,ending_first,incompatible_first,incompatible_first,ES_yellow,second_IAT_first_block,starting,incompatible,14,change,target_practice,target_practice,target_practice,Rote Wesen,Grüne Wesen,target_practice,target_practice,IAT_green2.bmp,green,starting_scream,target_practice,m,C,0,1414895,1415285,1415285,104,M,1,1415405,110,1415535
7,old,ending_first,incompatible_first,incompatible_first,ES_yellow,second_IAT_first_block,starting,incompatible,15,change,target_practice,target_practice,target_practice,Rote Wesen,Grüne Wesen,target_practice,target_practice,IAT_red3.bmp,red,starting_melody,target_practice,c,M,0,1416105,1416495,1416495,71,C,1,1416575,116,1416715
7,old,ending_first,incompatible_first,incompatible_first,ES_yellow,second_IAT_first_block,starting,incompatible,16,repetition,target_practice,target_practice,target_practice,Rote Wesen,Grüne Wesen,target_practice,target_practice,IAT_red2.bmp,red,starting_melody,target_practice,c,C,1,1417285,1417675,1417675,72,none,none,none,none,1417775
7,old,ending_first,incompatible_first,incompatible_first,ES_yellow,second_IAT_first_block,starting,incompatible,17,repetition,target_practice,target_practice,target_practice,Rote Wesen,Grüne Wesen,target_practice,target_practice,IAT_red2.bmp,red,starting_melody,target_practice,c,C,1,1418334,1418724,1418725,57,none,none,none,none,1418805
7,old,ending_first,incompatible_first,incompatible_first,ES_yellow,second_IAT_first_block,starting,incompatible,18,change,target_practice,target_practice,target_practice,Rote Wesen,Grüne Wesen,target_practice,target_practice,IAT_green4.bmp,green,starting_scream,target_practice,m,C,0,1419364,1419754,1419755,59,M,1,1419825,133,1419984
7,old,ending_first,incompatible_first,incompatible_first,ES_yellow,second_IAT_first_block,starting,incompatible,19,change,target_practice,target_practice,target_practice,Rote Wesen,Grüne Wesen,target_practice,target_practice,IAT_red4.bmp,red,starting_melody,target_practice,c,M,0,1420544,1420934,1420934,84,C,1,1421035,36,1421094
7,old,ending_first,incompatible_first,incompatible_first,ES_yellow,second_IAT_first_block,starting,incompatible,20,repetition,target_practice,target_practice,target_practice,Rote Wesen,Grüne Wesen,target_practice,target_practice,IAT_red4.bmp,red,starting_melody,target_practice,c,C,1,1421704,1422094,1422094,2106,none,none,none,none,1424224
