subject_nr,contrast_group,iat_order,block_order_1,block_order_2,color_counter,which_IAT_which_block,current_contrast,current_comp,trialnr,trial_type,target_type,task_switch, response_switch,left_target,right_target,left_attribute,right_attribute,trial_target,target_color,target_role,attribute_valence,correct_response,response_first_response,correct_first_response,time_assignments_show,time_target_show,time_first_response,response_time_first_response,response_force_correct,correct_force_correct,time_force_correct,response_time_force_correct,time_logger
18,new,melody_first,compatible_first,compatible_first,ES_red,first_IAT_second_block,melody,incompatible,0,none,attribute,NA,NA,Lila Wesen,Grüne Wesen,Negativ,Positiv,Versagen,NA,NA,negative,c,c,1,1156123,1156513,1156513,745,none,none,none,none,1157283
18,new,melody_first,compatible_first,compatible_first,ES_red,first_IAT_second_block,melody,incompatible,1,none,target,task_switch,response_repetition,Lila Wesen,Grüne Wesen,Negativ,Positiv,IAT_purple1.bmp,purple,starting_melody,NA,c,c,1,1157983,1158373,1158373,365,none,none,none,none,1158763
18,new,melody_first,compatible_first,compatible_first,ES_red,first_IAT_second_block,melody,incompatible,2,none,attribute,task_switch,response_repetition,Lila Wesen,Grüne Wesen,Negativ,Positiv,Schlecht,NA,NA,negative,c,m,0,1159483,1159873,1159873,476,c,1,1160363,355,1160743
18,new,melody_first,compatible_first,compatible_first,ES_red,first_IAT_second_block,melody,incompatible,3,none,attribute,task_repetition,response_repetition,Lila Wesen,Grüne Wesen,Negativ,Positiv,Böse,NA,NA,negative,c,c,1,1161483,1161873,1161873,413,none,none,none,none,1162313
18,new,melody_first,compatible_first,compatible_first,ES_red,first_IAT_second_block,melody,incompatible,4,none,attribute,task_repetition,response_repetition,Lila Wesen,Grüne Wesen,Negativ,Positiv,Bedrohung,NA,NA,negative,c,c,1,1163043,1163433,1163433,512,none,none,none,none,1163973
18,new,melody_first,compatible_first,compatible_first,ES_red,first_IAT_second_block,melody,incompatible,5,none,target,task_switch,response_repetition,Lila Wesen,Grüne Wesen,Negativ,Positiv,IAT_purple3.bmp,purple,starting_melody,NA,c,m,0,1164732,1165122,1165123,329,c,1,1165463,361,1165852
18,new,melody_first,compatible_first,compatible_first,ES_red,first_IAT_second_block,melody,incompatible,6,none,attribute,task_switch,response_switch,Lila Wesen,Grüne Wesen,Negativ,Positiv,Spaß,NA,NA,positive,m,m,1,1166632,1167022,1167023,624,none,none,none,none,1167673
18,new,melody_first,compatible_first,compatible_first,ES_red,first_IAT_second_block,melody,incompatible,7,none,target,task_switch,response_repetition,Lila Wesen,Grüne Wesen,Negativ,Positiv,IAT_green1.bmp,green,ending_melody,NA,m,m,1,1168405,1168793,1168793,255,none,none,none,none,1169073
18,new,melody_first,compatible_first,compatible_first,ES_red,first_IAT_second_block,melody,incompatible,8,none,target,task_repetition,response_switch,Lila Wesen,Grüne Wesen,Negativ,Positiv,IAT_purple4.bmp,purple,starting_melody,NA,c,c,1,1169783,1170173,1170173,320,none,none,none,none,1170513
18,new,melody_first,compatible_first,compatible_first,ES_red,first_IAT_second_block,melody,incompatible,9,none,target,task_repetition,response_repetition,Lila Wesen,Grüne Wesen,Negativ,Positiv,IAT_purple2.bmp,purple,starting_melody,NA,c,c,1,1171213,1171603,1171603,351,none,none,none,none,1171973
18,new,melody_first,compatible_first,compatible_first,ES_red,first_IAT_second_block,melody,incompatible,10,none,attribute,task_switch,response_repetition,Lila Wesen,Grüne Wesen,Negativ,Positiv,Schmerz,NA,NA,negative,c,c,1,1172693,1173083,1173083,451,none,none,none,none,1173553
18,new,melody_first,compatible_first,compatible_first,ES_red,first_IAT_second_block,melody,incompatible,11,none,target,task_switch,response_switch,Lila Wesen,Grüne Wesen,Negativ,Positiv,IAT_green3.bmp,green,ending_melody,NA,m,m,1,1174253,1174643,1174643,585,none,none,none,none,1175253
18,new,melody_first,compatible_first,compatible_first,ES_red,first_IAT_second_block,melody,incompatible,12,none,attribute,task_switch,response_switch,Lila Wesen,Grüne Wesen,Negativ,Positiv,Versagen,NA,NA,negative,c,c,1,1175983,1176373,1176373,483,none,none,none,none,1176883
18,new,melody_first,compatible_first,compatible_first,ES_red,first_IAT_second_block,melody,incompatible,13,none,target,task_switch,response_repetition,Lila Wesen,Grüne Wesen,Negativ,Positiv,IAT_purple2.bmp,purple,starting_melody,NA,c,m,0,1177583,1177973,1177973,388,c,1,1178373,297,1178693
18,new,melody_first,compatible_first,compatible_first,ES_red,first_IAT_second_block,melody,incompatible,14,none,target,task_repetition,response_repetition,Lila Wesen,Grüne Wesen,Negativ,Positiv,IAT_purple3.bmp,purple,starting_melody,NA,c,c,1,1179403,1179793,1179793,392,none,none,none,none,1180213
18,new,melody_first,compatible_first,compatible_first,ES_red,first_IAT_second_block,melody,incompatible,15,none,attribute,task_switch,response_switch,Lila Wesen,Grüne Wesen,Negativ,Positiv,Freude,NA,NA,positive,m,m,1,1180942,1181332,1181333,322,none,none,none,none,1181683
18,new,melody_first,compatible_first,compatible_first,ES_red,first_IAT_second_block,melody,incompatible,16,none,target,task_switch,response_switch,Lila Wesen,Grüne Wesen,Negativ,Positiv,IAT_purple4.bmp,purple,starting_melody,NA,c,c,1,1182392,1182782,1182783,343,none,none,none,none,1183152
18,new,melody_first,compatible_first,compatible_first,ES_red,first_IAT_second_block,melody,incompatible,17,none,attribute,task_switch,response_repetition,Lila Wesen,Grüne Wesen,Negativ,Positiv,Trauer,NA,NA,negative,c,c,1,1183892,1184282,1184283,508,none,none,none,none,1184812
18,new,melody_first,compatible_first,compatible_first,ES_red,first_IAT_second_block,melody,incompatible,18,none,attribute,task_repetition,response_switch,Lila Wesen,Grüne Wesen,Negativ,Positiv,Wundervoll,NA,NA,positive,m,m,1,1185593,1185983,1185983,395,none,none,none,none,1186403
18,new,melody_first,compatible_first,compatible_first,ES_red,first_IAT_second_block,melody,incompatible,19,none,attribute,task_repetition,response_switch,Lila Wesen,Grüne Wesen,Negativ,Positiv,Bedrohung,NA,NA,negative,c,c,1,1187173,1187563,1187563,576,none,none,none,none,1188163
18,new,melody_first,compatible_first,compatible_first,ES_red,first_IAT_second_block,melody,incompatible,20,none,target,task_switch,response_switch,Lila Wesen,Grüne Wesen,Negativ,Positiv,IAT_green4.bmp,green,ending_melody,NA,m,m,1,1188935,1189333,1189333,385,none,none,none,none,1189743
18,new,melody_first,compatible_first,compatible_first,ES_red,first_IAT_second_block,melody,incompatible,21,none,attribute,task_switch,response_switch,Lila Wesen,Grüne Wesen,Negativ,Positiv,Schmerz,NA,NA,negative,c,c,1,1190473,1190863,1190863,324,none,none,none,none,1191213
18,new,melody_first,compatible_first,compatible_first,ES_red,first_IAT_second_block,melody,incompatible,22,none,attribute,task_repetition,response_repetition,Lila Wesen,Grüne Wesen,Negativ,Positiv,Böse,NA,NA,negative,c,c,1,1191943,1192333,1192333,474,none,none,none,none,1192833
18,new,melody_first,compatible_first,compatible_first,ES_red,first_IAT_second_block,melody,incompatible,23,none,attribute,task_repetition,response_switch,Lila Wesen,Grüne Wesen,Negativ,Positiv,Liebe,NA,NA,positive,m,m,1,1193573,1193963,1193963,331,none,none,none,none,1194313
18,new,melody_first,compatible_first,compatible_first,ES_red,first_IAT_second_block,melody,incompatible,24,none,target,task_switch,response_switch,Lila Wesen,Grüne Wesen,Negativ,Positiv,IAT_purple1.bmp,purple,starting_melody,NA,c,c,1,1195023,1195413,1195413,406,none,none,none,none,1195843
18,new,melody_first,compatible_first,compatible_first,ES_red,first_IAT_second_block,melody,incompatible,25,none,target,task_repetition,response_switch,Lila Wesen,Grüne Wesen,Negativ,Positiv,IAT_green2.bmp,green,ending_melody,NA,m,m,1,1196543,1196932,1196933,329,none,none,none,none,1197283
18,new,melody_first,compatible_first,compatible_first,ES_red,first_IAT_second_block,melody,incompatible,26,none,attribute,task_switch,response_repetition,Lila Wesen,Grüne Wesen,Negativ,Positiv,Frieden,NA,NA,positive,m,m,1,1198012,1198402,1198403,569,none,none,none,none,1198992
18,new,melody_first,compatible_first,compatible_first,ES_red,first_IAT_second_block,melody,incompatible,27,none,target,task_switch,response_switch,Lila Wesen,Grüne Wesen,Negativ,Positiv,IAT_purple4.bmp,purple,starting_melody,NA,c,c,1,1199693,1200082,1200083,372,none,none,none,none,1200482
18,new,melody_first,compatible_first,compatible_first,ES_red,first_IAT_second_block,melody,incompatible,28,none,target,task_repetition,response_switch,Lila Wesen,Grüne Wesen,Negativ,Positiv,IAT_green3.bmp,green,ending_melody,NA,m,m,1,1201172,1201562,1201562,308,none,none,none,none,1201892
18,new,melody_first,compatible_first,compatible_first,ES_red,first_IAT_second_block,melody,incompatible,29,none,attribute,task_switch,response_repetition,Lila Wesen,Grüne Wesen,Negativ,Positiv,Glücklich,NA,NA,positive,m,m,1,1202622,1203013,1203013,406,none,none,none,none,1203443
18,new,melody_first,compatible_first,compatible_first,ES_red,first_IAT_second_block,melody,incompatible,30,none,target,task_switch,response_repetition,Lila Wesen,Grüne Wesen,Negativ,Positiv,IAT_green1.bmp,green,ending_melody,NA,m,m,1,1204153,1204543,1204543,346,none,none,none,none,1204913
18,new,melody_first,compatible_first,compatible_first,ES_red,first_IAT_second_block,melody,incompatible,31,none,attribute,task_switch,response_repetition,Lila Wesen,Grüne Wesen,Negativ,Positiv,Freude,NA,NA,positive,m,m,1,1205633,1206023,1206023,396,none,none,none,none,1206443
18,new,melody_first,compatible_first,compatible_first,ES_red,first_IAT_second_block,melody,incompatible,32,none,attribute,task_repetition,response_switch,Lila Wesen,Grüne Wesen,Negativ,Positiv,Trauer,NA,NA,negative,c,c,1,1207183,1207573,1207573,458,none,none,none,none,1208053
18,new,melody_first,compatible_first,compatible_first,ES_red,first_IAT_second_block,melody,incompatible,33,none,target,task_switch,response_switch,Lila Wesen,Grüne Wesen,Negativ,Positiv,IAT_green2.bmp,green,ending_melody,NA,m,m,1,1208873,1209263,1209263,322,none,none,none,none,1209613
18,new,melody_first,compatible_first,compatible_first,ES_red,first_IAT_second_block,melody,incompatible,34,none,target,task_repetition,response_repetition,Lila Wesen,Grüne Wesen,Negativ,Positiv,IAT_green4.bmp,green,ending_melody,NA,m,m,1,1210354,1210743,1210743,391,none,none,none,none,1211163
18,new,melody_first,compatible_first,compatible_first,ES_red,first_IAT_second_block,melody,incompatible,35,none,target,task_repetition,response_switch,Lila Wesen,Grüne Wesen,Negativ,Positiv,IAT_purple2.bmp,purple,starting_melody,NA,c,c,1,1211863,1212253,1212253,510,none,none,none,none,1212783
18,new,melody_first,compatible_first,compatible_first,ES_red,first_IAT_second_block,melody,incompatible,36,none,target,task_repetition,response_repetition,Lila Wesen,Grüne Wesen,Negativ,Positiv,IAT_purple1.bmp,purple,starting_melody,NA,c,c,1,1213483,1213873,1213873,591,none,none,none,none,1214493
18,new,melody_first,compatible_first,compatible_first,ES_red,first_IAT_second_block,melody,incompatible,37,none,target,task_repetition,response_switch,Lila Wesen,Grüne Wesen,Negativ,Positiv,IAT_green4.bmp,green,ending_melody,NA,m,m,1,1215192,1215582,1215583,465,none,none,none,none,1216073
18,new,melody_first,compatible_first,compatible_first,ES_red,first_IAT_second_block,melody,incompatible,38,none,target,task_repetition,response_repetition,Lila Wesen,Grüne Wesen,Negativ,Positiv,IAT_green2.bmp,green,ending_melody,NA,m,m,1,1216782,1217172,1217173,331,none,none,none,none,1217522
18,new,melody_first,compatible_first,compatible_first,ES_red,first_IAT_second_block,melody,incompatible,39,none,target,task_repetition,response_repetition,Lila Wesen,Grüne Wesen,Negativ,Positiv,IAT_green3.bmp,green,ending_melody,NA,m,m,1,1218232,1218622,1218622,350,none,none,none,none,1218992
18,new,melody_first,compatible_first,compatible_first,ES_red,first_IAT_second_block,melody,incompatible,40,none,target,task_repetition,response_switch,Lila Wesen,Grüne Wesen,Negativ,Positiv,IAT_purple3.bmp,purple,starting_melody,NA,c,m,0,1219692,1220082,1220082,337,c,1,1220433,376,1220833
18,new,melody_first,compatible_first,compatible_first,ES_red,first_IAT_second_block,melody,incompatible,41,none,attribute,task_switch,response_switch,Lila Wesen,Grüne Wesen,Negativ,Positiv,Spaß,NA,NA,positive,m,m,1,1221563,1221953,1221953,478,none,none,none,none,1222453
18,new,melody_first,compatible_first,compatible_first,ES_red,first_IAT_second_block,melody,incompatible,42,none,attribute,task_repetition,response_repetition,Lila Wesen,Grüne Wesen,Negativ,Positiv,Wundervoll,NA,NA,positive,m,m,1,1223193,1223583,1223583,562,none,none,none,none,1224173
18,new,melody_first,compatible_first,compatible_first,ES_red,first_IAT_second_block,melody,incompatible,43,none,attribute,task_repetition,response_repetition,Lila Wesen,Grüne Wesen,Negativ,Positiv,Liebe,NA,NA,positive,m,m,1,1224893,1225283,1225283,651,none,none,none,none,1225953
18,new,melody_first,compatible_first,compatible_first,ES_red,first_IAT_second_block,melody,incompatible,44,none,attribute,task_repetition,response_repetition,Lila Wesen,Grüne Wesen,Negativ,Positiv,Glücklich,NA,NA,positive,m,m,1,1226683,1227073,1227073,360,none,none,none,none,1227453
18,new,melody_first,compatible_first,compatible_first,ES_red,first_IAT_second_block,melody,incompatible,45,none,target,task_switch,response_repetition,Lila Wesen,Grüne Wesen,Negativ,Positiv,IAT_green1.bmp,green,ending_melody,NA,m,m,1,1228183,1228573,1228573,429,none,none,none,none,1229023
18,new,melody_first,compatible_first,compatible_first,ES_red,first_IAT_second_block,melody,incompatible,46,none,attribute,task_switch,response_switch,Lila Wesen,Grüne Wesen,Negativ,Positiv,Schlecht,NA,NA,negative,c,c,1,1229753,1230143,1230143,374,none,none,none,none,1230543
18,new,melody_first,compatible_first,compatible_first,ES_red,first_IAT_second_block,melody,incompatible,47,none,attribute,task_repetition,response_switch,Lila Wesen,Grüne Wesen,Negativ,Positiv,Frieden,NA,NA,positive,m,m,1,1231322,1231712,1231713,513,none,none,none,none,1232252
18,new,melody_first,compatible_first,compatible_first,ES_red,first_IAT_second_block,melody,incompatible,48,none,attribute,task_repetition,response_switch,Lila Wesen,Grüne Wesen,Negativ,Positiv,Versagen,NA,NA,negative,c,c,1,1233024,1233412,1233413,522,none,none,none,none,1233962
