subject_nr,contrast_group,iat_order,block_order_1,block_order_2,color_counter,which_IAT_which_block,current_contrast,current_comp,trialnr,trial_type,target_type,task_switch, response_switch,left_target,right_target,left_attribute,right_attribute,trial_target,target_color,target_role,attribute_valence,correct_response,response_first_response,correct_first_response,time_assignments_show,time_target_show,time_first_response,response_time_first_response,response_force_correct,correct_force_correct,time_force_correct,response_time_force_correct,time_logger
45,old,ending_first,compatible_first,incompatible_first,ES_yellow,first_IAT_first_block,ending,compatible,0,NA,attribute_practice,attribute_practice,attribute_practice,attribute_practice,attribute_practice,Negativ,Positiv,Frieden,attribute_practice,attribute_practice,positive,m,m,1,831944,832334,832335,917,none,none,none,none,833274
45,old,ending_first,compatible_first,incompatible_first,ES_yellow,first_IAT_first_block,ending,compatible,1,repetition,attribute_practice,attribute_practice,attribute_practice,attribute_practice,attribute_practice,Negativ,Positiv,Wundervoll,attribute_practice,attribute_practice,positive,m,m,1,833897,834294,834294,600,none,none,none,none,834914
45,old,ending_first,compatible_first,incompatible_first,ES_yellow,first_IAT_first_block,ending,compatible,2,repetition,attribute_practice,attribute_practice,attribute_practice,attribute_practice,attribute_practice,Negativ,Positiv,Freude,attribute_practice,attribute_practice,positive,m,m,1,835464,835854,835854,429,none,none,none,none,836305
45,old,ending_first,compatible_first,incompatible_first,ES_yellow,first_IAT_first_block,ending,compatible,3,change,attribute_practice,attribute_practice,attribute_practice,attribute_practice,attribute_practice,Negativ,Positiv,Schlecht,attribute_practice,attribute_practice,negative,c,c,1,836855,837245,837245,445,none,none,none,none,837715
45,old,ending_first,compatible_first,incompatible_first,ES_yellow,first_IAT_first_block,ending,compatible,4,repetition,attribute_practice,attribute_practice,attribute_practice,attribute_practice,attribute_practice,Negativ,Positiv,Versagen,attribute_practice,attribute_practice,negative,c,c,1,838255,838645,838645,543,none,none,none,none,839215
45,old,ending_first,compatible_first,incompatible_first,ES_yellow,first_IAT_first_block,ending,compatible,5,change,attribute_practice,attribute_practice,attribute_practice,attribute_practice,attribute_practice,Negativ,Positiv,Freude,attribute_practice,attribute_practice,positive,m,m,1,839755,840145,840145,685,none,none,none,none,840855
45,old,ending_first,compatible_first,incompatible_first,ES_yellow,first_IAT_first_block,ending,compatible,6,change,attribute_practice,attribute_practice,attribute_practice,attribute_practice,attribute_practice,Negativ,Positiv,Schmerz,attribute_practice,attribute_practice,negative,c,m,0,841395,841785,841785,793,c,1,842595,361,842975
45,old,ending_first,compatible_first,incompatible_first,ES_yellow,first_IAT_first_block,ending,compatible,7,repetition,attribute_practice,attribute_practice,attribute_practice,attribute_practice,attribute_practice,Negativ,Positiv,Schmerz,attribute_practice,attribute_practice,negative,c,c,1,843535,843925,843925,457,none,none,none,none,844405
45,old,ending_first,compatible_first,incompatible_first,ES_yellow,first_IAT_first_block,ending,compatible,8,change,attribute_practice,attribute_practice,attribute_practice,attribute_practice,attribute_practice,Negativ,Positiv,Wundervoll,attribute_practice,attribute_practice,positive,m,m,1,844935,845324,845325,492,none,none,none,none,845845
45,old,ending_first,compatible_first,incompatible_first,ES_yellow,first_IAT_first_block,ending,compatible,9,change,attribute_practice,attribute_practice,attribute_practice,attribute_practice,attribute_practice,Negativ,Positiv,Bedrohung,attribute_practice,attribute_practice,negative,c,c,1,846454,846844,846845,470,none,none,none,none,847334
45,old,ending_first,compatible_first,incompatible_first,ES_yellow,first_IAT_first_block,ending,compatible,10,change,attribute_practice,attribute_practice,attribute_practice,attribute_practice,attribute_practice,Negativ,Positiv,Liebe,attribute_practice,attribute_practice,positive,m,m,1,847864,848254,848255,480,none,none,none,none,848754
45,old,ending_first,compatible_first,incompatible_first,ES_yellow,first_IAT_first_block,ending,compatible,11,change,attribute_practice,attribute_practice,attribute_practice,attribute_practice,attribute_practice,Negativ,Positiv,Böse,attribute_practice,attribute_practice,negative,c,c,1,849354,849744,849744,641,none,none,none,none,850404
45,old,ending_first,compatible_first,incompatible_first,ES_yellow,first_IAT_first_block,ending,compatible,12,repetition,attribute_practice,attribute_practice,attribute_practice,attribute_practice,attribute_practice,Negativ,Positiv,Trauer,attribute_practice,attribute_practice,negative,c,m,0,850974,851364,851364,893,c,1,852274,275,852574
45,old,ending_first,compatible_first,incompatible_first,ES_yellow,first_IAT_first_block,ending,compatible,13,repetition,attribute_practice,attribute_practice,attribute_practice,attribute_practice,attribute_practice,Negativ,Positiv,Bedrohung,attribute_practice,attribute_practice,negative,c,c,1,853164,853554,853554,543,none,none,none,none,854125
45,old,ending_first,compatible_first,incompatible_first,ES_yellow,first_IAT_first_block,ending,compatible,14,repetition,attribute_practice,attribute_practice,attribute_practice,attribute_practice,attribute_practice,Negativ,Positiv,Versagen,attribute_practice,attribute_practice,negative,c,c,1,854715,855105,855105,449,none,none,none,none,855575
45,old,ending_first,compatible_first,incompatible_first,ES_yellow,first_IAT_first_block,ending,compatible,15,change,attribute_practice,attribute_practice,attribute_practice,attribute_practice,attribute_practice,Negativ,Positiv,Liebe,attribute_practice,attribute_practice,positive,m,m,1,856165,856555,856555,480,none,none,none,none,857055
45,old,ending_first,compatible_first,incompatible_first,ES_yellow,first_IAT_first_block,ending,compatible,16,repetition,attribute_practice,attribute_practice,attribute_practice,attribute_practice,attribute_practice,Negativ,Positiv,Spaß,attribute_practice,attribute_practice,positive,m,m,1,857627,858015,858015,406,none,none,none,none,858445
45,old,ending_first,compatible_first,incompatible_first,ES_yellow,first_IAT_first_block,ending,compatible,17,repetition,attribute_practice,attribute_practice,attribute_practice,attribute_practice,attribute_practice,Negativ,Positiv,Frieden,attribute_practice,attribute_practice,positive,m,m,1,859028,859425,859425,506,none,none,none,none,859955
45,old,ending_first,compatible_first,incompatible_first,ES_yellow,first_IAT_first_block,ending,compatible,18,repetition,attribute_practice,attribute_practice,attribute_practice,attribute_practice,attribute_practice,Negativ,Positiv,Glücklich,attribute_practice,attribute_practice,positive,m,m,1,860485,860875,860875,511,none,none,none,none,861405
45,old,ending_first,compatible_first,incompatible_first,ES_yellow,first_IAT_first_block,ending,compatible,19,change,attribute_practice,attribute_practice,attribute_practice,attribute_practice,attribute_practice,Negativ,Positiv,Schlecht,attribute_practice,attribute_practice,negative,c,c,1,861935,862324,862325,421,none,none,none,none,862775
45,old,ending_first,compatible_first,incompatible_first,ES_yellow,first_IAT_first_block,ending,compatible,20,change,attribute_practice,attribute_practice,attribute_practice,attribute_practice,attribute_practice,Negativ,Positiv,Spaß,attribute_practice,attribute_practice,positive,m,m,1,863304,863694,863695,531,none,none,none,none,864244
