subject_nr,contrast_group,iat_order,block_order_1,block_order_2,color_counter,which_IAT_which_block,current_contrast,current_comp,trialnr,trial_type,target_type,task_switch, response_switch,left_target,right_target,left_attribute,right_attribute,trial_target,target_color,target_role,attribute_valence,correct_response,response_first_response,correct_first_response,time_assignments_show,time_target_show,time_first_response,response_time_first_response,response_force_correct,correct_force_correct,time_force_correct,response_time_force_correct,time_logger
35,old,ending_first,incompatible_first,compatible_first,ES_red,first_IAT_second_block,ending,compatible,0,none,attribute,NA,NA,Grüne Wesen,Rote Wesen,Negativ,Positiv,Freude,NA,NA,positive,m,m,1,1234972,1235362,1235362,985,none,none,none,none,1236372
35,old,ending_first,incompatible_first,compatible_first,ES_red,first_IAT_second_block,ending,compatible,1,none,attribute,task_repetition,response_switch,Grüne Wesen,Rote Wesen,Negativ,Positiv,Schlecht,NA,NA,negative,c,c,1,1237112,1237502,1237502,615,none,none,none,none,1238142
35,old,ending_first,incompatible_first,compatible_first,ES_red,first_IAT_second_block,ending,compatible,2,none,target,task_switch,response_switch,Grüne Wesen,Rote Wesen,Negativ,Positiv,IAT_red2.bmp,red,ending_scream,NA,m,m,1,1238852,1239242,1239243,776,none,none,none,none,1240042
35,old,ending_first,incompatible_first,compatible_first,ES_red,first_IAT_second_block,ending,compatible,3,none,attribute,task_switch,response_switch,Grüne Wesen,Rote Wesen,Negativ,Positiv,Böse,NA,NA,negative,c,c,1,1240772,1241162,1241163,690,none,none,none,none,1241872
35,old,ending_first,incompatible_first,compatible_first,ES_red,first_IAT_second_block,ending,compatible,4,none,attribute,task_repetition,response_switch,Grüne Wesen,Rote Wesen,Negativ,Positiv,Freude,NA,NA,positive,m,m,1,1242592,1242982,1242982,553,none,none,none,none,1243562
35,old,ending_first,incompatible_first,compatible_first,ES_red,first_IAT_second_block,ending,compatible,5,none,attribute,task_repetition,response_switch,Grüne Wesen,Rote Wesen,Negativ,Positiv,Schmerz,NA,NA,negative,c,c,1,1244332,1244722,1244722,533,none,none,none,none,1245282
35,old,ending_first,incompatible_first,compatible_first,ES_red,first_IAT_second_block,ending,compatible,6,none,attribute,task_repetition,response_repetition,Grüne Wesen,Rote Wesen,Negativ,Positiv,Bedrohung,NA,NA,negative,c,c,1,1246072,1246462,1246462,726,none,none,none,none,1247212
35,old,ending_first,incompatible_first,compatible_first,ES_red,first_IAT_second_block,ending,compatible,7,none,target,task_switch,response_switch,Grüne Wesen,Rote Wesen,Negativ,Positiv,IAT_red4.bmp,red,ending_scream,NA,m,m,1,1247945,1248342,1248342,478,none,none,none,none,1248842
35,old,ending_first,incompatible_first,compatible_first,ES_red,first_IAT_second_block,ending,compatible,8,none,attribute,task_switch,response_switch,Grüne Wesen,Rote Wesen,Negativ,Positiv,Versagen,NA,NA,negative,c,c,1,1249582,1249972,1249972,698,none,none,none,none,1250692
35,old,ending_first,incompatible_first,compatible_first,ES_red,first_IAT_second_block,ending,compatible,9,none,target,task_switch,response_switch,Grüne Wesen,Rote Wesen,Negativ,Positiv,IAT_red1.bmp,red,ending_scream,NA,m,m,1,1251401,1251791,1251792,585,none,none,none,none,1252401
35,old,ending_first,incompatible_first,compatible_first,ES_red,first_IAT_second_block,ending,compatible,10,none,target,task_repetition,response_repetition,Grüne Wesen,Rote Wesen,Negativ,Positiv,IAT_red3.bmp,red,ending_scream,NA,m,m,1,1253111,1253501,1253502,619,none,none,none,none,1254141
35,old,ending_first,incompatible_first,compatible_first,ES_red,first_IAT_second_block,ending,compatible,11,none,target,task_repetition,response_repetition,Grüne Wesen,Rote Wesen,Negativ,Positiv,IAT_red1.bmp,red,ending_scream,NA,m,m,1,1254851,1255241,1255241,381,none,none,none,none,1255641
35,old,ending_first,incompatible_first,compatible_first,ES_red,first_IAT_second_block,ending,compatible,12,none,target,task_repetition,response_switch,Grüne Wesen,Rote Wesen,Negativ,Positiv,IAT_green2.bmp,green,ending_melody,NA,c,c,1,1256342,1256732,1256732,488,none,none,none,none,1257242
35,old,ending_first,incompatible_first,compatible_first,ES_red,first_IAT_second_block,ending,compatible,13,none,attribute,task_switch,response_repetition,Grüne Wesen,Rote Wesen,Negativ,Positiv,Trauer,NA,NA,negative,c,c,1,1257962,1258352,1258352,896,none,none,none,none,1259272
35,old,ending_first,incompatible_first,compatible_first,ES_red,first_IAT_second_block,ending,compatible,14,none,attribute,task_repetition,response_switch,Grüne Wesen,Rote Wesen,Negativ,Positiv,Glücklich,NA,NA,positive,m,m,1,1259992,1260382,1260382,1118,none,none,none,none,1261522
35,old,ending_first,incompatible_first,compatible_first,ES_red,first_IAT_second_block,ending,compatible,15,none,target,task_switch,response_switch,Grüne Wesen,Rote Wesen,Negativ,Positiv,IAT_green3.bmp,green,ending_melody,NA,c,c,1,1262232,1262622,1262622,476,none,none,none,none,1263122
35,old,ending_first,incompatible_first,compatible_first,ES_red,first_IAT_second_block,ending,compatible,16,none,target,task_repetition,response_repetition,Grüne Wesen,Rote Wesen,Negativ,Positiv,IAT_green4.bmp,green,ending_melody,NA,c,c,1,1263822,1264211,1264212,441,none,none,none,none,1264672
35,old,ending_first,incompatible_first,compatible_first,ES_red,first_IAT_second_block,ending,compatible,17,none,attribute,task_switch,response_repetition,Grüne Wesen,Rote Wesen,Negativ,Positiv,Bedrohung,NA,NA,negative,c,c,1,1265461,1265851,1265852,592,none,none,none,none,1266471
35,old,ending_first,incompatible_first,compatible_first,ES_red,first_IAT_second_block,ending,compatible,18,none,target,task_switch,response_repetition,Grüne Wesen,Rote Wesen,Negativ,Positiv,IAT_green1.bmp,green,ending_melody,NA,c,c,1,1267231,1267621,1267621,466,none,none,none,none,1268111
35,old,ending_first,incompatible_first,compatible_first,ES_red,first_IAT_second_block,ending,compatible,19,none,attribute,task_switch,response_repetition,Grüne Wesen,Rote Wesen,Negativ,Positiv,Versagen,NA,NA,negative,c,c,1,1268891,1269281,1269281,987,none,none,none,none,1270291
35,old,ending_first,incompatible_first,compatible_first,ES_red,first_IAT_second_block,ending,compatible,20,none,attribute,task_repetition,response_switch,Grüne Wesen,Rote Wesen,Negativ,Positiv,Frieden,NA,NA,positive,m,m,1,1271084,1271481,1271481,644,none,none,none,none,1272151
35,old,ending_first,incompatible_first,compatible_first,ES_red,first_IAT_second_block,ending,compatible,21,none,target,task_switch,response_switch,Grüne Wesen,Rote Wesen,Negativ,Positiv,IAT_green3.bmp,green,ending_melody,NA,c,c,1,1272861,1273251,1273251,480,none,none,none,none,1273752
35,old,ending_first,incompatible_first,compatible_first,ES_red,first_IAT_second_block,ending,compatible,22,none,target,task_repetition,response_repetition,Grüne Wesen,Rote Wesen,Negativ,Positiv,IAT_green2.bmp,green,ending_melody,NA,c,c,1,1274452,1274842,1274842,469,none,none,none,none,1275332
35,old,ending_first,incompatible_first,compatible_first,ES_red,first_IAT_second_block,ending,compatible,23,none,target,task_repetition,response_repetition,Grüne Wesen,Rote Wesen,Negativ,Positiv,IAT_green1.bmp,green,ending_melody,NA,c,c,1,1276042,1276432,1276432,390,none,none,none,none,1276842
35,old,ending_first,incompatible_first,compatible_first,ES_red,first_IAT_second_block,ending,compatible,24,none,target,task_repetition,response_switch,Grüne Wesen,Rote Wesen,Negativ,Positiv,IAT_red3.bmp,red,ending_scream,NA,m,m,1,1277541,1277931,1277932,522,none,none,none,none,1278481
35,old,ending_first,incompatible_first,compatible_first,ES_red,first_IAT_second_block,ending,compatible,25,none,attribute,task_switch,response_repetition,Grüne Wesen,Rote Wesen,Negativ,Positiv,Spaß,NA,NA,positive,m,m,1,1279201,1279591,1279591,768,none,none,none,none,1280381
35,old,ending_first,incompatible_first,compatible_first,ES_red,first_IAT_second_block,ending,compatible,26,none,attribute,task_repetition,response_switch,Grüne Wesen,Rote Wesen,Negativ,Positiv,Schmerz,NA,NA,negative,c,c,1,1281121,1281511,1281511,554,none,none,none,none,1282091
35,old,ending_first,incompatible_first,compatible_first,ES_red,first_IAT_second_block,ending,compatible,27,none,attribute,task_repetition,response_repetition,Grüne Wesen,Rote Wesen,Negativ,Positiv,Schlecht,NA,NA,negative,c,c,1,1282821,1283211,1283211,636,none,none,none,none,1283871
35,old,ending_first,incompatible_first,compatible_first,ES_red,first_IAT_second_block,ending,compatible,28,none,target,task_switch,response_repetition,Grüne Wesen,Rote Wesen,Negativ,Positiv,IAT_green4.bmp,green,ending_melody,NA,c,c,1,1284571,1284961,1284961,580,none,none,none,none,1285561
35,old,ending_first,incompatible_first,compatible_first,ES_red,first_IAT_second_block,ending,compatible,29,none,target,task_repetition,response_switch,Grüne Wesen,Rote Wesen,Negativ,Positiv,IAT_red2.bmp,red,ending_scream,NA,m,m,1,1286271,1286661,1286661,464,none,none,none,none,1287151
35,old,ending_first,incompatible_first,compatible_first,ES_red,first_IAT_second_block,ending,compatible,30,none,target,task_repetition,response_repetition,Grüne Wesen,Rote Wesen,Negativ,Positiv,IAT_red4.bmp,red,ending_scream,NA,m,m,1,1287861,1288251,1288251,382,none,none,none,none,1288661
35,old,ending_first,incompatible_first,compatible_first,ES_red,first_IAT_second_block,ending,compatible,31,none,attribute,task_switch,response_repetition,Grüne Wesen,Rote Wesen,Negativ,Positiv,Liebe,NA,NA,positive,m,m,1,1289381,1289770,1289771,789,none,none,none,none,1290581
35,old,ending_first,incompatible_first,compatible_first,ES_red,first_IAT_second_block,ending,compatible,32,none,target,task_switch,response_repetition,Grüne Wesen,Rote Wesen,Negativ,Positiv,IAT_red2.bmp,red,ending_scream,NA,m,m,1,1291291,1291681,1291682,451,none,none,none,none,1292161
35,old,ending_first,incompatible_first,compatible_first,ES_red,first_IAT_second_block,ending,compatible,33,none,attribute,task_switch,response_repetition,Grüne Wesen,Rote Wesen,Negativ,Positiv,Wundervoll,NA,NA,positive,m,m,1,1292921,1293311,1293311,780,none,none,none,none,1294111
35,old,ending_first,incompatible_first,compatible_first,ES_red,first_IAT_second_block,ending,compatible,34,none,target,task_switch,response_repetition,Grüne Wesen,Rote Wesen,Negativ,Positiv,IAT_red1.bmp,red,ending_scream,NA,m,m,1,1294864,1295261,1295261,412,none,none,none,none,1295701
35,old,ending_first,incompatible_first,compatible_first,ES_red,first_IAT_second_block,ending,compatible,35,none,attribute,task_switch,response_switch,Grüne Wesen,Rote Wesen,Negativ,Positiv,Böse,NA,NA,negative,c,m,0,1296421,1296811,1296811,364,c,1,1297191,369,1297581
35,old,ending_first,incompatible_first,compatible_first,ES_red,first_IAT_second_block,ending,compatible,36,none,attribute,task_repetition,response_repetition,Grüne Wesen,Rote Wesen,Negativ,Positiv,Trauer,NA,NA,negative,c,c,1,1298321,1298711,1298711,670,none,none,none,none,1299401
35,old,ending_first,incompatible_first,compatible_first,ES_red,first_IAT_second_block,ending,compatible,37,none,target,task_switch,response_repetition,Grüne Wesen,Rote Wesen,Negativ,Positiv,IAT_green4.bmp,green,ending_melody,NA,c,c,1,1300091,1300481,1300481,1754,none,none,none,none,1302261
35,old,ending_first,incompatible_first,compatible_first,ES_red,first_IAT_second_block,ending,compatible,38,none,target,task_repetition,response_switch,Grüne Wesen,Rote Wesen,Negativ,Positiv,IAT_red3.bmp,red,ending_scream,NA,m,m,1,1302960,1303350,1303351,485,none,none,none,none,1303860
35,old,ending_first,incompatible_first,compatible_first,ES_red,first_IAT_second_block,ending,compatible,39,none,target,task_repetition,response_switch,Grüne Wesen,Rote Wesen,Negativ,Positiv,IAT_green1.bmp,green,ending_melody,NA,c,c,1,1304570,1304960,1304960,485,none,none,none,none,1305470
35,old,ending_first,incompatible_first,compatible_first,ES_red,first_IAT_second_block,ending,compatible,40,none,attribute,task_switch,response_switch,Grüne Wesen,Rote Wesen,Negativ,Positiv,Glücklich,NA,NA,positive,m,c,0,1306200,1306590,1306590,591,m,1,1307190,360,1307570
35,old,ending_first,incompatible_first,compatible_first,ES_red,first_IAT_second_block,ending,compatible,41,none,attribute,task_repetition,response_repetition,Grüne Wesen,Rote Wesen,Negativ,Positiv,Wundervoll,NA,NA,positive,m,m,1,1308300,1308691,1308691,741,none,none,none,none,1309451
35,old,ending_first,incompatible_first,compatible_first,ES_red,first_IAT_second_block,ending,compatible,42,none,target,task_switch,response_repetition,Grüne Wesen,Rote Wesen,Negativ,Positiv,IAT_red4.bmp,red,ending_scream,NA,m,m,1,1310181,1310571,1310571,1038,none,none,none,none,1311631
35,old,ending_first,incompatible_first,compatible_first,ES_red,first_IAT_second_block,ending,compatible,43,none,target,task_repetition,response_switch,Grüne Wesen,Rote Wesen,Negativ,Positiv,IAT_green3.bmp,green,ending_melody,NA,c,c,1,1312341,1312731,1312731,734,none,none,none,none,1313491
35,old,ending_first,incompatible_first,compatible_first,ES_red,first_IAT_second_block,ending,compatible,44,none,attribute,task_switch,response_switch,Grüne Wesen,Rote Wesen,Negativ,Positiv,Liebe,NA,NA,positive,m,m,1,1314220,1314610,1314611,826,none,none,none,none,1315460
35,old,ending_first,incompatible_first,compatible_first,ES_red,first_IAT_second_block,ending,compatible,45,none,attribute,task_repetition,response_repetition,Grüne Wesen,Rote Wesen,Negativ,Positiv,Frieden,NA,NA,positive,m,c,0,1316180,1316570,1316571,652,m,1,1317241,420,1317680
35,old,ending_first,incompatible_first,compatible_first,ES_red,first_IAT_second_block,ending,compatible,46,none,attribute,task_repetition,response_repetition,Grüne Wesen,Rote Wesen,Negativ,Positiv,Freude,NA,NA,positive,m,m,1,1318450,1318840,1318840,977,none,none,none,none,1319840
35,old,ending_first,incompatible_first,compatible_first,ES_red,first_IAT_second_block,ending,compatible,47,none,target,task_switch,response_switch,Grüne Wesen,Rote Wesen,Negativ,Positiv,IAT_green2.bmp,green,ending_melody,NA,c,c,1,1320644,1321040,1321040,626,none,none,none,none,1321690
35,old,ending_first,incompatible_first,compatible_first,ES_red,first_IAT_second_block,ending,compatible,48,none,attribute,task_switch,response_switch,Grüne Wesen,Rote Wesen,Negativ,Positiv,Spaß,NA,NA,positive,m,m,1,1322410,1322800,1322800,609,none,none,none,none,1323430
