subject_nr,contrast_group,iat_order,block_order_1,block_order_2,color_counter,which_IAT_which_block,current_contrast,current_comp,trialnr,trial_type,target_type,task_switch, response_switch,left_target,right_target,left_attribute,right_attribute,trial_target,target_color,target_role,attribute_valence,correct_response,response_first_response,correct_first_response,time_assignments_show,time_target_show,time_first_response,response_time_first_response,response_force_correct,correct_force_correct,time_force_correct,response_time_force_correct,time_logger
45,old,ending_first,compatible_first,incompatible_first,ES_yellow,first_IAT_first_block,ending,compatible,0,none,attribute,NA,NA,Lila Wesen,Gelbe Wesen,Negativ,Positiv,Schlecht,NA,NA,negative,c,c,1,1036068,1036464,1036465,1104,none,none,none,none,1037594
45,old,ending_first,compatible_first,incompatible_first,ES_yellow,first_IAT_first_block,ending,compatible,1,none,target,task_switch,response_switch,Lila Wesen,Gelbe Wesen,Negativ,Positiv,IAT_yellow2.bmp,yellow,ending_scream,NA,m,m,1,1038294,1038684,1038684,1338,none,none,none,none,1040044
45,old,ending_first,compatible_first,incompatible_first,ES_yellow,first_IAT_first_block,ending,compatible,2,none,target,task_repetition,response_repetition,Lila Wesen,Gelbe Wesen,Negativ,Positiv,IAT_yellow3.bmp,yellow,ending_scream,NA,m,m,1,1040744,1041134,1041134,512,none,none,none,none,1041674
45,old,ending_first,compatible_first,incompatible_first,ES_yellow,first_IAT_first_block,ending,compatible,3,none,target,task_repetition,response_switch,Lila Wesen,Gelbe Wesen,Negativ,Positiv,IAT_purple4.bmp,purple,ending_melody,NA,c,c,1,1042374,1042764,1042764,376,none,none,none,none,1043164
45,old,ending_first,compatible_first,incompatible_first,ES_yellow,first_IAT_first_block,ending,compatible,4,none,attribute,task_switch,response_repetition,Lila Wesen,Gelbe Wesen,Negativ,Positiv,Schlecht,NA,NA,negative,c,c,1,1043894,1044284,1044284,597,none,none,none,none,1044904
45,old,ending_first,compatible_first,incompatible_first,ES_yellow,first_IAT_first_block,ending,compatible,5,none,attribute,task_repetition,response_switch,Lila Wesen,Gelbe Wesen,Negativ,Positiv,Wundervoll,NA,NA,positive,m,m,1,1045634,1046025,1046025,653,none,none,none,none,1046705
45,old,ending_first,compatible_first,incompatible_first,ES_yellow,first_IAT_first_block,ending,compatible,6,none,target,task_switch,response_switch,Lila Wesen,Gelbe Wesen,Negativ,Positiv,IAT_purple3.bmp,purple,ending_melody,NA,c,c,1,1047395,1047785,1047785,732,none,none,none,none,1048545
45,old,ending_first,compatible_first,incompatible_first,ES_yellow,first_IAT_first_block,ending,compatible,7,none,target,task_repetition,response_repetition,Lila Wesen,Gelbe Wesen,Negativ,Positiv,IAT_purple1.bmp,purple,ending_melody,NA,c,c,1,1049234,1049624,1049625,476,none,none,none,none,1050124
45,old,ending_first,compatible_first,incompatible_first,ES_yellow,first_IAT_first_block,ending,compatible,8,none,target,task_repetition,response_repetition,Lila Wesen,Gelbe Wesen,Negativ,Positiv,IAT_purple2.bmp,purple,ending_melody,NA,c,c,1,1050834,1051224,1051224,420,none,none,none,none,1051664
45,old,ending_first,compatible_first,incompatible_first,ES_yellow,first_IAT_first_block,ending,compatible,9,none,target,task_repetition,response_switch,Lila Wesen,Gelbe Wesen,Negativ,Positiv,IAT_yellow4.bmp,yellow,ending_scream,NA,m,m,1,1052374,1052764,1052764,465,none,none,none,none,1053254
45,old,ending_first,compatible_first,incompatible_first,ES_yellow,first_IAT_first_block,ending,compatible,10,none,attribute,task_switch,response_switch,Lila Wesen,Gelbe Wesen,Negativ,Positiv,Versagen,NA,NA,negative,c,c,1,1053984,1054374,1054374,806,none,none,none,none,1055204
45,old,ending_first,compatible_first,incompatible_first,ES_yellow,first_IAT_first_block,ending,compatible,11,none,attribute,task_repetition,response_repetition,Lila Wesen,Gelbe Wesen,Negativ,Positiv,Bedrohung,NA,NA,negative,c,c,1,1055984,1056374,1056374,636,none,none,none,none,1057034
45,old,ending_first,compatible_first,incompatible_first,ES_yellow,first_IAT_first_block,ending,compatible,12,none,target,task_switch,response_repetition,Lila Wesen,Gelbe Wesen,Negativ,Positiv,IAT_purple1.bmp,purple,ending_melody,NA,c,c,1,1057774,1058164,1058164,639,none,none,none,none,1058824
45,old,ending_first,compatible_first,incompatible_first,ES_yellow,first_IAT_first_block,ending,compatible,13,none,target,task_repetition,response_switch,Lila Wesen,Gelbe Wesen,Negativ,Positiv,IAT_yellow1.bmp,yellow,ending_scream,NA,m,m,1,1059608,1060004,1060004,569,none,none,none,none,1060594
45,old,ending_first,compatible_first,incompatible_first,ES_yellow,first_IAT_first_block,ending,compatible,14,none,attribute,task_switch,response_repetition,Lila Wesen,Gelbe Wesen,Negativ,Positiv,Spaß,NA,NA,positive,m,m,1,1061323,1061713,1061714,813,none,none,none,none,1062553
45,old,ending_first,compatible_first,incompatible_first,ES_yellow,first_IAT_first_block,ending,compatible,15,none,target,task_switch,response_switch,Lila Wesen,Gelbe Wesen,Negativ,Positiv,IAT_purple3.bmp,purple,ending_melody,NA,c,c,1,1063253,1063644,1063644,589,none,none,none,none,1064254
45,old,ending_first,compatible_first,incompatible_first,ES_yellow,first_IAT_first_block,ending,compatible,16,none,attribute,task_switch,response_switch,Lila Wesen,Gelbe Wesen,Negativ,Positiv,Liebe,NA,NA,positive,m,m,1,1065024,1065414,1065414,793,none,none,none,none,1066234
45,old,ending_first,compatible_first,incompatible_first,ES_yellow,first_IAT_first_block,ending,compatible,17,none,target,task_switch,response_repetition,Lila Wesen,Gelbe Wesen,Negativ,Positiv,IAT_yellow3.bmp,yellow,ending_scream,NA,m,c,0,1066994,1067384,1067384,453,m,1,1067854,448,1068324
45,old,ending_first,compatible_first,incompatible_first,ES_yellow,first_IAT_first_block,ending,compatible,18,none,attribute,task_switch,response_repetition,Lila Wesen,Gelbe Wesen,Negativ,Positiv,Frieden,NA,NA,positive,m,m,1,1069044,1069434,1069434,895,none,none,none,none,1070354
45,old,ending_first,compatible_first,incompatible_first,ES_yellow,first_IAT_first_block,ending,compatible,19,none,target,task_switch,response_switch,Lila Wesen,Gelbe Wesen,Negativ,Positiv,IAT_purple4.bmp,purple,ending_melody,NA,c,c,1,1071054,1071444,1071444,535,none,none,none,none,1072004
45,old,ending_first,compatible_first,incompatible_first,ES_yellow,first_IAT_first_block,ending,compatible,20,none,target,task_repetition,response_switch,Lila Wesen,Gelbe Wesen,Negativ,Positiv,IAT_yellow4.bmp,yellow,ending_scream,NA,m,m,1,1072713,1073103,1073104,621,none,none,none,none,1073743
45,old,ending_first,compatible_first,incompatible_first,ES_yellow,first_IAT_first_block,ending,compatible,21,none,target,task_repetition,response_switch,Lila Wesen,Gelbe Wesen,Negativ,Positiv,IAT_purple2.bmp,purple,ending_melody,NA,c,c,1,1074443,1074833,1074833,693,none,none,none,none,1075553
45,old,ending_first,compatible_first,incompatible_first,ES_yellow,first_IAT_first_block,ending,compatible,22,none,attribute,task_switch,response_switch,Lila Wesen,Gelbe Wesen,Negativ,Positiv,Glücklich,NA,NA,positive,m,m,1,1076283,1076673,1076673,607,none,none,none,none,1077303
45,old,ending_first,compatible_first,incompatible_first,ES_yellow,first_IAT_first_block,ending,compatible,23,none,attribute,task_repetition,response_repetition,Lila Wesen,Gelbe Wesen,Negativ,Positiv,Freude,NA,NA,positive,m,m,1,1078033,1078423,1078423,679,none,none,none,none,1079123
45,old,ending_first,compatible_first,incompatible_first,ES_yellow,first_IAT_first_block,ending,compatible,24,none,attribute,task_repetition,response_repetition,Lila Wesen,Gelbe Wesen,Negativ,Positiv,Glücklich,NA,NA,positive,m,m,1,1079853,1080243,1080243,706,none,none,none,none,1080973
45,old,ending_first,compatible_first,incompatible_first,ES_yellow,first_IAT_first_block,ending,compatible,25,none,attribute,task_repetition,response_switch,Lila Wesen,Gelbe Wesen,Negativ,Positiv,Schmerz,NA,NA,negative,c,c,1,1081714,1082104,1082104,629,none,none,none,none,1082754
45,old,ending_first,compatible_first,incompatible_first,ES_yellow,first_IAT_first_block,ending,compatible,26,none,attribute,task_repetition,response_repetition,Lila Wesen,Gelbe Wesen,Negativ,Positiv,Böse,NA,NA,negative,c,c,1,1083474,1083864,1083864,1046,none,none,none,none,1084934
45,old,ending_first,compatible_first,incompatible_first,ES_yellow,first_IAT_first_block,ending,compatible,27,none,attribute,task_repetition,response_switch,Lila Wesen,Gelbe Wesen,Negativ,Positiv,Liebe,NA,NA,positive,m,m,1,1085737,1086133,1086134,1845,none,none,none,none,1088003
45,old,ending_first,compatible_first,incompatible_first,ES_yellow,first_IAT_first_block,ending,compatible,28,none,attribute,task_repetition,response_switch,Lila Wesen,Gelbe Wesen,Negativ,Positiv,Trauer,NA,NA,negative,c,c,1,1088734,1089123,1089123,751,none,none,none,none,1089893
45,old,ending_first,compatible_first,incompatible_first,ES_yellow,first_IAT_first_block,ending,compatible,29,none,target,task_switch,response_repetition,Lila Wesen,Gelbe Wesen,Negativ,Positiv,IAT_purple1.bmp,purple,ending_melody,NA,c,c,1,1090583,1090973,1090973,804,none,none,none,none,1091803
45,old,ending_first,compatible_first,incompatible_first,ES_yellow,first_IAT_first_block,ending,compatible,30,none,attribute,task_switch,response_repetition,Lila Wesen,Gelbe Wesen,Negativ,Positiv,Schmerz,NA,NA,negative,c,c,1,1092523,1092913,1092913,733,none,none,none,none,1093673
45,old,ending_first,compatible_first,incompatible_first,ES_yellow,first_IAT_first_block,ending,compatible,31,none,attribute,task_repetition,response_repetition,Lila Wesen,Gelbe Wesen,Negativ,Positiv,Böse,NA,NA,negative,c,c,1,1094393,1094783,1094783,456,none,none,none,none,1095263
45,old,ending_first,compatible_first,incompatible_first,ES_yellow,first_IAT_first_block,ending,compatible,32,none,target,task_switch,response_repetition,Lila Wesen,Gelbe Wesen,Negativ,Positiv,IAT_purple4.bmp,purple,ending_melody,NA,c,c,1,1095963,1096352,1096353,467,none,none,none,none,1096843
45,old,ending_first,compatible_first,incompatible_first,ES_yellow,first_IAT_first_block,ending,compatible,33,none,attribute,task_switch,response_repetition,Lila Wesen,Gelbe Wesen,Negativ,Positiv,Schlecht,NA,NA,negative,c,c,1,1097562,1097952,1097953,484,none,none,none,none,1098463
45,old,ending_first,compatible_first,incompatible_first,ES_yellow,first_IAT_first_block,ending,compatible,34,none,target,task_switch,response_switch,Lila Wesen,Gelbe Wesen,Negativ,Positiv,IAT_yellow2.bmp,yellow,ending_scream,NA,m,m,1,1099154,1099543,1099543,566,none,none,none,none,1100133
45,old,ending_first,compatible_first,incompatible_first,ES_yellow,first_IAT_first_block,ending,compatible,35,none,target,task_repetition,response_switch,Lila Wesen,Gelbe Wesen,Negativ,Positiv,IAT_purple2.bmp,purple,ending_melody,NA,c,c,1,1100853,1101243,1101243,488,none,none,none,none,1101753
45,old,ending_first,compatible_first,incompatible_first,ES_yellow,first_IAT_first_block,ending,compatible,36,none,target,task_repetition,response_repetition,Lila Wesen,Gelbe Wesen,Negativ,Positiv,IAT_purple3.bmp,purple,ending_melody,NA,c,c,1,1102443,1102833,1102833,518,none,none,none,none,1103373
45,old,ending_first,compatible_first,incompatible_first,ES_yellow,first_IAT_first_block,ending,compatible,37,none,attribute,task_switch,response_switch,Lila Wesen,Gelbe Wesen,Negativ,Positiv,Spaß,NA,NA,positive,m,m,1,1104083,1104473,1104473,851,none,none,none,none,1105343
45,old,ending_first,compatible_first,incompatible_first,ES_yellow,first_IAT_first_block,ending,compatible,38,none,target,task_switch,response_repetition,Lila Wesen,Gelbe Wesen,Negativ,Positiv,IAT_yellow1.bmp,yellow,ending_scream,NA,m,m,1,1106043,1106433,1106433,695,none,none,none,none,1107153
45,old,ending_first,compatible_first,incompatible_first,ES_yellow,first_IAT_first_block,ending,compatible,39,none,attribute,task_switch,response_switch,Lila Wesen,Gelbe Wesen,Negativ,Positiv,Versagen,NA,NA,negative,c,c,1,1107883,1108272,1108273,670,none,none,none,none,1108963
45,old,ending_first,compatible_first,incompatible_first,ES_yellow,first_IAT_first_block,ending,compatible,40,none,attribute,task_repetition,response_switch,Lila Wesen,Gelbe Wesen,Negativ,Positiv,Frieden,NA,NA,positive,m,m,1,1109713,1110102,1110103,738,none,none,none,none,1110862
45,old,ending_first,compatible_first,incompatible_first,ES_yellow,first_IAT_first_block,ending,compatible,41,none,target,task_switch,response_repetition,Lila Wesen,Gelbe Wesen,Negativ,Positiv,IAT_yellow2.bmp,yellow,ending_scream,NA,m,m,1,1111614,1112002,1112002,609,none,none,none,none,1112632
45,old,ending_first,compatible_first,incompatible_first,ES_yellow,first_IAT_first_block,ending,compatible,42,none,target,task_repetition,response_repetition,Lila Wesen,Gelbe Wesen,Negativ,Positiv,IAT_yellow3.bmp,yellow,ending_scream,NA,m,m,1,1113332,1113722,1113722,710,none,none,none,none,1114452
45,old,ending_first,compatible_first,incompatible_first,ES_yellow,first_IAT_first_block,ending,compatible,43,none,target,task_repetition,response_repetition,Lila Wesen,Gelbe Wesen,Negativ,Positiv,IAT_yellow1.bmp,yellow,ending_scream,NA,m,m,1,1115142,1115532,1115532,511,none,none,none,none,1116063
45,old,ending_first,compatible_first,incompatible_first,ES_yellow,first_IAT_first_block,ending,compatible,44,none,attribute,task_switch,response_repetition,Lila Wesen,Gelbe Wesen,Negativ,Positiv,Wundervoll,NA,NA,positive,m,m,1,1116803,1117193,1117193,553,none,none,none,none,1117773
45,old,ending_first,compatible_first,incompatible_first,ES_yellow,first_IAT_first_block,ending,compatible,45,none,attribute,task_repetition,response_repetition,Lila Wesen,Gelbe Wesen,Negativ,Positiv,Freude,NA,NA,positive,m,m,1,1118493,1118883,1118883,503,none,none,none,none,1119413
45,old,ending_first,compatible_first,incompatible_first,ES_yellow,first_IAT_first_block,ending,compatible,46,none,attribute,task_repetition,response_switch,Lila Wesen,Gelbe Wesen,Negativ,Positiv,Bedrohung,NA,NA,negative,c,m,0,1120143,1120532,1120533,461,c,1,1121013,453,1121492
45,old,ending_first,compatible_first,incompatible_first,ES_yellow,first_IAT_first_block,ending,compatible,47,none,target,task_switch,response_switch,Lila Wesen,Gelbe Wesen,Negativ,Positiv,IAT_yellow4.bmp,yellow,ending_scream,NA,m,m,1,1122192,1122582,1122582,750,none,none,none,none,1123352
45,old,ending_first,compatible_first,incompatible_first,ES_yellow,first_IAT_first_block,ending,compatible,48,none,attribute,task_switch,response_switch,Lila Wesen,Gelbe Wesen,Negativ,Positiv,Trauer,NA,NA,negative,c,c,1,1124082,1124472,1124472,753,none,none,none,none,1125252
