subject_nr,contrast_group,iat_order,block_order_1,block_order_2,color_counter,which_IAT_which_block,current_contrast,current_comp,trialnr,trial_type,target_type,task_switch, response_switch,left_target,right_target,left_attribute,right_attribute,trial_target,target_color,target_role,attribute_valence,correct_response,response_first_response,correct_first_response,time_assignments_show,time_target_show,time_first_response,response_time_first_response,response_force_correct,correct_force_correct,time_force_correct,response_time_force_correct,time_logger
53,new,scream_first,compatible_first,incompatible_first,ES_purple,second_IAT_first_block,melody,incompatible,0,NA,attribute_practice,attribute_practice,attribute_practice,attribute_practice,attribute_practice,Negativ,Positiv,Versagen,attribute_practice,attribute_practice,negative,c,c,1,1258405,1258795,1258796,659,none,none,none,none,1259475
53,new,scream_first,compatible_first,incompatible_first,ES_purple,second_IAT_first_block,melody,incompatible,1,change,attribute_practice,attribute_practice,attribute_practice,attribute_practice,attribute_practice,Negativ,Positiv,Frieden,attribute_practice,attribute_practice,positive,m,m,1,1260035,1260425,1260425,407,none,none,none,none,1260855
53,new,scream_first,compatible_first,incompatible_first,ES_purple,second_IAT_first_block,melody,incompatible,2,change,attribute_practice,attribute_practice,attribute_practice,attribute_practice,attribute_practice,Negativ,Positiv,Böse,attribute_practice,attribute_practice,negative,c,c,1,1261435,1261825,1261825,422,none,none,none,none,1262275
53,new,scream_first,compatible_first,incompatible_first,ES_purple,second_IAT_first_block,melody,incompatible,3,repetition,attribute_practice,attribute_practice,attribute_practice,attribute_practice,attribute_practice,Negativ,Positiv,Versagen,attribute_practice,attribute_practice,negative,c,c,1,1262845,1263235,1263235,461,none,none,none,none,1263715
53,new,scream_first,compatible_first,incompatible_first,ES_purple,second_IAT_first_block,melody,incompatible,4,change,attribute_practice,attribute_practice,attribute_practice,attribute_practice,attribute_practice,Negativ,Positiv,Freude,attribute_practice,attribute_practice,positive,m,c,0,1264307,1264695,1264695,429,m,1,1265135,211,1265365
53,new,scream_first,compatible_first,incompatible_first,ES_purple,second_IAT_first_block,melody,incompatible,5,repetition,attribute_practice,attribute_practice,attribute_practice,attribute_practice,attribute_practice,Negativ,Positiv,Spaß,attribute_practice,attribute_practice,positive,m,m,1,1265885,1266275,1266275,497,none,none,none,none,1266795
53,new,scream_first,compatible_first,incompatible_first,ES_purple,second_IAT_first_block,melody,incompatible,6,repetition,attribute_practice,attribute_practice,attribute_practice,attribute_practice,attribute_practice,Negativ,Positiv,Spaß,attribute_practice,attribute_practice,positive,m,m,1,1267315,1267705,1267705,426,none,none,none,none,1268155
53,new,scream_first,compatible_first,incompatible_first,ES_purple,second_IAT_first_block,melody,incompatible,7,change,attribute_practice,attribute_practice,attribute_practice,attribute_practice,attribute_practice,Negativ,Positiv,Schmerz,attribute_practice,attribute_practice,negative,c,c,1,1268675,1269064,1269065,443,none,none,none,none,1269535
53,new,scream_first,compatible_first,incompatible_first,ES_purple,second_IAT_first_block,melody,incompatible,8,change,attribute_practice,attribute_practice,attribute_practice,attribute_practice,attribute_practice,Negativ,Positiv,Liebe,attribute_practice,attribute_practice,positive,m,m,1,1270084,1270474,1270475,381,none,none,none,none,1270874
53,new,scream_first,compatible_first,incompatible_first,ES_purple,second_IAT_first_block,melody,incompatible,9,change,attribute_practice,attribute_practice,attribute_practice,attribute_practice,attribute_practice,Negativ,Positiv,Schlecht,attribute_practice,attribute_practice,negative,c,c,1,1271414,1271804,1271804,408,none,none,none,none,1272234
53,new,scream_first,compatible_first,incompatible_first,ES_purple,second_IAT_first_block,melody,incompatible,10,repetition,attribute_practice,attribute_practice,attribute_practice,attribute_practice,attribute_practice,Negativ,Positiv,Trauer,attribute_practice,attribute_practice,negative,c,m,0,1272764,1273154,1273154,420,c,1,1273585,375,1273985
53,new,scream_first,compatible_first,incompatible_first,ES_purple,second_IAT_first_block,melody,incompatible,11,repetition,attribute_practice,attribute_practice,attribute_practice,attribute_practice,attribute_practice,Negativ,Positiv,Schmerz,attribute_practice,attribute_practice,negative,c,c,1,1274525,1274915,1274915,468,none,none,none,none,1275405
53,new,scream_first,compatible_first,incompatible_first,ES_purple,second_IAT_first_block,melody,incompatible,12,change,attribute_practice,attribute_practice,attribute_practice,attribute_practice,attribute_practice,Negativ,Positiv,Freude,attribute_practice,attribute_practice,positive,m,m,1,1275955,1276345,1276345,439,none,none,none,none,1276805
53,new,scream_first,compatible_first,incompatible_first,ES_purple,second_IAT_first_block,melody,incompatible,13,repetition,attribute_practice,attribute_practice,attribute_practice,attribute_practice,attribute_practice,Negativ,Positiv,Wundervoll,attribute_practice,attribute_practice,positive,m,m,1,1277345,1277735,1277735,447,none,none,none,none,1278205
53,new,scream_first,compatible_first,incompatible_first,ES_purple,second_IAT_first_block,melody,incompatible,14,repetition,attribute_practice,attribute_practice,attribute_practice,attribute_practice,attribute_practice,Negativ,Positiv,Frieden,attribute_practice,attribute_practice,positive,m,m,1,1278735,1279125,1279125,536,none,none,none,none,1279685
53,new,scream_first,compatible_first,incompatible_first,ES_purple,second_IAT_first_block,melody,incompatible,15,repetition,attribute_practice,attribute_practice,attribute_practice,attribute_practice,attribute_practice,Negativ,Positiv,Glücklich,attribute_practice,attribute_practice,positive,m,m,1,1280225,1280615,1280615,445,none,none,none,none,1281085
53,new,scream_first,compatible_first,incompatible_first,ES_purple,second_IAT_first_block,melody,incompatible,16,change,attribute_practice,attribute_practice,attribute_practice,attribute_practice,attribute_practice,Negativ,Positiv,Bedrohung,attribute_practice,attribute_practice,negative,c,c,1,1281654,1282044,1282045,473,none,none,none,none,1282544
53,new,scream_first,compatible_first,incompatible_first,ES_purple,second_IAT_first_block,melody,incompatible,17,change,attribute_practice,attribute_practice,attribute_practice,attribute_practice,attribute_practice,Negativ,Positiv,Wundervoll,attribute_practice,attribute_practice,positive,m,m,1,1283094,1283484,1283484,483,none,none,none,none,1283994
53,new,scream_first,compatible_first,incompatible_first,ES_purple,second_IAT_first_block,melody,incompatible,18,repetition,attribute_practice,attribute_practice,attribute_practice,attribute_practice,attribute_practice,Negativ,Positiv,Glücklich,attribute_practice,attribute_practice,positive,m,m,1,1284554,1284944,1284944,458,none,none,none,none,1285424
53,new,scream_first,compatible_first,incompatible_first,ES_purple,second_IAT_first_block,melody,incompatible,19,change,attribute_practice,attribute_practice,attribute_practice,attribute_practice,attribute_practice,Negativ,Positiv,Bedrohung,attribute_practice,attribute_practice,negative,c,c,1,1286037,1286434,1286434,526,none,none,none,none,1286984
53,new,scream_first,compatible_first,incompatible_first,ES_purple,second_IAT_first_block,melody,incompatible,20,repetition,attribute_practice,attribute_practice,attribute_practice,attribute_practice,attribute_practice,Negativ,Positiv,Böse,attribute_practice,attribute_practice,negative,c,c,1,1287514,1287904,1287904,432,none,none,none,none,1288364
