subject_nr,contrast_group,iat_order,block_order_1,block_order_2,color_counter,which_IAT_which_block,current_contrast,current_comp,trialnr,trial_type,target_type,task_switch, response_switch,left_target,right_target,left_attribute,right_attribute,trial_target,target_color,target_role,attribute_valence,correct_response,response_first_response,correct_first_response,time_assignments_show,time_target_show,time_first_response,response_time_first_response,response_force_correct,correct_force_correct,time_force_correct,response_time_force_correct,time_logger
28,old,ending_first,compatible_first,compatible_first,ES_red,first_IAT_first_block,ending,compatible,0,NA,attribute_practice,attribute_practice,attribute_practice,attribute_practice,attribute_practice,Negativ,Positiv,Schmerz,attribute_practice,attribute_practice,negative,c,c,1,867019,867409,867409,2427,none,none,none,none,869859
28,old,ending_first,compatible_first,compatible_first,ES_red,first_IAT_first_block,ending,compatible,1,change,attribute_practice,attribute_practice,attribute_practice,attribute_practice,attribute_practice,Negativ,Positiv,Glücklich,attribute_practice,attribute_practice,positive,m,m,1,870462,870858,870859,697,none,none,none,none,871579
28,old,ending_first,compatible_first,compatible_first,ES_red,first_IAT_first_block,ending,compatible,2,repetition,attribute_practice,attribute_practice,attribute_practice,attribute_practice,attribute_practice,Negativ,Positiv,Freude,attribute_practice,attribute_practice,positive,m,m,1,872119,872509,872509,684,none,none,none,none,873219
28,old,ending_first,compatible_first,compatible_first,ES_red,first_IAT_first_block,ending,compatible,3,change,attribute_practice,attribute_practice,attribute_practice,attribute_practice,attribute_practice,Negativ,Positiv,Trauer,attribute_practice,attribute_practice,negative,c,c,1,873749,874139,874139,753,none,none,none,none,874919
28,old,ending_first,compatible_first,compatible_first,ES_red,first_IAT_first_block,ending,compatible,4,change,attribute_practice,attribute_practice,attribute_practice,attribute_practice,attribute_practice,Negativ,Positiv,Frieden,attribute_practice,attribute_practice,positive,m,m,1,875459,875849,875849,1100,none,none,none,none,876969
28,old,ending_first,compatible_first,compatible_first,ES_red,first_IAT_first_block,ending,compatible,5,repetition,attribute_practice,attribute_practice,attribute_practice,attribute_practice,attribute_practice,Negativ,Positiv,Freude,attribute_practice,attribute_practice,positive,m,m,1,877499,877889,877889,548,none,none,none,none,878459
28,old,ending_first,compatible_first,compatible_first,ES_red,first_IAT_first_block,ending,compatible,6,change,attribute_practice,attribute_practice,attribute_practice,attribute_practice,attribute_practice,Negativ,Positiv,Bedrohung,attribute_practice,attribute_practice,negative,c,c,1,878999,879389,879389,527,none,none,none,none,879939
28,old,ending_first,compatible_first,compatible_first,ES_red,first_IAT_first_block,ending,compatible,7,repetition,attribute_practice,attribute_practice,attribute_practice,attribute_practice,attribute_practice,Negativ,Positiv,Trauer,attribute_practice,attribute_practice,negative,c,c,1,880519,880909,880909,856,none,none,none,none,881789
28,old,ending_first,compatible_first,compatible_first,ES_red,first_IAT_first_block,ending,compatible,8,repetition,attribute_practice,attribute_practice,attribute_practice,attribute_practice,attribute_practice,Negativ,Positiv,Böse,attribute_practice,attribute_practice,negative,c,c,1,882319,882708,882709,524,none,none,none,none,883258
28,old,ending_first,compatible_first,compatible_first,ES_red,first_IAT_first_block,ending,compatible,9,change,attribute_practice,attribute_practice,attribute_practice,attribute_practice,attribute_practice,Negativ,Positiv,Liebe,attribute_practice,attribute_practice,positive,m,m,1,883788,884178,884179,560,none,none,none,none,884758
28,old,ending_first,compatible_first,compatible_first,ES_red,first_IAT_first_block,ending,compatible,10,change,attribute_practice,attribute_practice,attribute_practice,attribute_practice,attribute_practice,Negativ,Positiv,Versagen,attribute_practice,attribute_practice,negative,c,c,1,885308,885698,885698,533,none,none,none,none,886258
28,old,ending_first,compatible_first,compatible_first,ES_red,first_IAT_first_block,ending,compatible,11,repetition,attribute_practice,attribute_practice,attribute_practice,attribute_practice,attribute_practice,Negativ,Positiv,Schlecht,attribute_practice,attribute_practice,negative,c,c,1,886858,887248,887248,704,none,none,none,none,887978
28,old,ending_first,compatible_first,compatible_first,ES_red,first_IAT_first_block,ending,compatible,12,repetition,attribute_practice,attribute_practice,attribute_practice,attribute_practice,attribute_practice,Negativ,Positiv,Bedrohung,attribute_practice,attribute_practice,negative,c,c,1,888548,888939,888939,568,none,none,none,none,889529
28,old,ending_first,compatible_first,compatible_first,ES_red,first_IAT_first_block,ending,compatible,13,change,attribute_practice,attribute_practice,attribute_practice,attribute_practice,attribute_practice,Negativ,Positiv,Glücklich,attribute_practice,attribute_practice,positive,m,m,1,890119,890509,890509,646,none,none,none,none,891179
28,old,ending_first,compatible_first,compatible_first,ES_red,first_IAT_first_block,ending,compatible,14,change,attribute_practice,attribute_practice,attribute_practice,attribute_practice,attribute_practice,Negativ,Positiv,Schmerz,attribute_practice,attribute_practice,negative,c,c,1,891810,892199,892199,990,none,none,none,none,893209
28,old,ending_first,compatible_first,compatible_first,ES_red,first_IAT_first_block,ending,compatible,15,change,attribute_practice,attribute_practice,attribute_practice,attribute_practice,attribute_practice,Negativ,Positiv,Frieden,attribute_practice,attribute_practice,positive,m,m,1,893779,894168,894169,677,none,none,none,none,894869
28,old,ending_first,compatible_first,compatible_first,ES_red,first_IAT_first_block,ending,compatible,16,repetition,attribute_practice,attribute_practice,attribute_practice,attribute_practice,attribute_practice,Negativ,Positiv,Wundervoll,attribute_practice,attribute_practice,positive,m,m,1,895432,895828,895829,514,none,none,none,none,896368
28,old,ending_first,compatible_first,compatible_first,ES_red,first_IAT_first_block,ending,compatible,17,repetition,attribute_practice,attribute_practice,attribute_practice,attribute_practice,attribute_practice,Negativ,Positiv,Spaß,attribute_practice,attribute_practice,positive,m,m,1,896952,897348,897349,481,none,none,none,none,897848
28,old,ending_first,compatible_first,compatible_first,ES_red,first_IAT_first_block,ending,compatible,18,repetition,attribute_practice,attribute_practice,attribute_practice,attribute_practice,attribute_practice,Negativ,Positiv,Spaß,attribute_practice,attribute_practice,positive,m,m,1,898378,898768,898768,510,none,none,none,none,899298
28,old,ending_first,compatible_first,compatible_first,ES_red,first_IAT_first_block,ending,compatible,19,repetition,attribute_practice,attribute_practice,attribute_practice,attribute_practice,attribute_practice,Negativ,Positiv,Liebe,attribute_practice,attribute_practice,positive,m,m,1,899828,900218,900218,670,none,none,none,none,900908
28,old,ending_first,compatible_first,compatible_first,ES_red,first_IAT_first_block,ending,compatible,20,change,attribute_practice,attribute_practice,attribute_practice,attribute_practice,attribute_practice,Negativ,Positiv,Schlecht,attribute_practice,attribute_practice,negative,c,c,1,901438,901828,901828,574,none,none,none,none,902428
