subject_nr,contrast_group,iat_order,block_order_1,block_order_2,color_counter,which_IAT_which_block,current_contrast,current_comp,trialnr,trial_type,target_type,task_switch, response_switch,left_target,right_target,left_attribute,right_attribute,trial_target,target_color,target_role,attribute_valence,correct_response,response_first_response,correct_first_response,time_assignments_show,time_target_show,time_first_response,response_time_first_response,response_force_correct,correct_force_correct,time_force_correct,response_time_force_correct,time_logger
36,new,melody_first,compatible_first,compatible_first,ES_green,second_IAT_second_block,scream,incompatible,0,NA,target_practice,target_practice,target_practice,Grüne Wesen,Lila Wesen,target_practice,target_practice,IAT_purple1.bmp,purple,starting_scream,target_practice,m,m,1,1471743,1472133,1472133,697,none,none,none,none,1472853
36,new,melody_first,compatible_first,compatible_first,ES_green,second_IAT_second_block,scream,incompatible,1,repetition,target_practice,target_practice,target_practice,Grüne Wesen,Lila Wesen,target_practice,target_practice,IAT_purple1.bmp,purple,starting_scream,target_practice,m,m,1,1473423,1473813,1473813,434,none,none,none,none,1474273
36,new,melody_first,compatible_first,compatible_first,ES_green,second_IAT_second_block,scream,incompatible,2,repetition,target_practice,target_practice,target_practice,Grüne Wesen,Lila Wesen,target_practice,target_practice,IAT_purple2.bmp,purple,starting_scream,target_practice,m,m,1,1474843,1475233,1475233,382,none,none,none,none,1475643
36,new,melody_first,compatible_first,compatible_first,ES_green,second_IAT_second_block,scream,incompatible,3,change,target_practice,target_practice,target_practice,Grüne Wesen,Lila Wesen,target_practice,target_practice,IAT_green4.bmp,green,ending_scream,target_practice,c,c,1,1476203,1476593,1476593,398,none,none,none,none,1477013
36,new,melody_first,compatible_first,compatible_first,ES_green,second_IAT_second_block,scream,incompatible,4,change,target_practice,target_practice,target_practice,Grüne Wesen,Lila Wesen,target_practice,target_practice,IAT_purple3.bmp,purple,starting_scream,target_practice,m,m,1,1477583,1477973,1477973,441,none,none,none,none,1478433
36,new,melody_first,compatible_first,compatible_first,ES_green,second_IAT_second_block,scream,incompatible,5,repetition,target_practice,target_practice,target_practice,Grüne Wesen,Lila Wesen,target_practice,target_practice,IAT_purple3.bmp,purple,starting_scream,target_practice,m,m,1,1478993,1479382,1479383,473,none,none,none,none,1479883
36,new,melody_first,compatible_first,compatible_first,ES_green,second_IAT_second_block,scream,incompatible,6,change,target_practice,target_practice,target_practice,Grüne Wesen,Lila Wesen,target_practice,target_practice,IAT_green4.bmp,green,ending_scream,target_practice,c,c,1,1480442,1480832,1480833,438,none,none,none,none,1481292
36,new,melody_first,compatible_first,compatible_first,ES_green,second_IAT_second_block,scream,incompatible,7,change,target_practice,target_practice,target_practice,Grüne Wesen,Lila Wesen,target_practice,target_practice,IAT_purple4.bmp,purple,starting_scream,target_practice,m,m,1,1481893,1482282,1482283,416,none,none,none,none,1482722
36,new,melody_first,compatible_first,compatible_first,ES_green,second_IAT_second_block,scream,incompatible,8,change,target_practice,target_practice,target_practice,Grüne Wesen,Lila Wesen,target_practice,target_practice,IAT_green2.bmp,green,ending_scream,target_practice,c,c,1,1483283,1483673,1483674,444,none,none,none,none,1484143
36,new,melody_first,compatible_first,compatible_first,ES_green,second_IAT_second_block,scream,incompatible,9,repetition,target_practice,target_practice,target_practice,Grüne Wesen,Lila Wesen,target_practice,target_practice,IAT_green2.bmp,green,ending_scream,target_practice,c,c,1,1484713,1485103,1485104,531,none,none,none,none,1485653
36,new,melody_first,compatible_first,compatible_first,ES_green,second_IAT_second_block,scream,incompatible,10,change,target_practice,target_practice,target_practice,Grüne Wesen,Lila Wesen,target_practice,target_practice,IAT_purple4.bmp,purple,starting_scream,target_practice,m,m,1,1486213,1486603,1486603,418,none,none,none,none,1487043
36,new,melody_first,compatible_first,compatible_first,ES_green,second_IAT_second_block,scream,incompatible,11,repetition,target_practice,target_practice,target_practice,Grüne Wesen,Lila Wesen,target_practice,target_practice,IAT_purple4.bmp,purple,starting_scream,target_practice,m,m,1,1487613,1488003,1488003,379,none,none,none,none,1488403
36,new,melody_first,compatible_first,compatible_first,ES_green,second_IAT_second_block,scream,incompatible,12,change,target_practice,target_practice,target_practice,Grüne Wesen,Lila Wesen,target_practice,target_practice,IAT_green1.bmp,green,ending_scream,target_practice,c,c,1,1489036,1489433,1489433,380,none,none,none,none,1489833
36,new,melody_first,compatible_first,compatible_first,ES_green,second_IAT_second_block,scream,incompatible,13,repetition,target_practice,target_practice,target_practice,Grüne Wesen,Lila Wesen,target_practice,target_practice,IAT_green3.bmp,green,ending_scream,target_practice,c,c,1,1490403,1490793,1490793,482,none,none,none,none,1491303
36,new,melody_first,compatible_first,compatible_first,ES_green,second_IAT_second_block,scream,incompatible,14,repetition,target_practice,target_practice,target_practice,Grüne Wesen,Lila Wesen,target_practice,target_practice,IAT_green4.bmp,green,ending_scream,target_practice,c,c,1,1492004,1492393,1492393,384,none,none,none,none,1492803
36,new,melody_first,compatible_first,compatible_first,ES_green,second_IAT_second_block,scream,incompatible,15,repetition,target_practice,target_practice,target_practice,Grüne Wesen,Lila Wesen,target_practice,target_practice,IAT_green2.bmp,green,ending_scream,target_practice,c,c,1,1493373,1493763,1493763,357,none,none,none,none,1494143
36,new,melody_first,compatible_first,compatible_first,ES_green,second_IAT_second_block,scream,incompatible,16,repetition,target_practice,target_practice,target_practice,Grüne Wesen,Lila Wesen,target_practice,target_practice,IAT_green3.bmp,green,ending_scream,target_practice,c,c,1,1494713,1495103,1495103,394,none,none,none,none,1495523
36,new,melody_first,compatible_first,compatible_first,ES_green,second_IAT_second_block,scream,incompatible,17,change,target_practice,target_practice,target_practice,Grüne Wesen,Lila Wesen,target_practice,target_practice,IAT_purple2.bmp,purple,starting_scream,target_practice,m,m,1,1496103,1496493,1496493,384,none,none,none,none,1496903
36,new,melody_first,compatible_first,compatible_first,ES_green,second_IAT_second_block,scream,incompatible,18,repetition,target_practice,target_practice,target_practice,Grüne Wesen,Lila Wesen,target_practice,target_practice,IAT_purple1.bmp,purple,starting_scream,target_practice,m,m,1,1497472,1497862,1497863,505,none,none,none,none,1498392
36,new,melody_first,compatible_first,compatible_first,ES_green,second_IAT_second_block,scream,incompatible,19,change,target_practice,target_practice,target_practice,Grüne Wesen,Lila Wesen,target_practice,target_practice,IAT_green3.bmp,green,ending_scream,target_practice,c,c,1,1498952,1499342,1499343,510,none,none,none,none,1499872
36,new,melody_first,compatible_first,compatible_first,ES_green,second_IAT_second_block,scream,incompatible,20,change,target_practice,target_practice,target_practice,Grüne Wesen,Lila Wesen,target_practice,target_practice,IAT_purple2.bmp,purple,starting_scream,target_practice,m,m,1,1500442,1500833,1500834,273,none,none,none,none,1501133
