subject_nr,contrast_group,iat_order,block_order_1,block_order_2,color_counter,which_IAT_which_block,current_contrast,current_comp,trialnr,trial_type,target_type,task_switch, response_switch,left_target,right_target,left_attribute,right_attribute,trial_target,target_color,target_role,attribute_valence,correct_response,response_first_response,correct_first_response,time_assignments_show,time_target_show,time_first_response,response_time_first_response,response_force_correct,correct_force_correct,time_force_correct,response_time_force_correct,time_logger
33,old,ending_first,incompatible_first,incompatible_first,ES_green,second_IAT_first_block,starting,incompatible,0,none,attribute,NA,NA,Gelbe Wesen,Lila Wesen,Negativ,Positiv,Schmerz,NA,NA,negative,c,c,1,1318671,1319061,1319061,947,none,none,none,none,1320031
33,old,ending_first,incompatible_first,incompatible_first,ES_green,second_IAT_first_block,starting,incompatible,1,none,attribute,task_repetition,response_switch,Gelbe Wesen,Lila Wesen,Negativ,Positiv,Freude,NA,NA,positive,m,m,1,1320771,1321161,1321161,699,none,none,none,none,1321881
33,old,ending_first,incompatible_first,incompatible_first,ES_green,second_IAT_first_block,starting,incompatible,2,none,attribute,task_repetition,response_repetition,Gelbe Wesen,Lila Wesen,Negativ,Positiv,Glücklich,NA,NA,positive,m,c,0,1322620,1323010,1323011,796,m,1,1323821,401,1324250
33,old,ending_first,incompatible_first,incompatible_first,ES_green,second_IAT_first_block,starting,incompatible,3,none,attribute,task_repetition,response_repetition,Gelbe Wesen,Lila Wesen,Negativ,Positiv,Liebe,NA,NA,positive,m,m,1,1324970,1325360,1325361,682,none,none,none,none,1326061
33,old,ending_first,incompatible_first,incompatible_first,ES_green,second_IAT_first_block,starting,incompatible,4,none,target,task_switch,response_switch,Gelbe Wesen,Lila Wesen,Negativ,Positiv,IAT_yellow1.bmp,yellow,starting_melody,NA,c,c,1,1326831,1327221,1327222,830,none,none,none,none,1328071
33,old,ending_first,incompatible_first,incompatible_first,ES_green,second_IAT_first_block,starting,incompatible,5,none,attribute,task_switch,response_repetition,Gelbe Wesen,Lila Wesen,Negativ,Positiv,Böse,NA,NA,negative,c,c,1,1328851,1329241,1329241,762,none,none,none,none,1330031
33,old,ending_first,incompatible_first,incompatible_first,ES_green,second_IAT_first_block,starting,incompatible,6,none,attribute,task_repetition,response_switch,Gelbe Wesen,Lila Wesen,Negativ,Positiv,Frieden,NA,NA,positive,m,m,1,1330823,1331211,1331211,563,none,none,none,none,1331801
33,old,ending_first,incompatible_first,incompatible_first,ES_green,second_IAT_first_block,starting,incompatible,7,none,attribute,task_repetition,response_switch,Gelbe Wesen,Lila Wesen,Negativ,Positiv,Trauer,NA,NA,negative,c,c,1,1332511,1332901,1332901,903,none,none,none,none,1333831
33,old,ending_first,incompatible_first,incompatible_first,ES_green,second_IAT_first_block,starting,incompatible,8,none,target,task_switch,response_repetition,Gelbe Wesen,Lila Wesen,Negativ,Positiv,IAT_yellow4.bmp,yellow,starting_melody,NA,c,m,0,1334531,1334921,1334921,524,c,1,1335461,637,1336121
33,old,ending_first,incompatible_first,incompatible_first,ES_green,second_IAT_first_block,starting,incompatible,9,none,target,task_repetition,response_repetition,Gelbe Wesen,Lila Wesen,Negativ,Positiv,IAT_yellow3.bmp,yellow,starting_melody,NA,c,c,1,1336830,1337220,1337221,867,none,none,none,none,1338110
33,old,ending_first,incompatible_first,incompatible_first,ES_green,second_IAT_first_block,starting,incompatible,10,none,attribute,task_switch,response_switch,Gelbe Wesen,Lila Wesen,Negativ,Positiv,Spaß,NA,NA,positive,m,m,1,1338850,1339240,1339241,658,none,none,none,none,1339920
33,old,ending_first,incompatible_first,incompatible_first,ES_green,second_IAT_first_block,starting,incompatible,11,none,target,task_switch,response_repetition,Gelbe Wesen,Lila Wesen,Negativ,Positiv,IAT_purple2.bmp,purple,starting_scream,NA,m,m,1,1340630,1341020,1341021,1255,none,none,none,none,1342300
33,old,ending_first,incompatible_first,incompatible_first,ES_green,second_IAT_first_block,starting,incompatible,12,none,target,task_repetition,response_repetition,Gelbe Wesen,Lila Wesen,Negativ,Positiv,IAT_purple3.bmp,purple,starting_scream,NA,m,m,1,1342990,1343381,1343381,408,none,none,none,none,1343811
33,old,ending_first,incompatible_first,incompatible_first,ES_green,second_IAT_first_block,starting,incompatible,13,none,attribute,task_switch,response_switch,Gelbe Wesen,Lila Wesen,Negativ,Positiv,Schlecht,NA,NA,negative,c,c,1,1344551,1344941,1344941,2581,none,none,none,none,1347541
33,old,ending_first,incompatible_first,incompatible_first,ES_green,second_IAT_first_block,starting,incompatible,14,none,attribute,task_repetition,response_switch,Gelbe Wesen,Lila Wesen,Negativ,Positiv,Wundervoll,NA,NA,positive,m,m,1,1348271,1348661,1348661,870,none,none,none,none,1349551
33,old,ending_first,incompatible_first,incompatible_first,ES_green,second_IAT_first_block,starting,incompatible,15,none,target,task_switch,response_switch,Gelbe Wesen,Lila Wesen,Negativ,Positiv,IAT_yellow2.bmp,yellow,starting_melody,NA,c,c,1,1350241,1350631,1350631,673,none,none,none,none,1351331
33,old,ending_first,incompatible_first,incompatible_first,ES_green,second_IAT_first_block,starting,incompatible,16,none,target,task_repetition,response_repetition,Gelbe Wesen,Lila Wesen,Negativ,Positiv,IAT_yellow3.bmp,yellow,starting_melody,NA,c,c,1,1352030,1352420,1352421,1377,none,none,none,none,1353820
33,old,ending_first,incompatible_first,incompatible_first,ES_green,second_IAT_first_block,starting,incompatible,17,none,target,task_repetition,response_switch,Gelbe Wesen,Lila Wesen,Negativ,Positiv,IAT_purple4.bmp,purple,starting_scream,NA,m,m,1,1354540,1354930,1354931,495,none,none,none,none,1355450
33,old,ending_first,incompatible_first,incompatible_first,ES_green,second_IAT_first_block,starting,incompatible,18,none,attribute,task_switch,response_repetition,Gelbe Wesen,Lila Wesen,Negativ,Positiv,Liebe,NA,NA,positive,m,m,1,1356230,1356620,1356620,327,none,none,none,none,1356970
33,old,ending_first,incompatible_first,incompatible_first,ES_green,second_IAT_first_block,starting,incompatible,19,none,attribute,task_repetition,response_switch,Gelbe Wesen,Lila Wesen,Negativ,Positiv,Versagen,NA,NA,negative,c,c,1,1357740,1358130,1358130,3016,none,none,none,none,1361171
33,old,ending_first,incompatible_first,incompatible_first,ES_green,second_IAT_first_block,starting,incompatible,20,none,target,task_switch,response_repetition,Gelbe Wesen,Lila Wesen,Negativ,Positiv,IAT_yellow1.bmp,yellow,starting_melody,NA,c,c,1,1361942,1362331,1362331,1206,none,none,none,none,1363561
33,old,ending_first,incompatible_first,incompatible_first,ES_green,second_IAT_first_block,starting,incompatible,21,none,attribute,task_switch,response_switch,Gelbe Wesen,Lila Wesen,Negativ,Positiv,Glücklich,NA,NA,positive,m,m,1,1364281,1364671,1364671,1253,none,none,none,none,1365951
33,old,ending_first,incompatible_first,incompatible_first,ES_green,second_IAT_first_block,starting,incompatible,22,none,target,task_switch,response_repetition,Gelbe Wesen,Lila Wesen,Negativ,Positiv,IAT_purple1.bmp,purple,starting_scream,NA,m,m,1,1366660,1367050,1367051,1192,none,none,none,none,1368270
33,old,ending_first,incompatible_first,incompatible_first,ES_green,second_IAT_first_block,starting,incompatible,23,none,attribute,task_switch,response_repetition,Gelbe Wesen,Lila Wesen,Negativ,Positiv,Spaß,NA,NA,positive,m,m,1,1368980,1369370,1369371,2105,none,none,none,none,1371500
33,old,ending_first,incompatible_first,incompatible_first,ES_green,second_IAT_first_block,starting,incompatible,24,none,attribute,task_repetition,response_repetition,Gelbe Wesen,Lila Wesen,Negativ,Positiv,Wundervoll,NA,NA,positive,m,m,1,1372210,1372600,1372600,1612,none,none,none,none,1374240
33,old,ending_first,incompatible_first,incompatible_first,ES_green,second_IAT_first_block,starting,incompatible,25,none,target,task_switch,response_repetition,Gelbe Wesen,Lila Wesen,Negativ,Positiv,IAT_purple4.bmp,purple,starting_scream,NA,m,c,0,1374930,1375320,1375320,616,m,1,1375950,1043,1377020
33,old,ending_first,incompatible_first,incompatible_first,ES_green,second_IAT_first_block,starting,incompatible,26,none,target,task_repetition,response_switch,Gelbe Wesen,Lila Wesen,Negativ,Positiv,IAT_yellow2.bmp,yellow,starting_melody,NA,c,c,1,1377710,1378100,1378100,380,none,none,none,none,1378501
33,old,ending_first,incompatible_first,incompatible_first,ES_green,second_IAT_first_block,starting,incompatible,27,none,attribute,task_switch,response_switch,Gelbe Wesen,Lila Wesen,Negativ,Positiv,Freude,NA,NA,positive,m,m,1,1379210,1379600,1379601,850,none,none,none,none,1380471
33,old,ending_first,incompatible_first,incompatible_first,ES_green,second_IAT_first_block,starting,incompatible,28,none,target,task_switch,response_switch,Gelbe Wesen,Lila Wesen,Negativ,Positiv,IAT_yellow4.bmp,yellow,starting_melody,NA,c,c,1,1381160,1381550,1381551,1244,none,none,none,none,1382820
33,old,ending_first,incompatible_first,incompatible_first,ES_green,second_IAT_first_block,starting,incompatible,29,none,target,task_repetition,response_switch,Gelbe Wesen,Lila Wesen,Negativ,Positiv,IAT_purple2.bmp,purple,starting_scream,NA,m,m,1,1383520,1383910,1383910,475,none,none,none,none,1384410
33,old,ending_first,incompatible_first,incompatible_first,ES_green,second_IAT_first_block,starting,incompatible,30,none,attribute,task_switch,response_switch,Gelbe Wesen,Lila Wesen,Negativ,Positiv,Bedrohung,NA,NA,negative,c,c,1,1385140,1385530,1385530,864,none,none,none,none,1386420
33,old,ending_first,incompatible_first,incompatible_first,ES_green,second_IAT_first_block,starting,incompatible,31,none,attribute,task_repetition,response_repetition,Gelbe Wesen,Lila Wesen,Negativ,Positiv,Schmerz,NA,NA,negative,c,c,1,1387130,1387520,1387520,785,none,none,none,none,1388330
33,old,ending_first,incompatible_first,incompatible_first,ES_green,second_IAT_first_block,starting,incompatible,32,none,attribute,task_repetition,response_repetition,Gelbe Wesen,Lila Wesen,Negativ,Positiv,Trauer,NA,NA,negative,c,c,1,1389040,1389430,1389430,536,none,none,none,none,1389990
33,old,ending_first,incompatible_first,incompatible_first,ES_green,second_IAT_first_block,starting,incompatible,33,none,target,task_switch,response_switch,Gelbe Wesen,Lila Wesen,Negativ,Positiv,IAT_purple3.bmp,purple,starting_scream,NA,m,c,0,1390750,1391140,1391140,495,m,1,1391650,578,1392250
33,old,ending_first,incompatible_first,incompatible_first,ES_green,second_IAT_first_block,starting,incompatible,34,none,target,task_repetition,response_repetition,Gelbe Wesen,Lila Wesen,Negativ,Positiv,IAT_purple1.bmp,purple,starting_scream,NA,m,m,1,1392981,1393370,1393370,695,none,none,none,none,1394090
33,old,ending_first,incompatible_first,incompatible_first,ES_green,second_IAT_first_block,starting,incompatible,35,none,target,task_repetition,response_repetition,Gelbe Wesen,Lila Wesen,Negativ,Positiv,IAT_purple2.bmp,purple,starting_scream,NA,m,m,1,1394789,1395179,1395180,444,none,none,none,none,1395650
33,old,ending_first,incompatible_first,incompatible_first,ES_green,second_IAT_first_block,starting,incompatible,36,none,attribute,task_switch,response_repetition,Gelbe Wesen,Lila Wesen,Negativ,Positiv,Frieden,NA,NA,positive,m,m,1,1396370,1396760,1396761,826,none,none,none,none,1397610
33,old,ending_first,incompatible_first,incompatible_first,ES_green,second_IAT_first_block,starting,incompatible,37,none,attribute,task_repetition,response_switch,Gelbe Wesen,Lila Wesen,Negativ,Positiv,Böse,NA,NA,negative,c,c,1,1398320,1398710,1398710,1123,none,none,none,none,1399860
33,old,ending_first,incompatible_first,incompatible_first,ES_green,second_IAT_first_block,starting,incompatible,38,none,attribute,task_repetition,response_repetition,Gelbe Wesen,Lila Wesen,Negativ,Positiv,Versagen,NA,NA,negative,c,c,1,1400590,1400980,1400980,1616,none,none,none,none,1402620
33,old,ending_first,incompatible_first,incompatible_first,ES_green,second_IAT_first_block,starting,incompatible,39,none,target,task_switch,response_repetition,Gelbe Wesen,Lila Wesen,Negativ,Positiv,IAT_yellow2.bmp,yellow,starting_melody,NA,c,c,1,1403320,1403710,1403710,477,none,none,none,none,1404210
33,old,ending_first,incompatible_first,incompatible_first,ES_green,second_IAT_first_block,starting,incompatible,40,none,attribute,task_switch,response_repetition,Gelbe Wesen,Lila Wesen,Negativ,Positiv,Schmerz,NA,NA,negative,c,c,1,1404950,1405340,1405340,461,none,none,none,none,1405830
33,old,ending_first,incompatible_first,incompatible_first,ES_green,second_IAT_first_block,starting,incompatible,41,none,target,task_switch,response_switch,Gelbe Wesen,Lila Wesen,Negativ,Positiv,IAT_purple4.bmp,purple,starting_scream,NA,m,m,1,1406540,1406930,1406930,866,none,none,none,none,1407820
33,old,ending_first,incompatible_first,incompatible_first,ES_green,second_IAT_first_block,starting,incompatible,42,none,target,task_repetition,response_switch,Gelbe Wesen,Lila Wesen,Negativ,Positiv,IAT_yellow4.bmp,yellow,starting_melody,NA,c,c,1,1408519,1408909,1408910,651,none,none,none,none,1409579
33,old,ending_first,incompatible_first,incompatible_first,ES_green,second_IAT_first_block,starting,incompatible,43,none,target,task_repetition,response_switch,Gelbe Wesen,Lila Wesen,Negativ,Positiv,IAT_purple1.bmp,purple,starting_scream,NA,m,m,1,1410279,1410669,1410670,578,none,none,none,none,1411269
33,old,ending_first,incompatible_first,incompatible_first,ES_green,second_IAT_first_block,starting,incompatible,44,none,attribute,task_switch,response_switch,Gelbe Wesen,Lila Wesen,Negativ,Positiv,Bedrohung,NA,NA,negative,c,c,1,1411989,1412379,1412379,931,none,none,none,none,1413330
33,old,ending_first,incompatible_first,incompatible_first,ES_green,second_IAT_first_block,starting,incompatible,45,none,target,task_switch,response_switch,Gelbe Wesen,Lila Wesen,Negativ,Positiv,IAT_purple3.bmp,purple,starting_scream,NA,m,m,1,1414020,1414410,1414410,932,none,none,none,none,1415370
33,old,ending_first,incompatible_first,incompatible_first,ES_green,second_IAT_first_block,starting,incompatible,46,none,target,task_repetition,response_switch,Gelbe Wesen,Lila Wesen,Negativ,Positiv,IAT_yellow3.bmp,yellow,starting_melody,NA,c,c,1,1416080,1416470,1416470,457,none,none,none,none,1416950
33,old,ending_first,incompatible_first,incompatible_first,ES_green,second_IAT_first_block,starting,incompatible,47,none,target,task_repetition,response_repetition,Gelbe Wesen,Lila Wesen,Negativ,Positiv,IAT_yellow1.bmp,yellow,starting_melody,NA,c,c,1,1417764,1418160,1418160,1177,none,none,none,none,1419360
33,old,ending_first,incompatible_first,incompatible_first,ES_green,second_IAT_first_block,starting,incompatible,48,none,attribute,task_switch,response_repetition,Gelbe Wesen,Lila Wesen,Negativ,Positiv,Schlecht,NA,NA,negative,c,c,1,1420080,1420470,1420470,867,none,none,none,none,1421360
