subject_nr,contrast_group,iat_order,block_order_1,block_order_2,color_counter,which_IAT_which_block,current_contrast,current_comp,trialnr,trial_type,target_type,task_switch, response_switch,left_target,right_target,left_attribute,right_attribute,trial_target,target_color,target_role,attribute_valence,correct_response,response_first_response,correct_first_response,time_assignments_show,time_target_show,time_first_response,response_time_first_response,response_force_correct,correct_force_correct,time_force_correct,response_time_force_correct,time_logger
37,old,starting_first,incompatible_first,incompatible_first,ES_yellow,first_IAT_first_block,starting,incompatible,0,none,attribute,NA,NA,Rote Wesen,Grüne Wesen,Negativ,Positiv,Bedrohung,NA,NA,negative,c,c,1,948428,948816,948816,743,none,none,none,none,949586
37,old,starting_first,incompatible_first,incompatible_first,ES_yellow,first_IAT_first_block,starting,incompatible,1,none,attribute,task_repetition,response_switch,Rote Wesen,Grüne Wesen,Negativ,Positiv,Liebe,NA,NA,positive,m,m,1,950316,950706,950706,434,none,none,none,none,951166
37,old,starting_first,incompatible_first,incompatible_first,ES_yellow,first_IAT_first_block,starting,incompatible,2,none,attribute,task_repetition,response_repetition,Rote Wesen,Grüne Wesen,Negativ,Positiv,Wundervoll,NA,NA,positive,m,c,0,951896,952286,952286,342,m,1,952646,333,953006
37,old,starting_first,incompatible_first,incompatible_first,ES_yellow,first_IAT_first_block,starting,incompatible,3,none,target,task_switch,response_repetition,Rote Wesen,Grüne Wesen,Negativ,Positiv,IAT_green4.bmp,green,starting_scream,NA,m,m,1,953706,954095,954096,487,none,none,none,none,954606
37,old,starting_first,incompatible_first,incompatible_first,ES_yellow,first_IAT_first_block,starting,incompatible,4,none,target,task_repetition,response_repetition,Rote Wesen,Grüne Wesen,Negativ,Positiv,IAT_green3.bmp,green,starting_scream,NA,m,m,1,955305,955695,955696,348,none,none,none,none,956065
37,old,starting_first,incompatible_first,incompatible_first,ES_yellow,first_IAT_first_block,starting,incompatible,5,none,target,task_repetition,response_switch,Rote Wesen,Grüne Wesen,Negativ,Positiv,IAT_red1.bmp,red,starting_melody,NA,c,c,1,956765,957155,957156,435,none,none,none,none,957615
37,old,starting_first,incompatible_first,incompatible_first,ES_yellow,first_IAT_first_block,starting,incompatible,6,none,attribute,task_switch,response_switch,Rote Wesen,Grüne Wesen,Negativ,Positiv,Freude,NA,NA,positive,m,c,0,958345,958736,958736,440,m,1,959187,409,959616
37,old,starting_first,incompatible_first,incompatible_first,ES_yellow,first_IAT_first_block,starting,incompatible,7,none,attribute,task_repetition,response_switch,Rote Wesen,Grüne Wesen,Negativ,Positiv,Trauer,NA,NA,negative,c,c,1,960346,960736,960736,511,none,none,none,none,961266
37,old,starting_first,incompatible_first,incompatible_first,ES_yellow,first_IAT_first_block,starting,incompatible,8,none,attribute,task_repetition,response_repetition,Rote Wesen,Grüne Wesen,Negativ,Positiv,Bedrohung,NA,NA,negative,c,c,1,962006,962396,962396,582,none,none,none,none,963006
37,old,starting_first,incompatible_first,incompatible_first,ES_yellow,first_IAT_first_block,starting,incompatible,9,none,attribute,task_repetition,response_repetition,Rote Wesen,Grüne Wesen,Negativ,Positiv,Schlecht,NA,NA,negative,c,c,1,963726,964116,964116,424,none,none,none,none,964566
37,old,starting_first,incompatible_first,incompatible_first,ES_yellow,first_IAT_first_block,starting,incompatible,10,none,target,task_switch,response_switch,Rote Wesen,Grüne Wesen,Negativ,Positiv,IAT_green1.bmp,green,starting_scream,NA,m,m,1,965246,965636,965636,582,none,none,none,none,966246
37,old,starting_first,incompatible_first,incompatible_first,ES_yellow,first_IAT_first_block,starting,incompatible,11,none,attribute,task_switch,response_repetition,Rote Wesen,Grüne Wesen,Negativ,Positiv,Spaß,NA,NA,positive,m,m,1,967066,967456,967456,730,none,none,none,none,968206
37,old,starting_first,incompatible_first,incompatible_first,ES_yellow,first_IAT_first_block,starting,incompatible,12,none,target,task_switch,response_switch,Rote Wesen,Grüne Wesen,Negativ,Positiv,IAT_red2.bmp,red,starting_melody,NA,c,c,1,968976,969366,969366,579,none,none,none,none,969966
37,old,starting_first,incompatible_first,incompatible_first,ES_yellow,first_IAT_first_block,starting,incompatible,13,none,attribute,task_switch,response_repetition,Rote Wesen,Grüne Wesen,Negativ,Positiv,Versagen,NA,NA,negative,c,c,1,970778,971176,971176,557,none,none,none,none,971756
37,old,starting_first,incompatible_first,incompatible_first,ES_yellow,first_IAT_first_block,starting,incompatible,14,none,attribute,task_repetition,response_switch,Rote Wesen,Grüne Wesen,Negativ,Positiv,Glücklich,NA,NA,positive,m,m,1,972475,972865,972866,425,none,none,none,none,973315
37,old,starting_first,incompatible_first,incompatible_first,ES_yellow,first_IAT_first_block,starting,incompatible,15,none,attribute,task_repetition,response_switch,Rote Wesen,Grüne Wesen,Negativ,Positiv,Schmerz,NA,NA,negative,c,c,1,974045,974435,974435,430,none,none,none,none,974885
37,old,starting_first,incompatible_first,incompatible_first,ES_yellow,first_IAT_first_block,starting,incompatible,16,none,attribute,task_repetition,response_repetition,Rote Wesen,Grüne Wesen,Negativ,Positiv,Böse,NA,NA,negative,c,c,1,975605,975995,975995,361,none,none,none,none,976376
37,old,starting_first,incompatible_first,incompatible_first,ES_yellow,first_IAT_first_block,starting,incompatible,17,none,target,task_switch,response_repetition,Rote Wesen,Grüne Wesen,Negativ,Positiv,IAT_red3.bmp,red,starting_melody,NA,c,c,1,977076,977466,977466,676,none,none,none,none,978166
37,old,starting_first,incompatible_first,incompatible_first,ES_yellow,first_IAT_first_block,starting,incompatible,18,none,attribute,task_switch,response_repetition,Rote Wesen,Grüne Wesen,Negativ,Positiv,Bedrohung,NA,NA,negative,c,c,1,978886,979276,979276,640,none,none,none,none,979936
37,old,starting_first,incompatible_first,incompatible_first,ES_yellow,first_IAT_first_block,starting,incompatible,19,none,target,task_switch,response_repetition,Rote Wesen,Grüne Wesen,Negativ,Positiv,IAT_red4.bmp,red,starting_melody,NA,c,c,1,980636,981026,981026,357,none,none,none,none,981406
37,old,starting_first,incompatible_first,incompatible_first,ES_yellow,first_IAT_first_block,starting,incompatible,20,none,target,task_repetition,response_repetition,Rote Wesen,Grüne Wesen,Negativ,Positiv,IAT_red2.bmp,red,starting_melody,NA,c,c,1,982106,982496,982496,329,none,none,none,none,982846
37,old,starting_first,incompatible_first,incompatible_first,ES_yellow,first_IAT_first_block,starting,incompatible,21,none,target,task_repetition,response_switch,Rote Wesen,Grüne Wesen,Negativ,Positiv,IAT_green2.bmp,green,starting_scream,NA,m,m,1,983536,983926,983926,418,none,none,none,none,984366
37,old,starting_first,incompatible_first,incompatible_first,ES_yellow,first_IAT_first_block,starting,incompatible,22,none,target,task_repetition,response_repetition,Rote Wesen,Grüne Wesen,Negativ,Positiv,IAT_green4.bmp,green,starting_scream,NA,m,m,1,985056,985446,985446,393,none,none,none,none,985866
37,old,starting_first,incompatible_first,incompatible_first,ES_yellow,first_IAT_first_block,starting,incompatible,23,none,attribute,task_switch,response_repetition,Rote Wesen,Grüne Wesen,Negativ,Positiv,Frieden,NA,NA,positive,m,m,1,986586,986976,986976,428,none,none,none,none,987426
37,old,starting_first,incompatible_first,incompatible_first,ES_yellow,first_IAT_first_block,starting,incompatible,24,none,attribute,task_repetition,response_repetition,Rote Wesen,Grüne Wesen,Negativ,Positiv,Freude,NA,NA,positive,m,m,1,988155,988545,988546,415,none,none,none,none,988986
37,old,starting_first,incompatible_first,incompatible_first,ES_yellow,first_IAT_first_block,starting,incompatible,25,none,attribute,task_repetition,response_repetition,Rote Wesen,Grüne Wesen,Negativ,Positiv,Wundervoll,NA,NA,positive,m,c,0,989715,990105,990106,523,m,1,990646,372,991045
37,old,starting_first,incompatible_first,incompatible_first,ES_yellow,first_IAT_first_block,starting,incompatible,26,none,attribute,task_repetition,response_switch,Rote Wesen,Grüne Wesen,Negativ,Positiv,Trauer,NA,NA,negative,c,c,1,991785,992175,992175,652,none,none,none,none,992845
37,old,starting_first,incompatible_first,incompatible_first,ES_yellow,first_IAT_first_block,starting,incompatible,27,none,attribute,task_repetition,response_switch,Rote Wesen,Grüne Wesen,Negativ,Positiv,Liebe,NA,NA,positive,m,m,1,993648,994036,994036,439,none,none,none,none,994496
37,old,starting_first,incompatible_first,incompatible_first,ES_yellow,first_IAT_first_block,starting,incompatible,28,none,target,task_switch,response_switch,Rote Wesen,Grüne Wesen,Negativ,Positiv,IAT_red4.bmp,red,starting_melody,NA,c,c,1,995186,995576,995576,435,none,none,none,none,996036
37,old,starting_first,incompatible_first,incompatible_first,ES_yellow,first_IAT_first_block,starting,incompatible,29,none,target,task_repetition,response_repetition,Rote Wesen,Grüne Wesen,Negativ,Positiv,IAT_red1.bmp,red,starting_melody,NA,c,c,1,996736,997126,997126,324,none,none,none,none,997476
37,old,starting_first,incompatible_first,incompatible_first,ES_yellow,first_IAT_first_block,starting,incompatible,30,none,target,task_repetition,response_repetition,Rote Wesen,Grüne Wesen,Negativ,Positiv,IAT_red3.bmp,red,starting_melody,NA,c,c,1,998186,998576,998576,328,none,none,none,none,998926
37,old,starting_first,incompatible_first,incompatible_first,ES_yellow,first_IAT_first_block,starting,incompatible,31,none,target,task_repetition,response_switch,Rote Wesen,Grüne Wesen,Negativ,Positiv,IAT_green3.bmp,green,starting_scream,NA,m,m,1,999616,1000006,1000006,471,none,none,none,none,1000496
37,old,starting_first,incompatible_first,incompatible_first,ES_yellow,first_IAT_first_block,starting,incompatible,32,none,target,task_repetition,response_repetition,Rote Wesen,Grüne Wesen,Negativ,Positiv,IAT_green2.bmp,green,starting_scream,NA,m,m,1,1001186,1001576,1001576,349,none,none,none,none,1001946
37,old,starting_first,incompatible_first,incompatible_first,ES_yellow,first_IAT_first_block,starting,incompatible,33,none,target,task_repetition,response_switch,Rote Wesen,Grüne Wesen,Negativ,Positiv,IAT_red1.bmp,red,starting_melody,NA,c,m,0,1002646,1003036,1003036,365,c,1,1003416,372,1003816
37,old,starting_first,incompatible_first,incompatible_first,ES_yellow,first_IAT_first_block,starting,incompatible,34,none,attribute,task_switch,response_switch,Rote Wesen,Grüne Wesen,Negativ,Positiv,Frieden,NA,NA,positive,m,c,0,1004546,1004935,1004936,751,m,1,1005696,379,1006095
37,old,starting_first,incompatible_first,incompatible_first,ES_yellow,first_IAT_first_block,starting,incompatible,35,none,target,task_switch,response_repetition,Rote Wesen,Grüne Wesen,Negativ,Positiv,IAT_green1.bmp,green,starting_scream,NA,m,m,1,1006795,1007185,1007185,554,none,none,none,none,1007765
37,old,starting_first,incompatible_first,incompatible_first,ES_yellow,first_IAT_first_block,starting,incompatible,36,none,attribute,task_switch,response_switch,Rote Wesen,Grüne Wesen,Negativ,Positiv,Böse,NA,NA,negative,c,c,1,1008495,1008885,1008885,581,none,none,none,none,1009485
37,old,starting_first,incompatible_first,incompatible_first,ES_yellow,first_IAT_first_block,starting,incompatible,37,none,target,task_switch,response_switch,Rote Wesen,Grüne Wesen,Negativ,Positiv,IAT_green4.bmp,green,starting_scream,NA,m,c,0,1010185,1010575,1010575,412,m,1,1011005,373,1011406
37,old,starting_first,incompatible_first,incompatible_first,ES_yellow,first_IAT_first_block,starting,incompatible,38,none,attribute,task_switch,response_switch,Rote Wesen,Grüne Wesen,Negativ,Positiv,Schmerz,NA,NA,negative,c,c,1,1012126,1012516,1012516,484,none,none,none,none,1013026
37,old,starting_first,incompatible_first,incompatible_first,ES_yellow,first_IAT_first_block,starting,incompatible,39,none,target,task_switch,response_repetition,Rote Wesen,Grüne Wesen,Negativ,Positiv,IAT_red2.bmp,red,starting_melody,NA,c,c,1,1013726,1014116,1014116,558,none,none,none,none,1014696
37,old,starting_first,incompatible_first,incompatible_first,ES_yellow,first_IAT_first_block,starting,incompatible,40,none,target,task_repetition,response_switch,Rote Wesen,Grüne Wesen,Negativ,Positiv,IAT_green1.bmp,green,starting_scream,NA,m,m,1,1015456,1015846,1015846,461,none,none,none,none,1016326
37,old,starting_first,incompatible_first,incompatible_first,ES_yellow,first_IAT_first_block,starting,incompatible,41,none,attribute,task_switch,response_repetition,Rote Wesen,Grüne Wesen,Negativ,Positiv,Spaß,NA,NA,positive,m,m,1,1017147,1017536,1017536,637,none,none,none,none,1018196
37,old,starting_first,incompatible_first,incompatible_first,ES_yellow,first_IAT_first_block,starting,incompatible,42,none,target,task_switch,response_repetition,Rote Wesen,Grüne Wesen,Negativ,Positiv,IAT_green3.bmp,green,starting_scream,NA,m,m,1,1018906,1019296,1019296,573,none,none,none,none,1019896
37,old,starting_first,incompatible_first,incompatible_first,ES_yellow,first_IAT_first_block,starting,incompatible,43,none,target,task_repetition,response_switch,Rote Wesen,Grüne Wesen,Negativ,Positiv,IAT_red4.bmp,red,starting_melody,NA,c,c,1,1020596,1020985,1020986,422,none,none,none,none,1021436
37,old,starting_first,incompatible_first,incompatible_first,ES_yellow,first_IAT_first_block,starting,incompatible,44,none,attribute,task_switch,response_switch,Rote Wesen,Grüne Wesen,Negativ,Positiv,Glücklich,NA,NA,positive,m,c,0,1022165,1022555,1022556,537,m,1,1023106,431,1023555
37,old,starting_first,incompatible_first,incompatible_first,ES_yellow,first_IAT_first_block,starting,incompatible,45,none,target,task_switch,response_switch,Rote Wesen,Grüne Wesen,Negativ,Positiv,IAT_red3.bmp,red,starting_melody,NA,c,c,1,1024255,1024645,1024645,537,none,none,none,none,1025205
37,old,starting_first,incompatible_first,incompatible_first,ES_yellow,first_IAT_first_block,starting,incompatible,46,none,attribute,task_switch,response_repetition,Rote Wesen,Grüne Wesen,Negativ,Positiv,Versagen,NA,NA,negative,c,m,0,1025935,1026325,1026325,684,c,1,1027025,503,1027555
37,old,starting_first,incompatible_first,incompatible_first,ES_yellow,first_IAT_first_block,starting,incompatible,47,none,target,task_switch,response_switch,Rote Wesen,Grüne Wesen,Negativ,Positiv,IAT_green2.bmp,green,starting_scream,NA,m,m,1,1028255,1028646,1028646,470,none,none,none,none,1029136
37,old,starting_first,incompatible_first,incompatible_first,ES_yellow,first_IAT_first_block,starting,incompatible,48,none,attribute,task_switch,response_switch,Rote Wesen,Grüne Wesen,Negativ,Positiv,Schlecht,NA,NA,negative,c,c,1,1029856,1030246,1030246,458,none,none,none,none,1030726
