subject_nr,contrast_group,iat_order,block_order_1,block_order_2,color_counter,which_IAT_which_block,current_contrast,current_comp,trialnr,trial_type,target_type,task_switch, response_switch,left_target,right_target,left_attribute,right_attribute,trial_target,target_color,target_role,attribute_valence,correct_response,response_first_response,correct_first_response,time_assignments_show,time_target_show,time_first_response,response_time_first_response,response_force_correct,correct_force_correct,time_force_correct,response_time_force_correct,time_logger
8,new,melody_first,incompatible_first,compatible_first,ES_red,first_IAT_first_block,melody,incompatible,0,NA,attribute_practice,attribute_practice,attribute_practice,attribute_practice,attribute_practice,Negativ,Positiv,Böse,attribute_practice,attribute_practice,negative,c,c,1,1037485,1037875,1037876,980,none,none,none,none,1038875
8,new,melody_first,incompatible_first,compatible_first,ES_red,first_IAT_first_block,melody,incompatible,1,repetition,attribute_practice,attribute_practice,attribute_practice,attribute_practice,attribute_practice,Negativ,Positiv,Trauer,attribute_practice,attribute_practice,negative,c,c,1,1039489,1039885,1039886,1123,none,none,none,none,1041035
8,new,melody_first,incompatible_first,compatible_first,ES_red,first_IAT_first_block,melody,incompatible,2,change,attribute_practice,attribute_practice,attribute_practice,attribute_practice,attribute_practice,Negativ,Positiv,Glücklich,attribute_practice,attribute_practice,positive,m,m,1,1041555,1041945,1041945,756,none,none,none,none,1042725
8,new,melody_first,incompatible_first,compatible_first,ES_red,first_IAT_first_block,melody,incompatible,3,change,attribute_practice,attribute_practice,attribute_practice,attribute_practice,attribute_practice,Negativ,Positiv,Schmerz,attribute_practice,attribute_practice,negative,c,c,1,1043265,1043655,1043655,723,none,none,none,none,1044405
8,new,melody_first,incompatible_first,compatible_first,ES_red,first_IAT_first_block,melody,incompatible,4,repetition,attribute_practice,attribute_practice,attribute_practice,attribute_practice,attribute_practice,Negativ,Positiv,Bedrohung,attribute_practice,attribute_practice,negative,c,c,1,1044925,1045315,1045315,932,none,none,none,none,1046266
8,new,melody_first,incompatible_first,compatible_first,ES_red,first_IAT_first_block,melody,incompatible,5,change,attribute_practice,attribute_practice,attribute_practice,attribute_practice,attribute_practice,Negativ,Positiv,Spaß,attribute_practice,attribute_practice,positive,m,m,1,1046806,1047196,1047196,806,none,none,none,none,1048026
8,new,melody_first,incompatible_first,compatible_first,ES_red,first_IAT_first_block,melody,incompatible,6,repetition,attribute_practice,attribute_practice,attribute_practice,attribute_practice,attribute_practice,Negativ,Positiv,Liebe,attribute_practice,attribute_practice,positive,m,m,1,1048566,1048956,1048956,672,none,none,none,none,1049656
8,new,melody_first,incompatible_first,compatible_first,ES_red,first_IAT_first_block,melody,incompatible,7,repetition,attribute_practice,attribute_practice,attribute_practice,attribute_practice,attribute_practice,Negativ,Positiv,Freude,attribute_practice,attribute_practice,positive,m,m,1,1050186,1050576,1050576,482,none,none,none,none,1051086
8,new,melody_first,incompatible_first,compatible_first,ES_red,first_IAT_first_block,melody,incompatible,8,repetition,attribute_practice,attribute_practice,attribute_practice,attribute_practice,attribute_practice,Negativ,Positiv,Spaß,attribute_practice,attribute_practice,positive,m,m,1,1051616,1052005,1052006,454,none,none,none,none,1052485
8,new,melody_first,incompatible_first,compatible_first,ES_red,first_IAT_first_block,melody,incompatible,9,change,attribute_practice,attribute_practice,attribute_practice,attribute_practice,attribute_practice,Negativ,Positiv,Schlecht,attribute_practice,attribute_practice,negative,c,c,1,1053025,1053415,1053416,624,none,none,none,none,1054065
8,new,melody_first,incompatible_first,compatible_first,ES_red,first_IAT_first_block,melody,incompatible,10,repetition,attribute_practice,attribute_practice,attribute_practice,attribute_practice,attribute_practice,Negativ,Positiv,Trauer,attribute_practice,attribute_practice,negative,c,c,1,1054595,1054985,1054985,670,none,none,none,none,1055675
8,new,melody_first,incompatible_first,compatible_first,ES_red,first_IAT_first_block,melody,incompatible,11,repetition,attribute_practice,attribute_practice,attribute_practice,attribute_practice,attribute_practice,Negativ,Positiv,Versagen,attribute_practice,attribute_practice,negative,c,c,1,1056245,1056635,1056635,712,none,none,none,none,1057375
8,new,melody_first,incompatible_first,compatible_first,ES_red,first_IAT_first_block,melody,incompatible,12,change,attribute_practice,attribute_practice,attribute_practice,attribute_practice,attribute_practice,Negativ,Positiv,Freude,attribute_practice,attribute_practice,positive,m,c,0,1057935,1058325,1058325,607,m,1,1058945,501,1059465
8,new,melody_first,incompatible_first,compatible_first,ES_red,first_IAT_first_block,melody,incompatible,13,repetition,attribute_practice,attribute_practice,attribute_practice,attribute_practice,attribute_practice,Negativ,Positiv,Wundervoll,attribute_practice,attribute_practice,positive,m,m,1,1060075,1060465,1060465,698,none,none,none,none,1061185
8,new,melody_first,incompatible_first,compatible_first,ES_red,first_IAT_first_block,melody,incompatible,14,change,attribute_practice,attribute_practice,attribute_practice,attribute_practice,attribute_practice,Negativ,Positiv,Schlecht,attribute_practice,attribute_practice,negative,c,c,1,1061755,1062145,1062145,819,none,none,none,none,1062985
8,new,melody_first,incompatible_first,compatible_first,ES_red,first_IAT_first_block,melody,incompatible,15,change,attribute_practice,attribute_practice,attribute_practice,attribute_practice,attribute_practice,Negativ,Positiv,Glücklich,attribute_practice,attribute_practice,positive,m,m,1,1063556,1063946,1063946,688,none,none,none,none,1064656
8,new,melody_first,incompatible_first,compatible_first,ES_red,first_IAT_first_block,melody,incompatible,16,change,attribute_practice,attribute_practice,attribute_practice,attribute_practice,attribute_practice,Negativ,Positiv,Bedrohung,attribute_practice,attribute_practice,negative,c,c,1,1065249,1065645,1065646,610,none,none,none,none,1066275
8,new,melody_first,incompatible_first,compatible_first,ES_red,first_IAT_first_block,melody,incompatible,17,change,attribute_practice,attribute_practice,attribute_practice,attribute_practice,attribute_practice,Negativ,Positiv,Frieden,attribute_practice,attribute_practice,positive,m,m,1,1066849,1067245,1067246,1067,none,none,none,none,1068335
8,new,melody_first,incompatible_first,compatible_first,ES_red,first_IAT_first_block,melody,incompatible,18,repetition,attribute_practice,attribute_practice,attribute_practice,attribute_practice,attribute_practice,Negativ,Positiv,Frieden,attribute_practice,attribute_practice,positive,m,m,1,1068855,1069245,1069245,506,none,none,none,none,1069775
8,new,melody_first,incompatible_first,compatible_first,ES_red,first_IAT_first_block,melody,incompatible,19,change,attribute_practice,attribute_practice,attribute_practice,attribute_practice,attribute_practice,Negativ,Positiv,Versagen,attribute_practice,attribute_practice,negative,c,c,1,1070295,1070685,1070685,665,none,none,none,none,1071375
8,new,melody_first,incompatible_first,compatible_first,ES_red,first_IAT_first_block,melody,incompatible,20,repetition,attribute_practice,attribute_practice,attribute_practice,attribute_practice,attribute_practice,Negativ,Positiv,Schmerz,attribute_practice,attribute_practice,negative,c,c,1,1071905,1072295,1072295,791,none,none,none,none,1073105
