subject_nr,contrast_group,iat_order,block_order_1,block_order_2,color_counter,which_IAT_which_block,current_contrast,current_comp,trialnr,trial_type,target_type,task_switch, response_switch,left_target,right_target,left_attribute,right_attribute,trial_target,target_color,target_role,attribute_valence,correct_response,response_first_response,correct_first_response,time_assignments_show,time_target_show,time_first_response,response_time_first_response,response_force_correct,correct_force_correct,time_force_correct,response_time_force_correct,time_logger
10,new,melody_first,incompatible_first,compatible_first,ES_yellow,second_IAT_first_block,scream,compatible,0,NA,attribute_practice,attribute_practice,attribute_practice,attribute_practice,attribute_practice,Negativ,Positiv,Bedrohung,attribute_practice,attribute_practice,negative,c,c,1,1179571,1179961,1179961,682,none,none,none,none,1180671
10,new,melody_first,incompatible_first,compatible_first,ES_yellow,second_IAT_first_block,scream,compatible,1,change,attribute_practice,attribute_practice,attribute_practice,attribute_practice,attribute_practice,Negativ,Positiv,Liebe,attribute_practice,attribute_practice,positive,m,m,1,1181201,1181591,1181591,504,none,none,none,none,1182121
10,new,melody_first,incompatible_first,compatible_first,ES_yellow,second_IAT_first_block,scream,compatible,2,repetition,attribute_practice,attribute_practice,attribute_practice,attribute_practice,attribute_practice,Negativ,Positiv,Freude,attribute_practice,attribute_practice,positive,m,m,1,1182691,1183081,1183081,500,none,none,none,none,1183601
10,new,melody_first,incompatible_first,compatible_first,ES_yellow,second_IAT_first_block,scream,compatible,3,repetition,attribute_practice,attribute_practice,attribute_practice,attribute_practice,attribute_practice,Negativ,Positiv,Glücklich,attribute_practice,attribute_practice,positive,m,m,1,1184151,1184541,1184541,446,none,none,none,none,1185011
10,new,melody_first,incompatible_first,compatible_first,ES_yellow,second_IAT_first_block,scream,compatible,4,change,attribute_practice,attribute_practice,attribute_practice,attribute_practice,attribute_practice,Negativ,Positiv,Schlecht,attribute_practice,attribute_practice,negative,c,c,1,1185582,1185971,1185972,450,none,none,none,none,1186441
10,new,melody_first,incompatible_first,compatible_first,ES_yellow,second_IAT_first_block,scream,compatible,5,change,attribute_practice,attribute_practice,attribute_practice,attribute_practice,attribute_practice,Negativ,Positiv,Liebe,attribute_practice,attribute_practice,positive,m,m,1,1186962,1187351,1187352,561,none,none,none,none,1187941
10,new,melody_first,incompatible_first,compatible_first,ES_yellow,second_IAT_first_block,scream,compatible,6,repetition,attribute_practice,attribute_practice,attribute_practice,attribute_practice,attribute_practice,Negativ,Positiv,Frieden,attribute_practice,attribute_practice,positive,m,m,1,1188451,1188841,1188841,597,none,none,none,none,1189461
10,new,melody_first,incompatible_first,compatible_first,ES_yellow,second_IAT_first_block,scream,compatible,7,repetition,attribute_practice,attribute_practice,attribute_practice,attribute_practice,attribute_practice,Negativ,Positiv,Glücklich,attribute_practice,attribute_practice,positive,m,m,1,1189971,1190361,1190361,410,none,none,none,none,1190791
10,new,melody_first,incompatible_first,compatible_first,ES_yellow,second_IAT_first_block,scream,compatible,8,change,attribute_practice,attribute_practice,attribute_practice,attribute_practice,attribute_practice,Negativ,Positiv,Trauer,attribute_practice,attribute_practice,negative,c,c,1,1191321,1191711,1191711,538,none,none,none,none,1192271
10,new,melody_first,incompatible_first,compatible_first,ES_yellow,second_IAT_first_block,scream,compatible,9,repetition,attribute_practice,attribute_practice,attribute_practice,attribute_practice,attribute_practice,Negativ,Positiv,Böse,attribute_practice,attribute_practice,negative,c,c,1,1192801,1193191,1193191,487,none,none,none,none,1193701
10,new,melody_first,incompatible_first,compatible_first,ES_yellow,second_IAT_first_block,scream,compatible,10,change,attribute_practice,attribute_practice,attribute_practice,attribute_practice,attribute_practice,Negativ,Positiv,Wundervoll,attribute_practice,attribute_practice,positive,m,m,1,1194221,1194611,1194611,398,none,none,none,none,1195031
10,new,melody_first,incompatible_first,compatible_first,ES_yellow,second_IAT_first_block,scream,compatible,11,repetition,attribute_practice,attribute_practice,attribute_practice,attribute_practice,attribute_practice,Negativ,Positiv,Wundervoll,attribute_practice,attribute_practice,positive,m,m,1,1195561,1195951,1195951,430,none,none,none,none,1196401
10,new,melody_first,incompatible_first,compatible_first,ES_yellow,second_IAT_first_block,scream,compatible,12,change,attribute_practice,attribute_practice,attribute_practice,attribute_practice,attribute_practice,Negativ,Positiv,Trauer,attribute_practice,attribute_practice,negative,c,c,1,1196931,1197321,1197321,461,none,none,none,none,1197811
10,new,melody_first,incompatible_first,compatible_first,ES_yellow,second_IAT_first_block,scream,compatible,13,change,attribute_practice,attribute_practice,attribute_practice,attribute_practice,attribute_practice,Negativ,Positiv,Spaß,attribute_practice,attribute_practice,positive,m,m,1,1198321,1198710,1198711,452,none,none,none,none,1199190
10,new,melody_first,incompatible_first,compatible_first,ES_yellow,second_IAT_first_block,scream,compatible,14,change,attribute_practice,attribute_practice,attribute_practice,attribute_practice,attribute_practice,Negativ,Positiv,Schmerz,attribute_practice,attribute_practice,negative,c,c,1,1199700,1200090,1200090,444,none,none,none,none,1200560
10,new,melody_first,incompatible_first,compatible_first,ES_yellow,second_IAT_first_block,scream,compatible,15,repetition,attribute_practice,attribute_practice,attribute_practice,attribute_practice,attribute_practice,Negativ,Positiv,Böse,attribute_practice,attribute_practice,negative,c,m,0,1201070,1201460,1201460,357,c,1,1201830,444,1202300
10,new,melody_first,incompatible_first,compatible_first,ES_yellow,second_IAT_first_block,scream,compatible,16,change,attribute_practice,attribute_practice,attribute_practice,attribute_practice,attribute_practice,Negativ,Positiv,Frieden,attribute_practice,attribute_practice,positive,m,m,1,1202820,1203210,1203210,492,none,none,none,none,1203721
10,new,melody_first,incompatible_first,compatible_first,ES_yellow,second_IAT_first_block,scream,compatible,17,repetition,attribute_practice,attribute_practice,attribute_practice,attribute_practice,attribute_practice,Negativ,Positiv,Spaß,attribute_practice,attribute_practice,positive,m,m,1,1204281,1204671,1204671,407,none,none,none,none,1205101
10,new,melody_first,incompatible_first,compatible_first,ES_yellow,second_IAT_first_block,scream,compatible,18,change,attribute_practice,attribute_practice,attribute_practice,attribute_practice,attribute_practice,Negativ,Positiv,Schmerz,attribute_practice,attribute_practice,negative,c,c,1,1205691,1206081,1206081,481,none,none,none,none,1206581
10,new,melody_first,incompatible_first,compatible_first,ES_yellow,second_IAT_first_block,scream,compatible,19,repetition,attribute_practice,attribute_practice,attribute_practice,attribute_practice,attribute_practice,Negativ,Positiv,Versagen,attribute_practice,attribute_practice,negative,c,c,1,1207151,1207541,1207541,1171,none,none,none,none,1208731
10,new,melody_first,incompatible_first,compatible_first,ES_yellow,second_IAT_first_block,scream,compatible,20,repetition,attribute_practice,attribute_practice,attribute_practice,attribute_practice,attribute_practice,Negativ,Positiv,Schlecht,attribute_practice,attribute_practice,negative,c,c,1,1209272,1209661,1209661,532,none,none,none,none,1210221
