subject_nr,contrast_group,iat_order,block_order_1,block_order_2,color_counter,which_IAT_which_block,current_contrast,current_comp,trialnr,trial_type,target_type,task_switch, response_switch,left_target,right_target,left_attribute,right_attribute,trial_target,target_color,target_role,attribute_valence,correct_response,response_first_response,correct_first_response,time_assignments_show,time_target_show,time_first_response,response_time_first_response,response_force_correct,correct_force_correct,time_force_correct,response_time_force_correct,time_logger
7,old,ending_first,incompatible_first,incompatible_first,ES_yellow,first_IAT_second_block,ending,compatible,0,NA,target_practice,target_practice,target_practice,Lila Wesen,Gelbe Wesen,target_practice,target_practice,IAT_purple1.bmp,purple,ending_melody,target_practice,c,C,1,1224957,1225347,1225348,281,none,none,none,none,1225657
7,old,ending_first,incompatible_first,incompatible_first,ES_yellow,first_IAT_second_block,ending,compatible,1,repetition,target_practice,target_practice,target_practice,Lila Wesen,Gelbe Wesen,target_practice,target_practice,IAT_purple4.bmp,purple,ending_melody,target_practice,c,M,0,1226217,1226607,1226607,50,C,1,1226667,350,1227037
7,old,ending_first,incompatible_first,incompatible_first,ES_yellow,first_IAT_second_block,ending,compatible,2,repetition,target_practice,target_practice,target_practice,Lila Wesen,Gelbe Wesen,target_practice,target_practice,IAT_purple2.bmp,purple,ending_melody,target_practice,c,M,0,1227607,1227997,1227997,343,C,1,1228357,1520,1229897
7,old,ending_first,incompatible_first,incompatible_first,ES_yellow,first_IAT_second_block,ending,compatible,3,change,target_practice,target_practice,target_practice,Lila Wesen,Gelbe Wesen,target_practice,target_practice,IAT_yellow1.bmp,yellow,ending_scream,target_practice,m,M,1,1230457,1230847,1230847,29,none,none,none,none,1230897
7,old,ending_first,incompatible_first,incompatible_first,ES_yellow,first_IAT_second_block,ending,compatible,4,change,target_practice,target_practice,target_practice,Lila Wesen,Gelbe Wesen,target_practice,target_practice,IAT_purple3.bmp,purple,ending_melody,target_practice,c,C,1,1231467,1231857,1231857,398,none,none,none,none,1232277
7,old,ending_first,incompatible_first,incompatible_first,ES_yellow,first_IAT_second_block,ending,compatible,5,repetition,target_practice,target_practice,target_practice,Lila Wesen,Gelbe Wesen,target_practice,target_practice,IAT_purple3.bmp,purple,ending_melody,target_practice,c,M,0,1232878,1233267,1233267,15,C,1,1233297,374,1233697
7,old,ending_first,incompatible_first,incompatible_first,ES_yellow,first_IAT_second_block,ending,compatible,6,change,target_practice,target_practice,target_practice,Lila Wesen,Gelbe Wesen,target_practice,target_practice,IAT_yellow1.bmp,yellow,ending_scream,target_practice,m,M,1,1234257,1234647,1234647,16,none,none,none,none,1234687
7,old,ending_first,incompatible_first,incompatible_first,ES_yellow,first_IAT_second_block,ending,compatible,7,repetition,target_practice,target_practice,target_practice,Lila Wesen,Gelbe Wesen,target_practice,target_practice,IAT_yellow3.bmp,yellow,ending_scream,target_practice,m,C,0,1235307,1235696,1235697,537,M,1,1236247,223,1236497
7,old,ending_first,incompatible_first,incompatible_first,ES_yellow,first_IAT_second_block,ending,compatible,8,repetition,target_practice,target_practice,target_practice,Lila Wesen,Gelbe Wesen,target_practice,target_practice,IAT_yellow3.bmp,yellow,ending_scream,target_practice,m,C,0,1237056,1237446,1237447,204,M,1,1237666,207,1237896
7,old,ending_first,incompatible_first,incompatible_first,ES_yellow,first_IAT_second_block,ending,compatible,9,change,target_practice,target_practice,target_practice,Lila Wesen,Gelbe Wesen,target_practice,target_practice,IAT_purple4.bmp,purple,ending_melody,target_practice,c,M,0,1238457,1238847,1238848,306,C,1,1239167,517,1239707
7,old,ending_first,incompatible_first,incompatible_first,ES_yellow,first_IAT_second_block,ending,compatible,10,change,target_practice,target_practice,target_practice,Lila Wesen,Gelbe Wesen,target_practice,target_practice,IAT_yellow3.bmp,yellow,ending_scream,target_practice,m,C,0,1240267,1240657,1240657,138,M,1,1240807,201,1241027
7,old,ending_first,incompatible_first,incompatible_first,ES_yellow,first_IAT_second_block,ending,compatible,11,repetition,target_practice,target_practice,target_practice,Lila Wesen,Gelbe Wesen,target_practice,target_practice,IAT_yellow2.bmp,yellow,ending_scream,target_practice,m,M,1,1241587,1241977,1241977,262,none,none,none,none,1242267
7,old,ending_first,incompatible_first,incompatible_first,ES_yellow,first_IAT_second_block,ending,compatible,12,change,target_practice,target_practice,target_practice,Lila Wesen,Gelbe Wesen,target_practice,target_practice,IAT_purple4.bmp,purple,ending_melody,target_practice,c,C,1,1242847,1243237,1243237,66,none,none,none,none,1243327
7,old,ending_first,incompatible_first,incompatible_first,ES_yellow,first_IAT_second_block,ending,compatible,13,change,target_practice,target_practice,target_practice,Lila Wesen,Gelbe Wesen,target_practice,target_practice,IAT_yellow4.bmp,yellow,ending_scream,target_practice,m,C,0,1243887,1244277,1244277,143,M,1,1244437,963,1245427
7,old,ending_first,incompatible_first,incompatible_first,ES_yellow,first_IAT_second_block,ending,compatible,14,repetition,target_practice,target_practice,target_practice,Lila Wesen,Gelbe Wesen,target_practice,target_practice,IAT_yellow2.bmp,yellow,ending_scream,target_practice,m,C,0,1245987,1246377,1246377,8,M,1,1246397,1234,1247657
7,old,ending_first,incompatible_first,incompatible_first,ES_yellow,first_IAT_second_block,ending,compatible,15,change,target_practice,target_practice,target_practice,Lila Wesen,Gelbe Wesen,target_practice,target_practice,IAT_purple2.bmp,purple,ending_melody,target_practice,c,M,0,1248217,1248606,1248607,130,C,1,1248747,588,1249357
7,old,ending_first,incompatible_first,incompatible_first,ES_yellow,first_IAT_second_block,ending,compatible,16,change,target_practice,target_practice,target_practice,Lila Wesen,Gelbe Wesen,target_practice,target_practice,IAT_yellow4.bmp,yellow,ending_scream,target_practice,m,M,1,1249936,1250326,1250327,444,none,none,none,none,1250796
7,old,ending_first,incompatible_first,incompatible_first,ES_yellow,first_IAT_second_block,ending,compatible,17,repetition,target_practice,target_practice,target_practice,Lila Wesen,Gelbe Wesen,target_practice,target_practice,IAT_yellow4.bmp,yellow,ending_scream,target_practice,m,C,0,1251396,1251786,1251787,159,M,1,1251956,632,1252616
7,old,ending_first,incompatible_first,incompatible_first,ES_yellow,first_IAT_second_block,ending,compatible,18,repetition,target_practice,target_practice,target_practice,Lila Wesen,Gelbe Wesen,target_practice,target_practice,IAT_yellow1.bmp,yellow,ending_scream,target_practice,m,C,0,1253276,1253666,1253666,1308,M,1,1254986,197,1255206
7,old,ending_first,incompatible_first,incompatible_first,ES_yellow,first_IAT_second_block,ending,compatible,19,change,target_practice,target_practice,target_practice,Lila Wesen,Gelbe Wesen,target_practice,target_practice,IAT_purple1.bmp,purple,ending_melody,target_practice,c,C,1,1255870,1256267,1256267,315,none,none,none,none,1256607
7,old,ending_first,incompatible_first,incompatible_first,ES_yellow,first_IAT_second_block,ending,compatible,20,repetition,target_practice,target_practice,target_practice,Lila Wesen,Gelbe Wesen,target_practice,target_practice,IAT_purple2.bmp,purple,ending_melody,target_practice,c,C,1,1257187,1257577,1257577,195,none,none,none,none,1257797
