subject_nr,contrast_group,iat_order,block_order_1,block_order_2,color_counter,which_IAT_which_block,current_contrast,current_comp,trialnr,trial_type,target_type,task_switch, response_switch,left_target,right_target,left_attribute,right_attribute,trial_target,target_color,target_role,attribute_valence,correct_response,response_first_response,correct_first_response,time_assignments_show,time_target_show,time_first_response,response_time_first_response,response_force_correct,correct_force_correct,time_force_correct,response_time_force_correct,time_logger
48,new,melody_first,incompatible_first,compatible_first,ES_purple,first_IAT_first_block,melody,incompatible,0,none,attribute,NA,NA,Grüne Wesen,Gelbe Wesen,Negativ,Positiv,Freude,NA,NA,positive,m,m,1,1147872,1148268,1148268,778,none,none,none,none,1149068
48,new,melody_first,incompatible_first,compatible_first,ES_purple,first_IAT_first_block,melody,incompatible,1,none,target,task_switch,response_switch,Grüne Wesen,Gelbe Wesen,Negativ,Positiv,IAT_green4.bmp,green,starting_melody,NA,c,c,1,1149778,1150168,1150168,493,none,none,none,none,1150688
48,new,melody_first,incompatible_first,compatible_first,ES_purple,first_IAT_first_block,melody,incompatible,2,none,attribute,task_switch,response_switch,Grüne Wesen,Gelbe Wesen,Negativ,Positiv,Spaß,NA,NA,positive,m,m,1,1151419,1151809,1151809,795,none,none,none,none,1152629
48,new,melody_first,incompatible_first,compatible_first,ES_purple,first_IAT_first_block,melody,incompatible,3,none,attribute,task_repetition,response_switch,Grüne Wesen,Gelbe Wesen,Negativ,Positiv,Schlecht,NA,NA,negative,c,c,1,1153359,1153749,1153749,526,none,none,none,none,1154299
48,new,melody_first,incompatible_first,compatible_first,ES_purple,first_IAT_first_block,melody,incompatible,4,none,attribute,task_repetition,response_switch,Grüne Wesen,Gelbe Wesen,Negativ,Positiv,Frieden,NA,NA,positive,m,m,1,1155039,1155429,1155429,657,none,none,none,none,1156109
48,new,melody_first,incompatible_first,compatible_first,ES_purple,first_IAT_first_block,melody,incompatible,5,none,attribute,task_repetition,response_repetition,Grüne Wesen,Gelbe Wesen,Negativ,Positiv,Wundervoll,NA,NA,positive,m,m,1,1156859,1157248,1157249,563,none,none,none,none,1157839
48,new,melody_first,incompatible_first,compatible_first,ES_purple,first_IAT_first_block,melody,incompatible,6,none,attribute,task_repetition,response_switch,Grüne Wesen,Gelbe Wesen,Negativ,Positiv,Trauer,NA,NA,negative,c,c,1,1158578,1158968,1158969,559,none,none,none,none,1159548
48,new,melody_first,incompatible_first,compatible_first,ES_purple,first_IAT_first_block,melody,incompatible,7,none,attribute,task_repetition,response_repetition,Grüne Wesen,Gelbe Wesen,Negativ,Positiv,Versagen,NA,NA,negative,c,c,1,1160268,1160658,1160658,556,none,none,none,none,1161238
48,new,melody_first,incompatible_first,compatible_first,ES_purple,first_IAT_first_block,melody,incompatible,8,none,target,task_switch,response_switch,Grüne Wesen,Gelbe Wesen,Negativ,Positiv,IAT_yellow1.bmp,yellow,ending_melody,NA,m,m,1,1161938,1162328,1162328,443,none,none,none,none,1162798
48,new,melody_first,incompatible_first,compatible_first,ES_purple,first_IAT_first_block,melody,incompatible,9,none,attribute,task_switch,response_repetition,Grüne Wesen,Gelbe Wesen,Negativ,Positiv,Freude,NA,NA,positive,m,m,1,1163558,1163948,1163948,547,none,none,none,none,1164518
48,new,melody_first,incompatible_first,compatible_first,ES_purple,first_IAT_first_block,melody,incompatible,10,none,attribute,task_repetition,response_switch,Grüne Wesen,Gelbe Wesen,Negativ,Positiv,Bedrohung,NA,NA,negative,c,c,1,1165258,1165648,1165648,560,none,none,none,none,1166228
48,new,melody_first,incompatible_first,compatible_first,ES_purple,first_IAT_first_block,melody,incompatible,11,none,attribute,task_repetition,response_repetition,Grüne Wesen,Gelbe Wesen,Negativ,Positiv,Böse,NA,NA,negative,c,c,1,1167028,1167418,1167418,680,none,none,none,none,1168118
48,new,melody_first,incompatible_first,compatible_first,ES_purple,first_IAT_first_block,melody,incompatible,12,none,target,task_switch,response_switch,Grüne Wesen,Gelbe Wesen,Negativ,Positiv,IAT_yellow3.bmp,yellow,ending_melody,NA,m,m,1,1168879,1169269,1169269,602,none,none,none,none,1169899
48,new,melody_first,incompatible_first,compatible_first,ES_purple,first_IAT_first_block,melody,incompatible,13,none,target,task_repetition,response_repetition,Grüne Wesen,Gelbe Wesen,Negativ,Positiv,IAT_yellow4.bmp,yellow,ending_melody,NA,m,m,1,1170693,1171088,1171089,391,none,none,none,none,1171508
48,new,melody_first,incompatible_first,compatible_first,ES_purple,first_IAT_first_block,melody,incompatible,14,none,attribute,task_switch,response_switch,Grüne Wesen,Gelbe Wesen,Negativ,Positiv,Schmerz,NA,NA,negative,c,c,1,1172238,1172628,1172628,429,none,none,none,none,1173078
48,new,melody_first,incompatible_first,compatible_first,ES_purple,first_IAT_first_block,melody,incompatible,15,none,target,task_switch,response_repetition,Grüne Wesen,Gelbe Wesen,Negativ,Positiv,IAT_green3.bmp,green,starting_melody,NA,c,c,1,1173788,1174178,1174178,693,none,none,none,none,1174898
48,new,melody_first,incompatible_first,compatible_first,ES_purple,first_IAT_first_block,melody,incompatible,16,none,target,task_repetition,response_switch,Grüne Wesen,Gelbe Wesen,Negativ,Positiv,IAT_yellow2.bmp,yellow,ending_melody,NA,m,m,1,1175598,1175988,1175988,602,none,none,none,none,1176618
48,new,melody_first,incompatible_first,compatible_first,ES_purple,first_IAT_first_block,melody,incompatible,17,none,target,task_repetition,response_repetition,Grüne Wesen,Gelbe Wesen,Negativ,Positiv,IAT_yellow1.bmp,yellow,ending_melody,NA,m,m,1,1177318,1177708,1177708,445,none,none,none,none,1178178
48,new,melody_first,incompatible_first,compatible_first,ES_purple,first_IAT_first_block,melody,incompatible,18,none,target,task_repetition,response_repetition,Grüne Wesen,Gelbe Wesen,Negativ,Positiv,IAT_yellow4.bmp,yellow,ending_melody,NA,m,m,1,1178908,1179298,1179298,479,none,none,none,none,1179798
48,new,melody_first,incompatible_first,compatible_first,ES_purple,first_IAT_first_block,melody,incompatible,19,none,target,task_repetition,response_switch,Grüne Wesen,Gelbe Wesen,Negativ,Positiv,IAT_green2.bmp,green,starting_melody,NA,c,c,1,1180518,1180908,1180908,543,none,none,none,none,1181478
48,new,melody_first,incompatible_first,compatible_first,ES_purple,first_IAT_first_block,melody,incompatible,20,none,attribute,task_switch,response_repetition,Grüne Wesen,Gelbe Wesen,Negativ,Positiv,Schlecht,NA,NA,negative,c,c,1,1182207,1182597,1182598,420,none,none,none,none,1183037
48,new,melody_first,incompatible_first,compatible_first,ES_purple,first_IAT_first_block,melody,incompatible,21,none,attribute,task_repetition,response_switch,Grüne Wesen,Gelbe Wesen,Negativ,Positiv,Glücklich,NA,NA,positive,m,m,1,1183767,1184157,1184157,846,none,none,none,none,1185027
48,new,melody_first,incompatible_first,compatible_first,ES_purple,first_IAT_first_block,melody,incompatible,22,none,target,task_switch,response_switch,Grüne Wesen,Gelbe Wesen,Negativ,Positiv,IAT_green1.bmp,green,starting_melody,NA,c,c,1,1185727,1186118,1186118,551,none,none,none,none,1186688
48,new,melody_first,incompatible_first,compatible_first,ES_purple,first_IAT_first_block,melody,incompatible,23,none,attribute,task_switch,response_repetition,Grüne Wesen,Gelbe Wesen,Negativ,Positiv,Versagen,NA,NA,negative,c,c,1,1187408,1187798,1187798,968,none,none,none,none,1188788
48,new,melody_first,incompatible_first,compatible_first,ES_purple,first_IAT_first_block,melody,incompatible,24,none,attribute,task_repetition,response_switch,Grüne Wesen,Gelbe Wesen,Negativ,Positiv,Liebe,NA,NA,positive,m,m,1,1189558,1189948,1189948,529,none,none,none,none,1190498
48,new,melody_first,incompatible_first,compatible_first,ES_purple,first_IAT_first_block,melody,incompatible,25,none,target,task_switch,response_repetition,Grüne Wesen,Gelbe Wesen,Negativ,Positiv,IAT_yellow2.bmp,yellow,ending_melody,NA,m,m,1,1191198,1191588,1191588,583,none,none,none,none,1192198
48,new,melody_first,incompatible_first,compatible_first,ES_purple,first_IAT_first_block,melody,incompatible,26,none,attribute,task_switch,response_switch,Grüne Wesen,Gelbe Wesen,Negativ,Positiv,Böse,NA,NA,negative,c,c,1,1192948,1193338,1193338,807,none,none,none,none,1194168
48,new,melody_first,incompatible_first,compatible_first,ES_purple,first_IAT_first_block,melody,incompatible,27,none,target,task_switch,response_repetition,Grüne Wesen,Gelbe Wesen,Negativ,Positiv,IAT_green1.bmp,green,starting_melody,NA,c,c,1,1194961,1195357,1195358,544,none,none,none,none,1195927
48,new,melody_first,incompatible_first,compatible_first,ES_purple,first_IAT_first_block,melody,incompatible,28,none,target,task_repetition,response_repetition,Grüne Wesen,Gelbe Wesen,Negativ,Positiv,IAT_green2.bmp,green,starting_melody,NA,c,c,1,1196648,1197037,1197037,510,none,none,none,none,1197567
48,new,melody_first,incompatible_first,compatible_first,ES_purple,first_IAT_first_block,melody,incompatible,29,none,attribute,task_switch,response_repetition,Grüne Wesen,Gelbe Wesen,Negativ,Positiv,Schmerz,NA,NA,negative,c,c,1,1198287,1198677,1198677,628,none,none,none,none,1199327
48,new,melody_first,incompatible_first,compatible_first,ES_purple,first_IAT_first_block,melody,incompatible,30,none,target,task_switch,response_repetition,Grüne Wesen,Gelbe Wesen,Negativ,Positiv,IAT_green4.bmp,green,starting_melody,NA,c,c,1,1200017,1200407,1200407,431,none,none,none,none,1200857
48,new,melody_first,incompatible_first,compatible_first,ES_purple,first_IAT_first_block,melody,incompatible,31,none,attribute,task_switch,response_switch,Grüne Wesen,Gelbe Wesen,Negativ,Positiv,Freude,NA,NA,positive,m,m,1,1201617,1202007,1202007,699,none,none,none,none,1202727
48,new,melody_first,incompatible_first,compatible_first,ES_purple,first_IAT_first_block,melody,incompatible,32,none,target,task_switch,response_repetition,Grüne Wesen,Gelbe Wesen,Negativ,Positiv,IAT_yellow3.bmp,yellow,ending_melody,NA,m,m,1,1203458,1203848,1203848,639,none,none,none,none,1204508
48,new,melody_first,incompatible_first,compatible_first,ES_purple,first_IAT_first_block,melody,incompatible,33,none,attribute,task_switch,response_repetition,Grüne Wesen,Gelbe Wesen,Negativ,Positiv,Liebe,NA,NA,positive,m,m,1,1205228,1205618,1205618,744,none,none,none,none,1206388
48,new,melody_first,incompatible_first,compatible_first,ES_purple,first_IAT_first_block,melody,incompatible,34,none,attribute,task_repetition,response_repetition,Grüne Wesen,Gelbe Wesen,Negativ,Positiv,Glücklich,NA,NA,positive,m,m,1,1207108,1207497,1207498,586,none,none,none,none,1208107
48,new,melody_first,incompatible_first,compatible_first,ES_purple,first_IAT_first_block,melody,incompatible,35,none,target,task_switch,response_switch,Grüne Wesen,Gelbe Wesen,Negativ,Positiv,IAT_green3.bmp,green,starting_melody,NA,c,c,1,1208827,1209217,1209217,408,none,none,none,none,1209647
48,new,melody_first,incompatible_first,compatible_first,ES_purple,first_IAT_first_block,melody,incompatible,36,none,attribute,task_switch,response_switch,Grüne Wesen,Gelbe Wesen,Negativ,Positiv,Spaß,NA,NA,positive,m,m,1,1210367,1210757,1210757,558,none,none,none,none,1211337
48,new,melody_first,incompatible_first,compatible_first,ES_purple,first_IAT_first_block,melody,incompatible,37,none,target,task_switch,response_repetition,Grüne Wesen,Gelbe Wesen,Negativ,Positiv,IAT_yellow2.bmp,yellow,ending_melody,NA,m,m,1,1212037,1212427,1212427,574,none,none,none,none,1213027
48,new,melody_first,incompatible_first,compatible_first,ES_purple,first_IAT_first_block,melody,incompatible,38,none,target,task_repetition,response_switch,Grüne Wesen,Gelbe Wesen,Negativ,Positiv,IAT_green4.bmp,green,starting_melody,NA,c,c,1,1213747,1214137,1214137,484,none,none,none,none,1214647
48,new,melody_first,incompatible_first,compatible_first,ES_purple,first_IAT_first_block,melody,incompatible,39,none,target,task_repetition,response_repetition,Grüne Wesen,Gelbe Wesen,Negativ,Positiv,IAT_green3.bmp,green,starting_melody,NA,c,c,1,1215347,1215737,1215737,557,none,none,none,none,1216317
48,new,melody_first,incompatible_first,compatible_first,ES_purple,first_IAT_first_block,melody,incompatible,40,none,target,task_repetition,response_repetition,Grüne Wesen,Gelbe Wesen,Negativ,Positiv,IAT_green2.bmp,green,starting_melody,NA,c,c,1,1217047,1217437,1217437,453,none,none,none,none,1217917
48,new,melody_first,incompatible_first,compatible_first,ES_purple,first_IAT_first_block,melody,incompatible,41,none,target,task_repetition,response_switch,Grüne Wesen,Gelbe Wesen,Negativ,Positiv,IAT_yellow1.bmp,yellow,ending_melody,NA,m,m,1,1218680,1219076,1219077,508,none,none,none,none,1219606
48,new,melody_first,incompatible_first,compatible_first,ES_purple,first_IAT_first_block,melody,incompatible,42,none,target,task_repetition,response_switch,Grüne Wesen,Gelbe Wesen,Negativ,Positiv,IAT_green1.bmp,green,starting_melody,NA,c,c,1,1220306,1220696,1220696,534,none,none,none,none,1221257
48,new,melody_first,incompatible_first,compatible_first,ES_purple,first_IAT_first_block,melody,incompatible,43,none,target,task_repetition,response_switch,Grüne Wesen,Gelbe Wesen,Negativ,Positiv,IAT_yellow3.bmp,yellow,ending_melody,NA,m,m,1,1221957,1222347,1222347,509,none,none,none,none,1222877
48,new,melody_first,incompatible_first,compatible_first,ES_purple,first_IAT_first_block,melody,incompatible,44,none,attribute,task_switch,response_switch,Grüne Wesen,Gelbe Wesen,Negativ,Positiv,Trauer,NA,NA,negative,c,c,1,1223647,1224037,1224037,626,none,none,none,none,1224687
48,new,melody_first,incompatible_first,compatible_first,ES_purple,first_IAT_first_block,melody,incompatible,45,none,attribute,task_repetition,response_repetition,Grüne Wesen,Gelbe Wesen,Negativ,Positiv,Bedrohung,NA,NA,negative,c,c,1,1225417,1225807,1225807,983,none,none,none,none,1226817
48,new,melody_first,incompatible_first,compatible_first,ES_purple,first_IAT_first_block,melody,incompatible,46,none,target,task_switch,response_switch,Grüne Wesen,Gelbe Wesen,Negativ,Positiv,IAT_yellow4.bmp,yellow,ending_melody,NA,m,m,1,1227537,1227927,1227927,553,none,none,none,none,1228507
48,new,melody_first,incompatible_first,compatible_first,ES_purple,first_IAT_first_block,melody,incompatible,47,none,attribute,task_switch,response_repetition,Grüne Wesen,Gelbe Wesen,Negativ,Positiv,Frieden,NA,NA,positive,m,m,1,1229237,1229627,1229627,517,none,none,none,none,1230167
48,new,melody_first,incompatible_first,compatible_first,ES_purple,first_IAT_first_block,melody,incompatible,48,none,attribute,task_repetition,response_repetition,Grüne Wesen,Gelbe Wesen,Negativ,Positiv,Wundervoll,NA,NA,positive,m,m,1,1230896,1231286,1231287,684,none,none,none,none,1231996
