subject_nr,contrast_group,iat_order,block_order_1,block_order_2,color_counter,which_IAT_which_block,current_contrast,current_comp,trialnr,trial_type,target_type,task_switch, response_switch,left_target,right_target,left_attribute,right_attribute,trial_target,target_color,target_role,attribute_valence,correct_response,response_first_response,correct_first_response,time_assignments_show,time_target_show,time_first_response,response_time_first_response,response_force_correct,correct_force_correct,time_force_correct,response_time_force_correct,time_logger
37,old,starting_first,incompatible_first,incompatible_first,ES_yellow,second_IAT_first_block,ending,incompatible,0,none,attribute,NA,NA,Gelbe Wesen,Lila Wesen,Negativ,Positiv,Schlecht,NA,NA,negative,c,c,1,1301125,1301515,1301515,595,none,none,none,none,1302135
37,old,starting_first,incompatible_first,incompatible_first,ES_yellow,second_IAT_first_block,ending,incompatible,1,none,target,task_switch,response_repetition,Gelbe Wesen,Lila Wesen,Negativ,Positiv,IAT_yellow1.bmp,yellow,ending_scream,NA,c,c,1,1302835,1303225,1303225,360,none,none,none,none,1303605
37,old,starting_first,incompatible_first,incompatible_first,ES_yellow,second_IAT_first_block,ending,incompatible,2,none,target,task_repetition,response_repetition,Gelbe Wesen,Lila Wesen,Negativ,Positiv,IAT_yellow4.bmp,yellow,ending_scream,NA,c,c,1,1304295,1304684,1304685,303,none,none,none,none,1305015
37,old,starting_first,incompatible_first,incompatible_first,ES_yellow,second_IAT_first_block,ending,incompatible,3,none,target,task_repetition,response_switch,Gelbe Wesen,Lila Wesen,Negativ,Positiv,IAT_purple1.bmp,purple,ending_melody,NA,m,m,1,1305704,1306094,1306095,331,none,none,none,none,1306444
37,old,starting_first,incompatible_first,incompatible_first,ES_yellow,second_IAT_first_block,ending,incompatible,4,none,attribute,task_switch,response_repetition,Gelbe Wesen,Lila Wesen,Negativ,Positiv,Glücklich,NA,NA,positive,m,m,1,1307164,1307554,1307555,333,none,none,none,none,1307914
37,old,starting_first,incompatible_first,incompatible_first,ES_yellow,second_IAT_first_block,ending,incompatible,5,none,target,task_switch,response_repetition,Gelbe Wesen,Lila Wesen,Negativ,Positiv,IAT_purple4.bmp,purple,ending_melody,NA,m,m,1,1308645,1309035,1309036,381,none,none,none,none,1309445
37,old,starting_first,incompatible_first,incompatible_first,ES_yellow,second_IAT_first_block,ending,incompatible,6,none,target,task_repetition,response_repetition,Gelbe Wesen,Lila Wesen,Negativ,Positiv,IAT_purple3.bmp,purple,ending_melody,NA,m,m,1,1310205,1310595,1310595,310,none,none,none,none,1310925
37,old,starting_first,incompatible_first,incompatible_first,ES_yellow,second_IAT_first_block,ending,incompatible,7,none,attribute,task_switch,response_repetition,Gelbe Wesen,Lila Wesen,Negativ,Positiv,Spaß,NA,NA,positive,m,c,0,1311686,1312075,1312075,414,m,1,1312505,487,1313015
37,old,starting_first,incompatible_first,incompatible_first,ES_yellow,second_IAT_first_block,ending,incompatible,8,none,attribute,task_repetition,response_switch,Gelbe Wesen,Lila Wesen,Negativ,Positiv,Böse,NA,NA,negative,c,c,1,1313735,1314125,1314125,390,none,none,none,none,1314535
37,old,starting_first,incompatible_first,incompatible_first,ES_yellow,second_IAT_first_block,ending,incompatible,9,none,attribute,task_repetition,response_switch,Gelbe Wesen,Lila Wesen,Negativ,Positiv,Wundervoll,NA,NA,positive,m,m,1,1315255,1315645,1315645,453,none,none,none,none,1316125
37,old,starting_first,incompatible_first,incompatible_first,ES_yellow,second_IAT_first_block,ending,incompatible,10,none,attribute,task_repetition,response_repetition,Gelbe Wesen,Lila Wesen,Negativ,Positiv,Freude,NA,NA,positive,m,m,1,1316845,1317235,1317235,491,none,none,none,none,1317755
37,old,starting_first,incompatible_first,incompatible_first,ES_yellow,second_IAT_first_block,ending,incompatible,11,none,target,task_switch,response_switch,Gelbe Wesen,Lila Wesen,Negativ,Positiv,IAT_yellow2.bmp,yellow,ending_scream,NA,c,c,1,1318455,1318845,1318845,409,none,none,none,none,1319275
37,old,starting_first,incompatible_first,incompatible_first,ES_yellow,second_IAT_first_block,ending,incompatible,12,none,attribute,task_switch,response_switch,Gelbe Wesen,Lila Wesen,Negativ,Positiv,Liebe,NA,NA,positive,m,m,1,1319995,1320385,1320385,590,none,none,none,none,1320995
37,old,starting_first,incompatible_first,incompatible_first,ES_yellow,second_IAT_first_block,ending,incompatible,13,none,target,task_switch,response_switch,Gelbe Wesen,Lila Wesen,Negativ,Positiv,IAT_yellow3.bmp,yellow,ending_scream,NA,c,c,1,1321694,1322084,1322085,355,none,none,none,none,1322464
37,old,starting_first,incompatible_first,incompatible_first,ES_yellow,second_IAT_first_block,ending,incompatible,14,none,target,task_repetition,response_repetition,Gelbe Wesen,Lila Wesen,Negativ,Positiv,IAT_yellow4.bmp,yellow,ending_scream,NA,c,c,1,1323164,1323554,1323555,339,none,none,none,none,1323914
37,old,starting_first,incompatible_first,incompatible_first,ES_yellow,second_IAT_first_block,ending,incompatible,15,none,target,task_repetition,response_switch,Gelbe Wesen,Lila Wesen,Negativ,Positiv,IAT_purple2.bmp,purple,ending_melody,NA,m,m,1,1324614,1325004,1325005,355,none,none,none,none,1325384
37,old,starting_first,incompatible_first,incompatible_first,ES_yellow,second_IAT_first_block,ending,incompatible,16,none,attribute,task_switch,response_switch,Gelbe Wesen,Lila Wesen,Negativ,Positiv,Bedrohung,NA,NA,negative,c,m,0,1326125,1326515,1326515,505,c,1,1327035,563,1327625
37,old,starting_first,incompatible_first,incompatible_first,ES_yellow,second_IAT_first_block,ending,incompatible,17,none,target,task_switch,response_repetition,Gelbe Wesen,Lila Wesen,Negativ,Positiv,IAT_yellow2.bmp,yellow,ending_scream,NA,c,c,1,1328355,1328745,1328745,400,none,none,none,none,1329165
37,old,starting_first,incompatible_first,incompatible_first,ES_yellow,second_IAT_first_block,ending,incompatible,18,none,target,task_repetition,response_switch,Gelbe Wesen,Lila Wesen,Negativ,Positiv,IAT_purple1.bmp,purple,ending_melody,NA,m,c,0,1329915,1330305,1330305,411,m,1,1330725,428,1331175
37,old,starting_first,incompatible_first,incompatible_first,ES_yellow,second_IAT_first_block,ending,incompatible,19,none,target,task_repetition,response_switch,Gelbe Wesen,Lila Wesen,Negativ,Positiv,IAT_yellow1.bmp,yellow,ending_scream,NA,c,c,1,1331925,1332315,1332315,547,none,none,none,none,1332885
37,old,starting_first,incompatible_first,incompatible_first,ES_yellow,second_IAT_first_block,ending,incompatible,20,none,attribute,task_switch,response_repetition,Gelbe Wesen,Lila Wesen,Negativ,Positiv,Versagen,NA,NA,negative,c,c,1,1333677,1334065,1334065,478,none,none,none,none,1334565
37,old,starting_first,incompatible_first,incompatible_first,ES_yellow,second_IAT_first_block,ending,incompatible,21,none,attribute,task_repetition,response_repetition,Gelbe Wesen,Lila Wesen,Negativ,Positiv,Trauer,NA,NA,negative,c,c,1,1335285,1335675,1335675,465,none,none,none,none,1336165
37,old,starting_first,incompatible_first,incompatible_first,ES_yellow,second_IAT_first_block,ending,incompatible,22,none,attribute,task_repetition,response_repetition,Gelbe Wesen,Lila Wesen,Negativ,Positiv,Schlecht,NA,NA,negative,c,c,1,1336895,1337285,1337285,345,none,none,none,none,1337655
37,old,starting_first,incompatible_first,incompatible_first,ES_yellow,second_IAT_first_block,ending,incompatible,23,none,attribute,task_repetition,response_switch,Gelbe Wesen,Lila Wesen,Negativ,Positiv,Frieden,NA,NA,positive,m,m,1,1338394,1338784,1338785,363,none,none,none,none,1339174
37,old,starting_first,incompatible_first,incompatible_first,ES_yellow,second_IAT_first_block,ending,incompatible,24,none,attribute,task_repetition,response_switch,Gelbe Wesen,Lila Wesen,Negativ,Positiv,Schmerz,NA,NA,negative,c,c,1,1339894,1340284,1340285,506,none,none,none,none,1340814
37,old,starting_first,incompatible_first,incompatible_first,ES_yellow,second_IAT_first_block,ending,incompatible,25,none,target,task_switch,response_switch,Gelbe Wesen,Lila Wesen,Negativ,Positiv,IAT_purple2.bmp,purple,ending_melody,NA,m,m,1,1341514,1341904,1341905,479,none,none,none,none,1342404
37,old,starting_first,incompatible_first,incompatible_first,ES_yellow,second_IAT_first_block,ending,incompatible,26,none,target,task_repetition,response_switch,Gelbe Wesen,Lila Wesen,Negativ,Positiv,IAT_yellow3.bmp,yellow,ending_scream,NA,c,c,1,1343114,1343505,1343505,317,none,none,none,none,1343845
37,old,starting_first,incompatible_first,incompatible_first,ES_yellow,second_IAT_first_block,ending,incompatible,27,none,attribute,task_switch,response_switch,Gelbe Wesen,Lila Wesen,Negativ,Positiv,Spaß,NA,NA,positive,m,m,1,1344566,1344955,1344955,426,none,none,none,none,1345405
37,old,starting_first,incompatible_first,incompatible_first,ES_yellow,second_IAT_first_block,ending,incompatible,28,none,target,task_switch,response_switch,Gelbe Wesen,Lila Wesen,Negativ,Positiv,IAT_yellow1.bmp,yellow,ending_scream,NA,c,c,1,1346105,1346495,1346495,364,none,none,none,none,1346885
37,old,starting_first,incompatible_first,incompatible_first,ES_yellow,second_IAT_first_block,ending,incompatible,29,none,attribute,task_switch,response_repetition,Gelbe Wesen,Lila Wesen,Negativ,Positiv,Schmerz,NA,NA,negative,c,c,1,1347605,1347995,1347995,379,none,none,none,none,1348395
37,old,starting_first,incompatible_first,incompatible_first,ES_yellow,second_IAT_first_block,ending,incompatible,30,none,attribute,task_repetition,response_repetition,Gelbe Wesen,Lila Wesen,Negativ,Positiv,Versagen,NA,NA,negative,c,c,1,1349115,1349505,1349505,366,none,none,none,none,1349895
37,old,starting_first,incompatible_first,incompatible_first,ES_yellow,second_IAT_first_block,ending,incompatible,31,none,target,task_switch,response_switch,Gelbe Wesen,Lila Wesen,Negativ,Positiv,IAT_purple4.bmp,purple,ending_melody,NA,m,m,1,1350595,1350985,1350985,361,none,none,none,none,1351365
37,old,starting_first,incompatible_first,incompatible_first,ES_yellow,second_IAT_first_block,ending,incompatible,32,none,target,task_repetition,response_repetition,Gelbe Wesen,Lila Wesen,Negativ,Positiv,IAT_purple3.bmp,purple,ending_melody,NA,m,m,1,1352075,1352465,1352465,351,none,none,none,none,1352845
37,old,starting_first,incompatible_first,incompatible_first,ES_yellow,second_IAT_first_block,ending,incompatible,33,none,target,task_repetition,response_switch,Gelbe Wesen,Lila Wesen,Negativ,Positiv,IAT_yellow2.bmp,yellow,ending_scream,NA,c,c,1,1353555,1353945,1353945,330,none,none,none,none,1354295
37,old,starting_first,incompatible_first,incompatible_first,ES_yellow,second_IAT_first_block,ending,incompatible,34,none,target,task_repetition,response_repetition,Gelbe Wesen,Lila Wesen,Negativ,Positiv,IAT_yellow3.bmp,yellow,ending_scream,NA,c,c,1,1355146,1355534,1355535,304,none,none,none,none,1355864
37,old,starting_first,incompatible_first,incompatible_first,ES_yellow,second_IAT_first_block,ending,incompatible,35,none,attribute,task_switch,response_switch,Gelbe Wesen,Lila Wesen,Negativ,Positiv,Glücklich,NA,NA,positive,m,m,1,1356584,1356974,1356975,476,none,none,none,none,1357474
37,old,starting_first,incompatible_first,incompatible_first,ES_yellow,second_IAT_first_block,ending,incompatible,36,none,attribute,task_repetition,response_repetition,Gelbe Wesen,Lila Wesen,Negativ,Positiv,Freude,NA,NA,positive,m,m,1,1358195,1358584,1358585,343,none,none,none,none,1358954
37,old,starting_first,incompatible_first,incompatible_first,ES_yellow,second_IAT_first_block,ending,incompatible,37,none,target,task_switch,response_repetition,Gelbe Wesen,Lila Wesen,Negativ,Positiv,IAT_purple3.bmp,purple,ending_melody,NA,m,c,0,1359634,1360024,1360024,323,m,1,1360364,425,1360815
37,old,starting_first,incompatible_first,incompatible_first,ES_yellow,second_IAT_first_block,ending,incompatible,38,none,attribute,task_switch,response_switch,Gelbe Wesen,Lila Wesen,Negativ,Positiv,Böse,NA,NA,negative,c,c,1,1361545,1361935,1361935,464,none,none,none,none,1362425
37,old,starting_first,incompatible_first,incompatible_first,ES_yellow,second_IAT_first_block,ending,incompatible,39,none,target,task_switch,response_repetition,Gelbe Wesen,Lila Wesen,Negativ,Positiv,IAT_yellow4.bmp,yellow,ending_scream,NA,c,c,1,1363135,1363525,1363525,418,none,none,none,none,1363965
37,old,starting_first,incompatible_first,incompatible_first,ES_yellow,second_IAT_first_block,ending,incompatible,40,none,attribute,task_switch,response_repetition,Gelbe Wesen,Lila Wesen,Negativ,Positiv,Bedrohung,NA,NA,negative,c,c,1,1364685,1365075,1365075,469,none,none,none,none,1365565
37,old,starting_first,incompatible_first,incompatible_first,ES_yellow,second_IAT_first_block,ending,incompatible,41,none,attribute,task_repetition,response_switch,Gelbe Wesen,Lila Wesen,Negativ,Positiv,Wundervoll,NA,NA,positive,m,m,1,1366315,1366705,1366705,470,none,none,none,none,1367195
37,old,starting_first,incompatible_first,incompatible_first,ES_yellow,second_IAT_first_block,ending,incompatible,42,none,target,task_switch,response_repetition,Gelbe Wesen,Lila Wesen,Negativ,Positiv,IAT_purple2.bmp,purple,ending_melody,NA,m,c,0,1367895,1368285,1368285,441,m,1,1368745,440,1369205
37,old,starting_first,incompatible_first,incompatible_first,ES_yellow,second_IAT_first_block,ending,incompatible,43,none,target,task_repetition,response_repetition,Gelbe Wesen,Lila Wesen,Negativ,Positiv,IAT_purple4.bmp,purple,ending_melody,NA,m,m,1,1369885,1370275,1370275,406,none,none,none,none,1370705
37,old,starting_first,incompatible_first,incompatible_first,ES_yellow,second_IAT_first_block,ending,incompatible,44,none,attribute,task_switch,response_repetition,Gelbe Wesen,Lila Wesen,Negativ,Positiv,Liebe,NA,NA,positive,m,m,1,1371424,1371814,1371815,514,none,none,none,none,1372354
37,old,starting_first,incompatible_first,incompatible_first,ES_yellow,second_IAT_first_block,ending,incompatible,45,none,attribute,task_repetition,response_repetition,Gelbe Wesen,Lila Wesen,Negativ,Positiv,Frieden,NA,NA,positive,m,m,1,1373084,1373474,1373475,482,none,none,none,none,1373984
37,old,starting_first,incompatible_first,incompatible_first,ES_yellow,second_IAT_first_block,ending,incompatible,46,none,attribute,task_repetition,response_switch,Gelbe Wesen,Lila Wesen,Negativ,Positiv,Schlecht,NA,NA,negative,c,c,1,1374704,1375094,1375095,500,none,none,none,none,1375614
37,old,starting_first,incompatible_first,incompatible_first,ES_yellow,second_IAT_first_block,ending,incompatible,47,none,target,task_switch,response_switch,Gelbe Wesen,Lila Wesen,Negativ,Positiv,IAT_purple1.bmp,purple,ending_melody,NA,m,m,1,1376374,1376764,1376764,513,none,none,none,none,1377304
37,old,starting_first,incompatible_first,incompatible_first,ES_yellow,second_IAT_first_block,ending,incompatible,48,none,attribute,task_switch,response_switch,Gelbe Wesen,Lila Wesen,Negativ,Positiv,Trauer,NA,NA,negative,c,c,1,1378086,1378475,1378475,558,none,none,none,none,1379055
