subject_nr,contrast_group,iat_order,block_order_1,block_order_2,color_counter,which_IAT_which_block,current_contrast,current_comp,trialnr,trial_type,target_type,task_switch, response_switch,left_target,right_target,left_attribute,right_attribute,trial_target,target_color,target_role,attribute_valence,correct_response,response_first_response,correct_first_response,time_assignments_show,time_target_show,time_first_response,response_time_first_response,response_force_correct,correct_force_correct,time_force_correct,response_time_force_correct,time_logger
45,old,ending_first,compatible_first,incompatible_first,ES_yellow,second_IAT_first_block,starting,incompatible,0,none,attribute,NA,NA,Rote Wesen,Grüne Wesen,Negativ,Positiv,Wundervoll,NA,NA,positive,m,m,1,1254253,1254643,1254644,520,none,none,none,none,1255183
45,old,ending_first,compatible_first,incompatible_first,ES_yellow,second_IAT_first_block,starting,incompatible,1,none,target,task_switch,response_repetition,Rote Wesen,Grüne Wesen,Negativ,Positiv,IAT_green3.bmp,green,starting_scream,NA,m,m,1,1255884,1256274,1256274,367,none,none,none,none,1256664
45,old,ending_first,compatible_first,incompatible_first,ES_yellow,second_IAT_first_block,starting,incompatible,2,none,attribute,task_switch,response_repetition,Rote Wesen,Grüne Wesen,Negativ,Positiv,Frieden,NA,NA,positive,m,m,1,1257394,1257784,1257784,458,none,none,none,none,1258264
45,old,ending_first,compatible_first,incompatible_first,ES_yellow,second_IAT_first_block,starting,incompatible,3,none,attribute,task_repetition,response_switch,Rote Wesen,Grüne Wesen,Negativ,Positiv,Trauer,NA,NA,negative,c,c,1,1258994,1259384,1259384,387,none,none,none,none,1259794
45,old,ending_first,compatible_first,incompatible_first,ES_yellow,second_IAT_first_block,starting,incompatible,4,none,attribute,task_repetition,response_switch,Rote Wesen,Grüne Wesen,Negativ,Positiv,Liebe,NA,NA,positive,m,m,1,1260564,1260954,1260954,530,none,none,none,none,1261504
45,old,ending_first,compatible_first,incompatible_first,ES_yellow,second_IAT_first_block,starting,incompatible,5,none,target,task_switch,response_switch,Rote Wesen,Grüne Wesen,Negativ,Positiv,IAT_red3.bmp,red,starting_melody,NA,c,c,1,1262254,1262644,1262644,433,none,none,none,none,1263104
45,old,ending_first,compatible_first,incompatible_first,ES_yellow,second_IAT_first_block,starting,incompatible,6,none,target,task_repetition,response_repetition,Rote Wesen,Grüne Wesen,Negativ,Positiv,IAT_red2.bmp,red,starting_melody,NA,c,c,1,1263877,1264274,1264274,357,none,none,none,none,1264654
45,old,ending_first,compatible_first,incompatible_first,ES_yellow,second_IAT_first_block,starting,incompatible,7,none,attribute,task_switch,response_repetition,Rote Wesen,Grüne Wesen,Negativ,Positiv,Bedrohung,NA,NA,negative,c,c,1,1265374,1265764,1265764,526,none,none,none,none,1266314
45,old,ending_first,compatible_first,incompatible_first,ES_yellow,second_IAT_first_block,starting,incompatible,8,none,target,task_switch,response_switch,Rote Wesen,Grüne Wesen,Negativ,Positiv,IAT_green2.bmp,green,starting_scream,NA,m,m,1,1267003,1267393,1267394,537,none,none,none,none,1267953
45,old,ending_first,compatible_first,incompatible_first,ES_yellow,second_IAT_first_block,starting,incompatible,9,none,attribute,task_switch,response_switch,Rote Wesen,Grüne Wesen,Negativ,Positiv,Versagen,NA,NA,negative,c,c,1,1268743,1269133,1269134,548,none,none,none,none,1269703
45,old,ending_first,compatible_first,incompatible_first,ES_yellow,second_IAT_first_block,starting,incompatible,10,none,target,task_switch,response_switch,Rote Wesen,Grüne Wesen,Negativ,Positiv,IAT_green4.bmp,green,starting_scream,NA,m,m,1,1270403,1270793,1270794,445,none,none,none,none,1271263
45,old,ending_first,compatible_first,incompatible_first,ES_yellow,second_IAT_first_block,starting,incompatible,11,none,target,task_repetition,response_repetition,Rote Wesen,Grüne Wesen,Negativ,Positiv,IAT_green1.bmp,green,starting_scream,NA,m,m,1,1271963,1272353,1272354,367,none,none,none,none,1272743
45,old,ending_first,compatible_first,incompatible_first,ES_yellow,second_IAT_first_block,starting,incompatible,12,none,target,task_repetition,response_repetition,Rote Wesen,Grüne Wesen,Negativ,Positiv,IAT_green1.bmp,green,starting_scream,NA,m,m,1,1273444,1273834,1273834,322,none,none,none,none,1274184
45,old,ending_first,compatible_first,incompatible_first,ES_yellow,second_IAT_first_block,starting,incompatible,13,none,attribute,task_switch,response_switch,Rote Wesen,Grüne Wesen,Negativ,Positiv,Schlecht,NA,NA,negative,c,m,0,1274904,1275294,1275294,472,c,1,1275784,218,1276024
45,old,ending_first,compatible_first,incompatible_first,ES_yellow,second_IAT_first_block,starting,incompatible,14,none,attribute,task_repetition,response_repetition,Rote Wesen,Grüne Wesen,Negativ,Positiv,Schmerz,NA,NA,negative,c,c,1,1276754,1277144,1277144,506,none,none,none,none,1277674
45,old,ending_first,compatible_first,incompatible_first,ES_yellow,second_IAT_first_block,starting,incompatible,15,none,attribute,task_repetition,response_switch,Rote Wesen,Grüne Wesen,Negativ,Positiv,Spaß,NA,NA,positive,m,m,1,1278404,1278794,1278794,463,none,none,none,none,1279284
45,old,ending_first,compatible_first,incompatible_first,ES_yellow,second_IAT_first_block,starting,incompatible,16,none,attribute,task_repetition,response_repetition,Rote Wesen,Grüne Wesen,Negativ,Positiv,Glücklich,NA,NA,positive,m,m,1,1280014,1280404,1280404,681,none,none,none,none,1281104
45,old,ending_first,compatible_first,incompatible_first,ES_yellow,second_IAT_first_block,starting,incompatible,17,none,target,task_switch,response_repetition,Rote Wesen,Grüne Wesen,Negativ,Positiv,IAT_green3.bmp,green,starting_scream,NA,m,m,1,1281834,1282224,1282224,528,none,none,none,none,1282774
45,old,ending_first,compatible_first,incompatible_first,ES_yellow,second_IAT_first_block,starting,incompatible,18,none,target,task_repetition,response_switch,Rote Wesen,Grüne Wesen,Negativ,Positiv,IAT_red4.bmp,red,starting_melody,NA,c,c,1,1283523,1283913,1283914,391,none,none,none,none,1284324
45,old,ending_first,compatible_first,incompatible_first,ES_yellow,second_IAT_first_block,starting,incompatible,19,none,attribute,task_switch,response_switch,Rote Wesen,Grüne Wesen,Negativ,Positiv,Freude,NA,NA,positive,m,m,1,1285113,1285503,1285504,455,none,none,none,none,1285983
45,old,ending_first,compatible_first,incompatible_first,ES_yellow,second_IAT_first_block,starting,incompatible,20,none,attribute,task_repetition,response_switch,Rote Wesen,Grüne Wesen,Negativ,Positiv,Böse,NA,NA,negative,c,c,1,1286857,1287253,1287254,422,none,none,none,none,1287703
45,old,ending_first,compatible_first,incompatible_first,ES_yellow,second_IAT_first_block,starting,incompatible,21,none,attribute,task_repetition,response_switch,Rote Wesen,Grüne Wesen,Negativ,Positiv,Wundervoll,NA,NA,positive,m,m,1,1288423,1288813,1288813,629,none,none,none,none,1289463
45,old,ending_first,compatible_first,incompatible_first,ES_yellow,second_IAT_first_block,starting,incompatible,22,none,attribute,task_repetition,response_repetition,Rote Wesen,Grüne Wesen,Negativ,Positiv,Freude,NA,NA,positive,m,m,1,1290193,1290583,1290583,420,none,none,none,none,1291024
45,old,ending_first,compatible_first,incompatible_first,ES_yellow,second_IAT_first_block,starting,incompatible,23,none,attribute,task_repetition,response_switch,Rote Wesen,Grüne Wesen,Negativ,Positiv,Versagen,NA,NA,negative,c,c,1,1291764,1292154,1292154,545,none,none,none,none,1292724
45,old,ending_first,compatible_first,incompatible_first,ES_yellow,second_IAT_first_block,starting,incompatible,24,none,attribute,task_repetition,response_repetition,Rote Wesen,Grüne Wesen,Negativ,Positiv,Bedrohung,NA,NA,negative,c,c,1,1293454,1293844,1293844,501,none,none,none,none,1294364
45,old,ending_first,compatible_first,incompatible_first,ES_yellow,second_IAT_first_block,starting,incompatible,25,none,target,task_switch,response_switch,Rote Wesen,Grüne Wesen,Negativ,Positiv,IAT_green2.bmp,green,starting_scream,NA,m,m,1,1295074,1295464,1295464,494,none,none,none,none,1295984
45,old,ending_first,compatible_first,incompatible_first,ES_yellow,second_IAT_first_block,starting,incompatible,26,none,target,task_repetition,response_switch,Rote Wesen,Grüne Wesen,Negativ,Positiv,IAT_red1.bmp,red,starting_melody,NA,c,c,1,1296744,1297134,1297134,503,none,none,none,none,1297664
45,old,ending_first,compatible_first,incompatible_first,ES_yellow,second_IAT_first_block,starting,incompatible,27,none,attribute,task_switch,response_repetition,Rote Wesen,Grüne Wesen,Negativ,Positiv,Schlecht,NA,NA,negative,c,c,1,1298404,1298794,1298794,481,none,none,none,none,1299294
45,old,ending_first,compatible_first,incompatible_first,ES_yellow,second_IAT_first_block,starting,incompatible,28,none,attribute,task_repetition,response_repetition,Rote Wesen,Grüne Wesen,Negativ,Positiv,Schmerz,NA,NA,negative,c,c,1,1300023,1300413,1300414,436,none,none,none,none,1300874
45,old,ending_first,compatible_first,incompatible_first,ES_yellow,second_IAT_first_block,starting,incompatible,29,none,target,task_switch,response_repetition,Rote Wesen,Grüne Wesen,Negativ,Positiv,IAT_red4.bmp,red,starting_melody,NA,c,c,1,1301573,1301963,1301964,479,none,none,none,none,1302463
45,old,ending_first,compatible_first,incompatible_first,ES_yellow,second_IAT_first_block,starting,incompatible,30,none,attribute,task_switch,response_repetition,Rote Wesen,Grüne Wesen,Negativ,Positiv,Trauer,NA,NA,negative,c,c,1,1303173,1303563,1303564,451,none,none,none,none,1304043
45,old,ending_first,compatible_first,incompatible_first,ES_yellow,second_IAT_first_block,starting,incompatible,31,none,target,task_switch,response_repetition,Rote Wesen,Grüne Wesen,Negativ,Positiv,IAT_red3.bmp,red,starting_melody,NA,c,c,1,1304743,1305133,1305134,409,none,none,none,none,1305563
45,old,ending_first,compatible_first,incompatible_first,ES_yellow,second_IAT_first_block,starting,incompatible,32,none,target,task_repetition,response_switch,Rote Wesen,Grüne Wesen,Negativ,Positiv,IAT_green4.bmp,green,starting_scream,NA,m,m,1,1306263,1306653,1306653,457,none,none,none,none,1307133
45,old,ending_first,compatible_first,incompatible_first,ES_yellow,second_IAT_first_block,starting,incompatible,33,none,target,task_repetition,response_repetition,Rote Wesen,Grüne Wesen,Negativ,Positiv,IAT_green2.bmp,green,starting_scream,NA,m,m,1,1307903,1308294,1308294,366,none,none,none,none,1308684
45,old,ending_first,compatible_first,incompatible_first,ES_yellow,second_IAT_first_block,starting,incompatible,34,none,attribute,task_switch,response_switch,Rote Wesen,Grüne Wesen,Negativ,Positiv,Böse,NA,NA,negative,c,c,1,1309457,1309854,1309854,483,none,none,none,none,1310364
45,old,ending_first,compatible_first,incompatible_first,ES_yellow,second_IAT_first_block,starting,incompatible,35,none,target,task_switch,response_repetition,Rote Wesen,Grüne Wesen,Negativ,Positiv,IAT_red1.bmp,red,starting_melody,NA,c,c,1,1311064,1311454,1311454,498,none,none,none,none,1311974
45,old,ending_first,compatible_first,incompatible_first,ES_yellow,second_IAT_first_block,starting,incompatible,36,none,attribute,task_switch,response_switch,Rote Wesen,Grüne Wesen,Negativ,Positiv,Glücklich,NA,NA,positive,m,m,1,1312744,1313134,1313134,638,none,none,none,none,1313794
45,old,ending_first,compatible_first,incompatible_first,ES_yellow,second_IAT_first_block,starting,incompatible,37,none,attribute,task_repetition,response_repetition,Rote Wesen,Grüne Wesen,Negativ,Positiv,Liebe,NA,NA,positive,m,m,1,1314524,1314914,1314914,519,none,none,none,none,1315454
45,old,ending_first,compatible_first,incompatible_first,ES_yellow,second_IAT_first_block,starting,incompatible,38,none,target,task_switch,response_switch,Rote Wesen,Grüne Wesen,Negativ,Positiv,IAT_red2.bmp,red,starting_melody,NA,c,c,1,1316164,1316554,1316554,531,none,none,none,none,1317114
45,old,ending_first,compatible_first,incompatible_first,ES_yellow,second_IAT_first_block,starting,incompatible,39,none,target,task_repetition,response_switch,Rote Wesen,Grüne Wesen,Negativ,Positiv,IAT_green3.bmp,green,starting_scream,NA,m,m,1,1317823,1318213,1318214,469,none,none,none,none,1318703
45,old,ending_first,compatible_first,incompatible_first,ES_yellow,second_IAT_first_block,starting,incompatible,40,none,attribute,task_switch,response_repetition,Rote Wesen,Grüne Wesen,Negativ,Positiv,Spaß,NA,NA,positive,m,m,1,1319433,1319823,1319824,490,none,none,none,none,1320333
45,old,ending_first,compatible_first,incompatible_first,ES_yellow,second_IAT_first_block,starting,incompatible,41,none,target,task_switch,response_switch,Rote Wesen,Grüne Wesen,Negativ,Positiv,IAT_red4.bmp,red,starting_melody,NA,c,c,1,1321033,1321423,1321424,428,none,none,none,none,1321873
45,old,ending_first,compatible_first,incompatible_first,ES_yellow,second_IAT_first_block,starting,incompatible,42,none,target,task_repetition,response_switch,Rote Wesen,Grüne Wesen,Negativ,Positiv,IAT_green1.bmp,green,starting_scream,NA,m,m,1,1322583,1322973,1322973,421,none,none,none,none,1323413
45,old,ending_first,compatible_first,incompatible_first,ES_yellow,second_IAT_first_block,starting,incompatible,43,none,attribute,task_switch,response_repetition,Rote Wesen,Grüne Wesen,Negativ,Positiv,Frieden,NA,NA,positive,m,m,1,1324143,1324533,1324533,791,none,none,none,none,1325343
45,old,ending_first,compatible_first,incompatible_first,ES_yellow,second_IAT_first_block,starting,incompatible,44,none,target,task_switch,response_repetition,Rote Wesen,Grüne Wesen,Negativ,Positiv,IAT_green4.bmp,green,starting_scream,NA,m,m,1,1326054,1326444,1326444,553,none,none,none,none,1327024
45,old,ending_first,compatible_first,incompatible_first,ES_yellow,second_IAT_first_block,starting,incompatible,45,none,target,task_repetition,response_switch,Rote Wesen,Grüne Wesen,Negativ,Positiv,IAT_red2.bmp,red,starting_melody,NA,c,c,1,1327724,1328114,1328114,393,none,none,none,none,1328534
45,old,ending_first,compatible_first,incompatible_first,ES_yellow,second_IAT_first_block,starting,incompatible,46,none,target,task_repetition,response_repetition,Rote Wesen,Grüne Wesen,Negativ,Positiv,IAT_red1.bmp,red,starting_melody,NA,c,c,1,1329234,1329624,1329624,376,none,none,none,none,1330024
45,old,ending_first,compatible_first,incompatible_first,ES_yellow,second_IAT_first_block,starting,incompatible,47,none,target,task_repetition,response_repetition,Rote Wesen,Grüne Wesen,Negativ,Positiv,IAT_red3.bmp,red,starting_melody,NA,c,c,1,1330838,1331234,1331234,460,none,none,none,none,1331714
45,old,ending_first,compatible_first,incompatible_first,ES_yellow,second_IAT_first_block,starting,incompatible,48,none,attribute,task_switch,response_switch,Rote Wesen,Grüne Wesen,Negativ,Positiv,Wundervoll,NA,NA,positive,m,m,1,1332444,1332834,1332834,574,none,none,none,none,1333434
