subject_nr,contrast_group,iat_order,block_order_1,block_order_2,color_counter,which_IAT_which_block,current_contrast,current_comp,trialnr,trial_type,target_type,task_switch, response_switch,left_target,right_target,left_attribute,right_attribute,trial_target,target_color,target_role,attribute_valence,correct_response,response_first_response,correct_first_response,time_assignments_show,time_target_show,time_first_response,response_time_first_response,response_force_correct,correct_force_correct,time_force_correct,response_time_force_correct,time_logger
26,new,scream_first,compatible_first,incompatible_first,ES_green,first_IAT_first_block,scream,compatible,0,none,attribute,NA,NA,Lila Wesen,Grüne Wesen,Negativ,Positiv,Freude,NA,NA,positive,m,m,1,900866,901254,901254,693,none,none,none,none,901974
26,new,scream_first,compatible_first,incompatible_first,ES_green,first_IAT_first_block,scream,compatible,1,none,target,task_switch,response_repetition,Lila Wesen,Grüne Wesen,Negativ,Positiv,IAT_green2.bmp,green,ending_scream,NA,m,c,0,902664,903054,903054,464,m,1,903534,230,903784
26,new,scream_first,compatible_first,incompatible_first,ES_green,first_IAT_first_block,scream,compatible,2,none,target,task_repetition,response_repetition,Lila Wesen,Grüne Wesen,Negativ,Positiv,IAT_green1.bmp,green,ending_scream,NA,m,m,1,904474,904864,904864,362,none,none,none,none,905254
26,new,scream_first,compatible_first,incompatible_first,ES_green,first_IAT_first_block,scream,compatible,3,none,target,task_repetition,response_switch,Lila Wesen,Grüne Wesen,Negativ,Positiv,IAT_purple4.bmp,purple,starting_scream,NA,c,c,1,905954,906344,906345,503,none,none,none,none,906875
26,new,scream_first,compatible_first,incompatible_first,ES_green,first_IAT_first_block,scream,compatible,4,none,attribute,task_switch,response_repetition,Lila Wesen,Grüne Wesen,Negativ,Positiv,Schlecht,NA,NA,negative,c,c,1,907604,907994,907995,384,none,none,none,none,908404
26,new,scream_first,compatible_first,incompatible_first,ES_green,first_IAT_first_block,scream,compatible,5,none,attribute,task_repetition,response_switch,Lila Wesen,Grüne Wesen,Negativ,Positiv,Glücklich,NA,NA,positive,m,m,1,909114,909504,909504,485,none,none,none,none,910014
26,new,scream_first,compatible_first,incompatible_first,ES_green,first_IAT_first_block,scream,compatible,6,none,attribute,task_repetition,response_repetition,Lila Wesen,Grüne Wesen,Negativ,Positiv,Wundervoll,NA,NA,positive,m,m,1,910734,911124,911124,545,none,none,none,none,911694
26,new,scream_first,compatible_first,incompatible_first,ES_green,first_IAT_first_block,scream,compatible,7,none,attribute,task_repetition,response_switch,Lila Wesen,Grüne Wesen,Negativ,Positiv,Böse,NA,NA,negative,c,c,1,912414,912804,912804,454,none,none,none,none,913284
26,new,scream_first,compatible_first,incompatible_first,ES_green,first_IAT_first_block,scream,compatible,8,none,target,task_switch,response_switch,Lila Wesen,Grüne Wesen,Negativ,Positiv,IAT_green3.bmp,green,ending_scream,NA,m,m,1,913974,914364,914364,645,none,none,none,none,915034
26,new,scream_first,compatible_first,incompatible_first,ES_green,first_IAT_first_block,scream,compatible,9,none,target,task_repetition,response_repetition,Lila Wesen,Grüne Wesen,Negativ,Positiv,IAT_green4.bmp,green,ending_scream,NA,m,m,1,915734,916124,916124,413,none,none,none,none,916564
26,new,scream_first,compatible_first,incompatible_first,ES_green,first_IAT_first_block,scream,compatible,10,none,attribute,task_switch,response_repetition,Lila Wesen,Grüne Wesen,Negativ,Positiv,Spaß,NA,NA,positive,m,m,1,917294,917684,917684,504,none,none,none,none,918214
26,new,scream_first,compatible_first,incompatible_first,ES_green,first_IAT_first_block,scream,compatible,11,none,attribute,task_repetition,response_repetition,Lila Wesen,Grüne Wesen,Negativ,Positiv,Liebe,NA,NA,positive,m,m,1,918974,919364,919364,379,none,none,none,none,919764
26,new,scream_first,compatible_first,incompatible_first,ES_green,first_IAT_first_block,scream,compatible,12,none,target,task_switch,response_repetition,Lila Wesen,Grüne Wesen,Negativ,Positiv,IAT_green2.bmp,green,ending_scream,NA,m,m,1,920513,920903,920904,453,none,none,none,none,921384
26,new,scream_first,compatible_first,incompatible_first,ES_green,first_IAT_first_block,scream,compatible,13,none,target,task_repetition,response_switch,Lila Wesen,Grüne Wesen,Negativ,Positiv,IAT_purple1.bmp,purple,starting_scream,NA,c,c,1,922157,922553,922554,370,none,none,none,none,922943
26,new,scream_first,compatible_first,incompatible_first,ES_green,first_IAT_first_block,scream,compatible,14,none,target,task_repetition,response_repetition,Lila Wesen,Grüne Wesen,Negativ,Positiv,IAT_purple3.bmp,purple,starting_scream,NA,c,c,1,923644,924034,924034,383,none,none,none,none,924444
26,new,scream_first,compatible_first,incompatible_first,ES_green,first_IAT_first_block,scream,compatible,15,none,target,task_repetition,response_switch,Lila Wesen,Grüne Wesen,Negativ,Positiv,IAT_green1.bmp,green,ending_scream,NA,m,c,0,925134,925524,925524,380,m,1,925914,187,926124
26,new,scream_first,compatible_first,incompatible_first,ES_green,first_IAT_first_block,scream,compatible,16,none,target,task_repetition,response_repetition,Lila Wesen,Grüne Wesen,Negativ,Positiv,IAT_green4.bmp,green,ending_scream,NA,m,m,1,926824,927214,927214,336,none,none,none,none,927574
26,new,scream_first,compatible_first,incompatible_first,ES_green,first_IAT_first_block,scream,compatible,17,none,attribute,task_switch,response_repetition,Lila Wesen,Grüne Wesen,Negativ,Positiv,Frieden,NA,NA,positive,m,m,1,928314,928704,928704,422,none,none,none,none,929154
26,new,scream_first,compatible_first,incompatible_first,ES_green,first_IAT_first_block,scream,compatible,18,none,target,task_switch,response_switch,Lila Wesen,Grüne Wesen,Negativ,Positiv,IAT_purple2.bmp,purple,starting_scream,NA,c,c,1,929854,930244,930244,438,none,none,none,none,930704
26,new,scream_first,compatible_first,incompatible_first,ES_green,first_IAT_first_block,scream,compatible,19,none,attribute,task_switch,response_repetition,Lila Wesen,Grüne Wesen,Negativ,Positiv,Schmerz,NA,NA,negative,c,m,0,931434,931824,931824,460,c,1,932294,204,932524
26,new,scream_first,compatible_first,incompatible_first,ES_green,first_IAT_first_block,scream,compatible,20,none,attribute,task_repetition,response_repetition,Lila Wesen,Grüne Wesen,Negativ,Positiv,Bedrohung,NA,NA,negative,c,m,0,933254,933644,933644,498,c,1,934154,193,934374
26,new,scream_first,compatible_first,incompatible_first,ES_green,first_IAT_first_block,scream,compatible,21,none,attribute,task_repetition,response_repetition,Lila Wesen,Grüne Wesen,Negativ,Positiv,Versagen,NA,NA,negative,c,c,1,935093,935483,935484,539,none,none,none,none,936043
26,new,scream_first,compatible_first,incompatible_first,ES_green,first_IAT_first_block,scream,compatible,22,none,attribute,task_repetition,response_switch,Lila Wesen,Grüne Wesen,Negativ,Positiv,Freude,NA,NA,positive,m,m,1,936753,937143,937143,440,none,none,none,none,937603
26,new,scream_first,compatible_first,incompatible_first,ES_green,first_IAT_first_block,scream,compatible,23,none,attribute,task_repetition,response_repetition,Lila Wesen,Grüne Wesen,Negativ,Positiv,Spaß,NA,NA,positive,m,m,1,938353,938743,938743,798,none,none,none,none,939563
26,new,scream_first,compatible_first,incompatible_first,ES_green,first_IAT_first_block,scream,compatible,24,none,attribute,task_repetition,response_switch,Lila Wesen,Grüne Wesen,Negativ,Positiv,Trauer,NA,NA,negative,c,c,1,940393,940783,940783,572,none,none,none,none,941374
26,new,scream_first,compatible_first,incompatible_first,ES_green,first_IAT_first_block,scream,compatible,25,none,target,task_switch,response_repetition,Lila Wesen,Grüne Wesen,Negativ,Positiv,IAT_purple1.bmp,purple,starting_scream,NA,c,c,1,942074,942464,942464,564,none,none,none,none,943054
26,new,scream_first,compatible_first,incompatible_first,ES_green,first_IAT_first_block,scream,compatible,26,none,target,task_repetition,response_switch,Lila Wesen,Grüne Wesen,Negativ,Positiv,IAT_green3.bmp,green,ending_scream,NA,m,m,1,943754,944144,944144,517,none,none,none,none,944684
26,new,scream_first,compatible_first,incompatible_first,ES_green,first_IAT_first_block,scream,compatible,27,none,target,task_repetition,response_switch,Lila Wesen,Grüne Wesen,Negativ,Positiv,IAT_purple2.bmp,purple,starting_scream,NA,c,c,1,945475,945864,945864,473,none,none,none,none,946364
26,new,scream_first,compatible_first,incompatible_first,ES_green,first_IAT_first_block,scream,compatible,28,none,attribute,task_switch,response_switch,Lila Wesen,Grüne Wesen,Negativ,Positiv,Freude,NA,NA,positive,m,m,1,947094,947484,947484,823,none,none,none,none,948334
26,new,scream_first,compatible_first,incompatible_first,ES_green,first_IAT_first_block,scream,compatible,29,none,attribute,task_repetition,response_switch,Lila Wesen,Grüne Wesen,Negativ,Positiv,Böse,NA,NA,negative,c,c,1,949043,949433,949434,524,none,none,none,none,949984
26,new,scream_first,compatible_first,incompatible_first,ES_green,first_IAT_first_block,scream,compatible,30,none,attribute,task_repetition,response_switch,Lila Wesen,Grüne Wesen,Negativ,Positiv,Wundervoll,NA,NA,positive,m,m,1,950703,951093,951094,566,none,none,none,none,951683
26,new,scream_first,compatible_first,incompatible_first,ES_green,first_IAT_first_block,scream,compatible,31,none,target,task_switch,response_switch,Lila Wesen,Grüne Wesen,Negativ,Positiv,IAT_purple3.bmp,purple,starting_scream,NA,c,c,1,952393,952783,952783,445,none,none,none,none,953253
26,new,scream_first,compatible_first,incompatible_first,ES_green,first_IAT_first_block,scream,compatible,32,none,attribute,task_switch,response_repetition,Lila Wesen,Grüne Wesen,Negativ,Positiv,Schlecht,NA,NA,negative,c,c,1,953973,954363,954363,482,none,none,none,none,954863
26,new,scream_first,compatible_first,incompatible_first,ES_green,first_IAT_first_block,scream,compatible,33,none,attribute,task_repetition,response_repetition,Lila Wesen,Grüne Wesen,Negativ,Positiv,Schmerz,NA,NA,negative,c,c,1,955603,955993,955993,378,none,none,none,none,956393
26,new,scream_first,compatible_first,incompatible_first,ES_green,first_IAT_first_block,scream,compatible,34,none,target,task_switch,response_repetition,Lila Wesen,Grüne Wesen,Negativ,Positiv,IAT_purple4.bmp,purple,starting_scream,NA,c,m,0,957093,957483,957483,397,c,1,957893,182,958103
26,new,scream_first,compatible_first,incompatible_first,ES_green,first_IAT_first_block,scream,compatible,35,none,target,task_repetition,response_switch,Lila Wesen,Grüne Wesen,Negativ,Positiv,IAT_green2.bmp,green,ending_scream,NA,m,m,1,958804,959194,959194,451,none,none,none,none,959664
26,new,scream_first,compatible_first,incompatible_first,ES_green,first_IAT_first_block,scream,compatible,36,none,attribute,task_switch,response_switch,Lila Wesen,Grüne Wesen,Negativ,Positiv,Versagen,NA,NA,negative,c,c,1,960394,960784,960784,431,none,none,none,none,961234
26,new,scream_first,compatible_first,incompatible_first,ES_green,first_IAT_first_block,scream,compatible,37,none,target,task_switch,response_switch,Lila Wesen,Grüne Wesen,Negativ,Positiv,IAT_green3.bmp,green,ending_scream,NA,m,m,1,961934,962324,962324,585,none,none,none,none,962934
26,new,scream_first,compatible_first,incompatible_first,ES_green,first_IAT_first_block,scream,compatible,38,none,attribute,task_switch,response_switch,Lila Wesen,Grüne Wesen,Negativ,Positiv,Trauer,NA,NA,negative,c,c,1,963663,964053,964054,488,none,none,none,none,964563
26,new,scream_first,compatible_first,incompatible_first,ES_green,first_IAT_first_block,scream,compatible,39,none,target,task_switch,response_switch,Lila Wesen,Grüne Wesen,Negativ,Positiv,IAT_green1.bmp,green,ending_scream,NA,m,c,0,965263,965653,965653,461,m,1,966124,271,966423
26,new,scream_first,compatible_first,incompatible_first,ES_green,first_IAT_first_block,scream,compatible,40,none,attribute,task_switch,response_switch,Lila Wesen,Grüne Wesen,Negativ,Positiv,Bedrohung,NA,NA,negative,c,c,1,967183,967573,967573,705,none,none,none,none,968303
26,new,scream_first,compatible_first,incompatible_first,ES_green,first_IAT_first_block,scream,compatible,41,none,target,task_switch,response_repetition,Lila Wesen,Grüne Wesen,Negativ,Positiv,IAT_purple2.bmp,purple,starting_scream,NA,c,c,1,969055,969443,969443,474,none,none,none,none,969943
26,new,scream_first,compatible_first,incompatible_first,ES_green,first_IAT_first_block,scream,compatible,42,none,target,task_repetition,response_repetition,Lila Wesen,Grüne Wesen,Negativ,Positiv,IAT_purple1.bmp,purple,starting_scream,NA,c,c,1,970663,971053,971053,374,none,none,none,none,971453
26,new,scream_first,compatible_first,incompatible_first,ES_green,first_IAT_first_block,scream,compatible,43,none,target,task_repetition,response_repetition,Lila Wesen,Grüne Wesen,Negativ,Positiv,IAT_purple3.bmp,purple,starting_scream,NA,c,c,1,972153,972543,972543,409,none,none,none,none,972973
26,new,scream_first,compatible_first,incompatible_first,ES_green,first_IAT_first_block,scream,compatible,44,none,attribute,task_switch,response_switch,Lila Wesen,Grüne Wesen,Negativ,Positiv,Liebe,NA,NA,positive,m,m,1,973713,974103,974103,472,none,none,none,none,974603
26,new,scream_first,compatible_first,incompatible_first,ES_green,first_IAT_first_block,scream,compatible,45,none,target,task_switch,response_switch,Lila Wesen,Grüne Wesen,Negativ,Positiv,IAT_purple4.bmp,purple,starting_scream,NA,c,c,1,975303,975693,975693,442,none,none,none,none,976154
26,new,scream_first,compatible_first,incompatible_first,ES_green,first_IAT_first_block,scream,compatible,46,none,attribute,task_switch,response_switch,Lila Wesen,Grüne Wesen,Negativ,Positiv,Frieden,NA,NA,positive,m,m,1,976883,977273,977274,472,none,none,none,none,977774
26,new,scream_first,compatible_first,incompatible_first,ES_green,first_IAT_first_block,scream,compatible,47,none,target,task_switch,response_repetition,Lila Wesen,Grüne Wesen,Negativ,Positiv,IAT_green4.bmp,green,ending_scream,NA,m,c,0,978473,978863,978864,612,m,1,979494,87,979603
26,new,scream_first,compatible_first,incompatible_first,ES_green,first_IAT_first_block,scream,compatible,48,none,attribute,task_switch,response_repetition,Lila Wesen,Grüne Wesen,Negativ,Positiv,Glücklich,NA,NA,positive,m,m,1,980353,980743,980743,558,none,none,none,none,981323
