subject_nr,contrast_group,iat_order,block_order_1,block_order_2,color_counter,which_IAT_which_block,current_contrast,current_comp,trialnr,trial_type,target_type,task_switch, response_switch,left_target,right_target,left_attribute,right_attribute,trial_target,target_color,target_role,attribute_valence,correct_response,response_first_response,correct_first_response,time_assignments_show,time_target_show,time_first_response,response_time_first_response,response_force_correct,correct_force_correct,time_force_correct,response_time_force_correct,time_logger
38,old,starting_first,incompatible_first,incompatible_first,ES_purple,second_IAT_first_block,ending,incompatible,0,none,attribute,NA,NA,Lila Wesen,Gelbe Wesen,Negativ,Positiv,Freude,NA,NA,positive,m,m,1,1525911,1526301,1526301,643,none,none,none,none,1526971
38,old,starting_first,incompatible_first,incompatible_first,ES_purple,second_IAT_first_block,ending,incompatible,1,none,attribute,task_repetition,response_repetition,Lila Wesen,Gelbe Wesen,Negativ,Positiv,Glücklich,NA,NA,positive,m,m,1,1527711,1528101,1528101,575,none,none,none,none,1528701
38,old,starting_first,incompatible_first,incompatible_first,ES_purple,second_IAT_first_block,ending,incompatible,2,none,target,task_switch,response_repetition,Lila Wesen,Gelbe Wesen,Negativ,Positiv,IAT_yellow2.bmp,yellow,ending_melody,NA,m,m,1,1529401,1529791,1529791,314,none,none,none,none,1530131
38,old,starting_first,incompatible_first,incompatible_first,ES_purple,second_IAT_first_block,ending,incompatible,3,none,attribute,task_switch,response_repetition,Lila Wesen,Gelbe Wesen,Negativ,Positiv,Freude,NA,NA,positive,m,m,1,1530861,1531251,1531251,574,none,none,none,none,1531851
38,old,starting_first,incompatible_first,incompatible_first,ES_purple,second_IAT_first_block,ending,incompatible,4,none,attribute,task_repetition,response_repetition,Lila Wesen,Gelbe Wesen,Negativ,Positiv,Wundervoll,NA,NA,positive,m,m,1,1532591,1532980,1532981,443,none,none,none,none,1533450
38,old,starting_first,incompatible_first,incompatible_first,ES_purple,second_IAT_first_block,ending,incompatible,5,none,target,task_switch,response_switch,Lila Wesen,Gelbe Wesen,Negativ,Positiv,IAT_purple1.bmp,purple,ending_scream,NA,c,c,1,1534200,1534590,1534591,413,none,none,none,none,1535030
38,old,starting_first,incompatible_first,incompatible_first,ES_purple,second_IAT_first_block,ending,incompatible,6,none,target,task_repetition,response_switch,Lila Wesen,Gelbe Wesen,Negativ,Positiv,IAT_yellow4.bmp,yellow,ending_melody,NA,m,m,1,1535771,1536161,1536162,505,none,none,none,none,1536691
38,old,starting_first,incompatible_first,incompatible_first,ES_purple,second_IAT_first_block,ending,incompatible,7,none,target,task_repetition,response_switch,Lila Wesen,Gelbe Wesen,Negativ,Positiv,IAT_purple2.bmp,purple,ending_scream,NA,c,c,1,1537424,1537821,1537821,374,none,none,none,none,1538221
38,old,starting_first,incompatible_first,incompatible_first,ES_purple,second_IAT_first_block,ending,incompatible,8,none,target,task_repetition,response_repetition,Lila Wesen,Gelbe Wesen,Negativ,Positiv,IAT_purple3.bmp,purple,ending_scream,NA,c,c,1,1538921,1539311,1539311,530,none,none,none,none,1539861
38,old,starting_first,incompatible_first,incompatible_first,ES_purple,second_IAT_first_block,ending,incompatible,9,none,attribute,task_switch,response_repetition,Lila Wesen,Gelbe Wesen,Negativ,Positiv,Bedrohung,NA,NA,negative,c,c,1,1540581,1540971,1540971,425,none,none,none,none,1541421
38,old,starting_first,incompatible_first,incompatible_first,ES_purple,second_IAT_first_block,ending,incompatible,10,none,attribute,task_repetition,response_switch,Lila Wesen,Gelbe Wesen,Negativ,Positiv,Liebe,NA,NA,positive,m,m,1,1542151,1542541,1542541,602,none,none,none,none,1543171
38,old,starting_first,incompatible_first,incompatible_first,ES_purple,second_IAT_first_block,ending,incompatible,11,none,attribute,task_repetition,response_switch,Lila Wesen,Gelbe Wesen,Negativ,Positiv,Böse,NA,NA,negative,c,c,1,1543901,1544291,1544291,539,none,none,none,none,1544851
38,old,starting_first,incompatible_first,incompatible_first,ES_purple,second_IAT_first_block,ending,incompatible,12,none,target,task_switch,response_switch,Lila Wesen,Gelbe Wesen,Negativ,Positiv,IAT_yellow3.bmp,yellow,ending_melody,NA,m,m,1,1545541,1545931,1545931,412,none,none,none,none,1546371
38,old,starting_first,incompatible_first,incompatible_first,ES_purple,second_IAT_first_block,ending,incompatible,13,none,attribute,task_switch,response_repetition,Lila Wesen,Gelbe Wesen,Negativ,Positiv,Spaß,NA,NA,positive,m,m,1,1547110,1547500,1547501,432,none,none,none,none,1547960
38,old,starting_first,incompatible_first,incompatible_first,ES_purple,second_IAT_first_block,ending,incompatible,14,none,target,task_switch,response_repetition,Lila Wesen,Gelbe Wesen,Negativ,Positiv,IAT_yellow1.bmp,yellow,ending_melody,NA,m,m,1,1548650,1549040,1549041,404,none,none,none,none,1549470
38,old,starting_first,incompatible_first,incompatible_first,ES_purple,second_IAT_first_block,ending,incompatible,15,none,attribute,task_switch,response_switch,Lila Wesen,Gelbe Wesen,Negativ,Positiv,Schlecht,NA,NA,negative,c,c,1,1550200,1550590,1550591,652,none,none,none,none,1551270
38,old,starting_first,incompatible_first,incompatible_first,ES_purple,second_IAT_first_block,ending,incompatible,16,none,target,task_switch,response_switch,Lila Wesen,Gelbe Wesen,Negativ,Positiv,IAT_yellow1.bmp,yellow,ending_melody,NA,m,m,1,1551970,1552360,1552360,546,none,none,none,none,1552930
38,old,starting_first,incompatible_first,incompatible_first,ES_purple,second_IAT_first_block,ending,incompatible,17,none,target,task_repetition,response_repetition,Lila Wesen,Gelbe Wesen,Negativ,Positiv,IAT_yellow4.bmp,yellow,ending_melody,NA,m,m,1,1553631,1554021,1554021,603,none,none,none,none,1554651
38,old,starting_first,incompatible_first,incompatible_first,ES_purple,second_IAT_first_block,ending,incompatible,18,none,target,task_repetition,response_switch,Lila Wesen,Gelbe Wesen,Negativ,Positiv,IAT_purple4.bmp,purple,ending_scream,NA,c,c,1,1555411,1555801,1555801,367,none,none,none,none,1556191
38,old,starting_first,incompatible_first,incompatible_first,ES_purple,second_IAT_first_block,ending,incompatible,19,none,target,task_repetition,response_repetition,Lila Wesen,Gelbe Wesen,Negativ,Positiv,IAT_purple3.bmp,purple,ending_scream,NA,c,c,1,1556931,1557321,1557321,446,none,none,none,none,1557791
38,old,starting_first,incompatible_first,incompatible_first,ES_purple,second_IAT_first_block,ending,incompatible,20,none,target,task_repetition,response_repetition,Lila Wesen,Gelbe Wesen,Negativ,Positiv,IAT_purple2.bmp,purple,ending_scream,NA,c,c,1,1558594,1558991,1558991,399,none,none,none,none,1559411
38,old,starting_first,incompatible_first,incompatible_first,ES_purple,second_IAT_first_block,ending,incompatible,21,none,attribute,task_switch,response_switch,Lila Wesen,Gelbe Wesen,Negativ,Positiv,Frieden,NA,NA,positive,m,m,1,1560141,1560531,1560531,601,none,none,none,none,1561161
38,old,starting_first,incompatible_first,incompatible_first,ES_purple,second_IAT_first_block,ending,incompatible,22,none,target,task_switch,response_switch,Lila Wesen,Gelbe Wesen,Negativ,Positiv,IAT_purple4.bmp,purple,ending_scream,NA,c,c,1,1561850,1562240,1562241,538,none,none,none,none,1562801
38,old,starting_first,incompatible_first,incompatible_first,ES_purple,second_IAT_first_block,ending,incompatible,23,none,target,task_repetition,response_switch,Lila Wesen,Gelbe Wesen,Negativ,Positiv,IAT_yellow2.bmp,yellow,ending_melody,NA,m,m,1,1563510,1563900,1563901,447,none,none,none,none,1564370
38,old,starting_first,incompatible_first,incompatible_first,ES_purple,second_IAT_first_block,ending,incompatible,24,none,target,task_repetition,response_repetition,Lila Wesen,Gelbe Wesen,Negativ,Positiv,IAT_yellow3.bmp,yellow,ending_melody,NA,m,m,1,1565060,1565450,1565451,431,none,none,none,none,1565910
38,old,starting_first,incompatible_first,incompatible_first,ES_purple,second_IAT_first_block,ending,incompatible,25,none,attribute,task_switch,response_switch,Lila Wesen,Gelbe Wesen,Negativ,Positiv,Versagen,NA,NA,negative,c,c,1,1566630,1567020,1567020,549,none,none,none,none,1567590
38,old,starting_first,incompatible_first,incompatible_first,ES_purple,second_IAT_first_block,ending,incompatible,26,none,attribute,task_repetition,response_switch,Lila Wesen,Gelbe Wesen,Negativ,Positiv,Spaß,NA,NA,positive,m,m,1,1568320,1568710,1568710,527,none,none,none,none,1569260
38,old,starting_first,incompatible_first,incompatible_first,ES_purple,second_IAT_first_block,ending,incompatible,27,none,attribute,task_repetition,response_switch,Lila Wesen,Gelbe Wesen,Negativ,Positiv,Trauer,NA,NA,negative,c,c,1,1569970,1570360,1570360,860,none,none,none,none,1571241
38,old,starting_first,incompatible_first,incompatible_first,ES_purple,second_IAT_first_block,ending,incompatible,28,none,target,task_switch,response_repetition,Lila Wesen,Gelbe Wesen,Negativ,Positiv,IAT_purple1.bmp,purple,ending_scream,NA,c,c,1,1571931,1572321,1572321,513,none,none,none,none,1572861
38,old,starting_first,incompatible_first,incompatible_first,ES_purple,second_IAT_first_block,ending,incompatible,29,none,attribute,task_switch,response_repetition,Lila Wesen,Gelbe Wesen,Negativ,Positiv,Schmerz,NA,NA,negative,c,c,1,1573581,1573971,1573971,531,none,none,none,none,1574521
38,old,starting_first,incompatible_first,incompatible_first,ES_purple,second_IAT_first_block,ending,incompatible,30,none,target,task_switch,response_repetition,Lila Wesen,Gelbe Wesen,Negativ,Positiv,IAT_purple1.bmp,purple,ending_scream,NA,c,c,1,1575231,1575621,1575621,454,none,none,none,none,1576101
38,old,starting_first,incompatible_first,incompatible_first,ES_purple,second_IAT_first_block,ending,incompatible,31,none,target,task_repetition,response_switch,Lila Wesen,Gelbe Wesen,Negativ,Positiv,IAT_yellow3.bmp,yellow,ending_melody,NA,m,m,1,1576800,1577190,1577191,462,none,none,none,none,1577680
38,old,starting_first,incompatible_first,incompatible_first,ES_purple,second_IAT_first_block,ending,incompatible,32,none,attribute,task_switch,response_switch,Lila Wesen,Gelbe Wesen,Negativ,Positiv,Schlecht,NA,NA,negative,c,c,1,1578410,1578800,1578801,576,none,none,none,none,1579400
38,old,starting_first,incompatible_first,incompatible_first,ES_purple,second_IAT_first_block,ending,incompatible,33,none,attribute,task_repetition,response_repetition,Lila Wesen,Gelbe Wesen,Negativ,Positiv,Bedrohung,NA,NA,negative,c,c,1,1580150,1580540,1580541,435,none,none,none,none,1581000
38,old,starting_first,incompatible_first,incompatible_first,ES_purple,second_IAT_first_block,ending,incompatible,34,none,attribute,task_repetition,response_repetition,Lila Wesen,Gelbe Wesen,Negativ,Positiv,Versagen,NA,NA,negative,c,c,1,1581774,1582170,1582170,506,none,none,none,none,1582700
38,old,starting_first,incompatible_first,incompatible_first,ES_purple,second_IAT_first_block,ending,incompatible,35,none,target,task_switch,response_repetition,Lila Wesen,Gelbe Wesen,Negativ,Positiv,IAT_purple4.bmp,purple,ending_scream,NA,c,c,1,1583390,1583780,1583780,470,none,none,none,none,1584270
38,old,starting_first,incompatible_first,incompatible_first,ES_purple,second_IAT_first_block,ending,incompatible,36,none,attribute,task_switch,response_switch,Lila Wesen,Gelbe Wesen,Negativ,Positiv,Liebe,NA,NA,positive,m,m,1,1584980,1585370,1585370,373,none,none,none,none,1585770
38,old,starting_first,incompatible_first,incompatible_first,ES_purple,second_IAT_first_block,ending,incompatible,37,none,target,task_switch,response_repetition,Lila Wesen,Gelbe Wesen,Negativ,Positiv,IAT_yellow1.bmp,yellow,ending_melody,NA,m,m,1,1586480,1586870,1586870,500,none,none,none,none,1587390
38,old,starting_first,incompatible_first,incompatible_first,ES_purple,second_IAT_first_block,ending,incompatible,38,none,target,task_repetition,response_repetition,Lila Wesen,Gelbe Wesen,Negativ,Positiv,IAT_yellow2.bmp,yellow,ending_melody,NA,m,m,1,1588091,1588481,1588481,389,none,none,none,none,1588891
38,old,starting_first,incompatible_first,incompatible_first,ES_purple,second_IAT_first_block,ending,incompatible,39,none,target,task_repetition,response_switch,Lila Wesen,Gelbe Wesen,Negativ,Positiv,IAT_purple2.bmp,purple,ending_scream,NA,c,c,1,1589591,1589981,1589981,325,none,none,none,none,1590331
38,old,starting_first,incompatible_first,incompatible_first,ES_purple,second_IAT_first_block,ending,incompatible,40,none,attribute,task_switch,response_repetition,Lila Wesen,Gelbe Wesen,Negativ,Positiv,Schmerz,NA,NA,negative,c,c,1,1591060,1591450,1591451,421,none,none,none,none,1591890
38,old,starting_first,incompatible_first,incompatible_first,ES_purple,second_IAT_first_block,ending,incompatible,41,none,attribute,task_repetition,response_repetition,Lila Wesen,Gelbe Wesen,Negativ,Positiv,Trauer,NA,NA,negative,c,c,1,1592610,1593000,1593001,611,none,none,none,none,1593640
38,old,starting_first,incompatible_first,incompatible_first,ES_purple,second_IAT_first_block,ending,incompatible,42,none,attribute,task_repetition,response_switch,Lila Wesen,Gelbe Wesen,Negativ,Positiv,Frieden,NA,NA,positive,m,m,1,1594380,1594770,1594771,507,none,none,none,none,1595300
38,old,starting_first,incompatible_first,incompatible_first,ES_purple,second_IAT_first_block,ending,incompatible,43,none,target,task_switch,response_switch,Lila Wesen,Gelbe Wesen,Negativ,Positiv,IAT_purple3.bmp,purple,ending_scream,NA,c,c,1,1595990,1596380,1596380,563,none,none,none,none,1596970
38,old,starting_first,incompatible_first,incompatible_first,ES_purple,second_IAT_first_block,ending,incompatible,44,none,attribute,task_switch,response_switch,Lila Wesen,Gelbe Wesen,Negativ,Positiv,Glücklich,NA,NA,positive,m,m,1,1597690,1598080,1598080,658,none,none,none,none,1598760
38,old,starting_first,incompatible_first,incompatible_first,ES_purple,second_IAT_first_block,ending,incompatible,45,none,attribute,task_repetition,response_switch,Lila Wesen,Gelbe Wesen,Negativ,Positiv,Böse,NA,NA,negative,c,c,1,1599490,1599880,1599880,495,none,none,none,none,1600400
38,old,starting_first,incompatible_first,incompatible_first,ES_purple,second_IAT_first_block,ending,incompatible,46,none,target,task_switch,response_switch,Lila Wesen,Gelbe Wesen,Negativ,Positiv,IAT_yellow4.bmp,yellow,ending_melody,NA,m,m,1,1601120,1601510,1601510,455,none,none,none,none,1601990
38,old,starting_first,incompatible_first,incompatible_first,ES_purple,second_IAT_first_block,ending,incompatible,47,none,attribute,task_switch,response_repetition,Lila Wesen,Gelbe Wesen,Negativ,Positiv,Wundervoll,NA,NA,positive,m,m,1,1602760,1603150,1603150,601,none,none,none,none,1603770
38,old,starting_first,incompatible_first,incompatible_first,ES_purple,second_IAT_first_block,ending,incompatible,48,none,attribute,task_repetition,response_repetition,Lila Wesen,Gelbe Wesen,Negativ,Positiv,Freude,NA,NA,positive,m,m,1,1604563,1604960,1604960,481,none,none,none,none,1605460
