subject_nr,contrast_group,iat_order,block_order_1,block_order_2,color_counter,which_IAT_which_block,current_contrast,current_comp,trialnr,trial_type,target_type,task_switch, response_switch,left_target,right_target,left_attribute,right_attribute,trial_target,target_color,target_role,attribute_valence,correct_response,response_first_response,correct_first_response,time_assignments_show,time_target_show,time_first_response,response_time_first_response,response_force_correct,correct_force_correct,time_force_correct,response_time_force_correct,time_logger
36,new,melody_first,compatible_first,compatible_first,ES_green,second_IAT_second_block,scream,incompatible,0,none,attribute,NA,NA,Grüne Wesen,Lila Wesen,Negativ,Positiv,Wundervoll,NA,NA,positive,m,m,1,1435708,1436098,1436098,553,none,none,none,none,1436678
36,new,melody_first,compatible_first,compatible_first,ES_green,second_IAT_second_block,scream,incompatible,1,none,target,task_switch,response_switch,Grüne Wesen,Lila Wesen,Negativ,Positiv,IAT_green4.bmp,green,ending_scream,NA,c,c,1,1437378,1437768,1437768,475,none,none,none,none,1438268
36,new,melody_first,compatible_first,compatible_first,ES_green,second_IAT_second_block,scream,incompatible,2,none,attribute,task_switch,response_repetition,Grüne Wesen,Lila Wesen,Negativ,Positiv,Böse,NA,NA,negative,c,c,1,1438998,1439388,1439388,523,none,none,none,none,1439938
36,new,melody_first,compatible_first,compatible_first,ES_green,second_IAT_second_block,scream,incompatible,3,none,attribute,task_repetition,response_repetition,Grüne Wesen,Lila Wesen,Negativ,Positiv,Bedrohung,NA,NA,negative,c,c,1,1440658,1441048,1441048,485,none,none,none,none,1441558
36,new,melody_first,compatible_first,compatible_first,ES_green,second_IAT_second_block,scream,incompatible,4,none,attribute,task_repetition,response_repetition,Grüne Wesen,Lila Wesen,Negativ,Positiv,Schlecht,NA,NA,negative,c,c,1,1442288,1442677,1442678,569,none,none,none,none,1443267
36,new,melody_first,compatible_first,compatible_first,ES_green,second_IAT_second_block,scream,incompatible,5,none,target,task_switch,response_repetition,Grüne Wesen,Lila Wesen,Negativ,Positiv,IAT_green2.bmp,green,ending_scream,NA,c,c,1,1443957,1444347,1444348,456,none,none,none,none,1444827
36,new,melody_first,compatible_first,compatible_first,ES_green,second_IAT_second_block,scream,incompatible,6,none,target,task_repetition,response_repetition,Grüne Wesen,Lila Wesen,Negativ,Positiv,IAT_green1.bmp,green,ending_scream,NA,c,c,1,1445587,1445977,1445977,472,none,none,none,none,1446477
36,new,melody_first,compatible_first,compatible_first,ES_green,second_IAT_second_block,scream,incompatible,7,none,attribute,task_switch,response_switch,Grüne Wesen,Lila Wesen,Negativ,Positiv,Liebe,NA,NA,positive,m,m,1,1447207,1447597,1447597,455,none,none,none,none,1448077
36,new,melody_first,compatible_first,compatible_first,ES_green,second_IAT_second_block,scream,incompatible,8,none,attribute,task_repetition,response_repetition,Grüne Wesen,Lila Wesen,Negativ,Positiv,Spaß,NA,NA,positive,m,m,1,1448808,1449198,1449198,455,none,none,none,none,1449678
36,new,melody_first,compatible_first,compatible_first,ES_green,second_IAT_second_block,scream,incompatible,9,none,attribute,task_repetition,response_switch,Grüne Wesen,Lila Wesen,Negativ,Positiv,Trauer,NA,NA,negative,c,c,1,1450388,1450778,1450778,570,none,none,none,none,1451368
36,new,melody_first,compatible_first,compatible_first,ES_green,second_IAT_second_block,scream,incompatible,10,none,attribute,task_repetition,response_switch,Grüne Wesen,Lila Wesen,Negativ,Positiv,Frieden,NA,NA,positive,m,c,0,1452078,1452468,1452468,393,m,1,1452878,255,1453158
36,new,melody_first,compatible_first,compatible_first,ES_green,second_IAT_second_block,scream,incompatible,11,none,attribute,task_repetition,response_repetition,Grüne Wesen,Lila Wesen,Negativ,Positiv,Wundervoll,NA,NA,positive,m,m,1,1453909,1454297,1454298,507,none,none,none,none,1454828
36,new,melody_first,compatible_first,compatible_first,ES_green,second_IAT_second_block,scream,incompatible,12,none,target,task_switch,response_switch,Grüne Wesen,Lila Wesen,Negativ,Positiv,IAT_green3.bmp,green,ending_scream,NA,c,c,1,1455517,1455907,1455908,596,none,none,none,none,1456527
36,new,melody_first,compatible_first,compatible_first,ES_green,second_IAT_second_block,scream,incompatible,13,none,target,task_repetition,response_switch,Grüne Wesen,Lila Wesen,Negativ,Positiv,IAT_purple3.bmp,purple,starting_scream,NA,m,m,1,1457237,1457627,1457627,376,none,none,none,none,1458027
36,new,melody_first,compatible_first,compatible_first,ES_green,second_IAT_second_block,scream,incompatible,14,none,target,task_repetition,response_repetition,Grüne Wesen,Lila Wesen,Negativ,Positiv,IAT_purple1.bmp,purple,starting_scream,NA,m,m,1,1458727,1459117,1459117,413,none,none,none,none,1459557
36,new,melody_first,compatible_first,compatible_first,ES_green,second_IAT_second_block,scream,incompatible,15,none,target,task_repetition,response_switch,Grüne Wesen,Lila Wesen,Negativ,Positiv,IAT_green4.bmp,green,ending_scream,NA,c,c,1,1460257,1460647,1460647,366,none,none,none,none,1461037
36,new,melody_first,compatible_first,compatible_first,ES_green,second_IAT_second_block,scream,incompatible,16,none,target,task_repetition,response_repetition,Grüne Wesen,Lila Wesen,Negativ,Positiv,IAT_green1.bmp,green,ending_scream,NA,c,c,1,1461747,1462137,1462137,442,none,none,none,none,1462607
36,new,melody_first,compatible_first,compatible_first,ES_green,second_IAT_second_block,scream,incompatible,17,none,target,task_repetition,response_repetition,Grüne Wesen,Lila Wesen,Negativ,Positiv,IAT_green3.bmp,green,ending_scream,NA,c,c,1,1463307,1463697,1463697,429,none,none,none,none,1464147
36,new,melody_first,compatible_first,compatible_first,ES_green,second_IAT_second_block,scream,incompatible,18,none,attribute,task_switch,response_repetition,Grüne Wesen,Lila Wesen,Negativ,Positiv,Versagen,NA,NA,negative,c,c,1,1464877,1465267,1465267,650,none,none,none,none,1465938
36,new,melody_first,compatible_first,compatible_first,ES_green,second_IAT_second_block,scream,incompatible,19,none,target,task_switch,response_switch,Grüne Wesen,Lila Wesen,Negativ,Positiv,IAT_purple4.bmp,purple,starting_scream,NA,m,m,1,1466637,1467027,1467028,537,none,none,none,none,1467587
36,new,melody_first,compatible_first,compatible_first,ES_green,second_IAT_second_block,scream,incompatible,20,none,target,task_repetition,response_switch,Grüne Wesen,Lila Wesen,Negativ,Positiv,IAT_green2.bmp,green,ending_scream,NA,c,c,1,1468287,1468677,1468677,582,none,none,none,none,1469287
36,new,melody_first,compatible_first,compatible_first,ES_green,second_IAT_second_block,scream,incompatible,21,none,target,task_repetition,response_switch,Grüne Wesen,Lila Wesen,Negativ,Positiv,IAT_purple2.bmp,purple,starting_scream,NA,m,m,1,1469977,1470367,1470367,690,none,none,none,none,1471077
36,new,melody_first,compatible_first,compatible_first,ES_green,second_IAT_second_block,scream,incompatible,22,none,target,task_repetition,response_repetition,Grüne Wesen,Lila Wesen,Negativ,Positiv,IAT_purple4.bmp,purple,starting_scream,NA,m,m,1,1471777,1472167,1472167,379,none,none,none,none,1472567
36,new,melody_first,compatible_first,compatible_first,ES_green,second_IAT_second_block,scream,incompatible,23,none,attribute,task_switch,response_switch,Grüne Wesen,Lila Wesen,Negativ,Positiv,Schmerz,NA,NA,negative,c,c,1,1473297,1473687,1473687,539,none,none,none,none,1474247
36,new,melody_first,compatible_first,compatible_first,ES_green,second_IAT_second_block,scream,incompatible,24,none,target,task_switch,response_repetition,Grüne Wesen,Lila Wesen,Negativ,Positiv,IAT_green4.bmp,green,ending_scream,NA,c,c,1,1474980,1475377,1475377,499,none,none,none,none,1475897
36,new,melody_first,compatible_first,compatible_first,ES_green,second_IAT_second_block,scream,incompatible,25,none,attribute,task_switch,response_switch,Grüne Wesen,Lila Wesen,Negativ,Positiv,Glücklich,NA,NA,positive,m,m,1,1476627,1477017,1477017,563,none,none,none,none,1477607
36,new,melody_first,compatible_first,compatible_first,ES_green,second_IAT_second_block,scream,incompatible,26,none,attribute,task_repetition,response_repetition,Grüne Wesen,Lila Wesen,Negativ,Positiv,Freude,NA,NA,positive,m,m,1,1478327,1478716,1478717,447,none,none,none,none,1479187
36,new,melody_first,compatible_first,compatible_first,ES_green,second_IAT_second_block,scream,incompatible,27,none,target,task_switch,response_repetition,Grüne Wesen,Lila Wesen,Negativ,Positiv,IAT_purple1.bmp,purple,starting_scream,NA,m,m,1,1479896,1480286,1480287,749,none,none,none,none,1481056
36,new,melody_first,compatible_first,compatible_first,ES_green,second_IAT_second_block,scream,incompatible,28,none,attribute,task_switch,response_switch,Grüne Wesen,Lila Wesen,Negativ,Positiv,Trauer,NA,NA,negative,c,c,1,1481776,1482166,1482166,574,none,none,none,none,1482766
36,new,melody_first,compatible_first,compatible_first,ES_green,second_IAT_second_block,scream,incompatible,29,none,target,task_switch,response_repetition,Grüne Wesen,Lila Wesen,Negativ,Positiv,IAT_green1.bmp,green,ending_scream,NA,c,m,0,1483467,1483857,1483857,655,c,1,1484527,692,1485247
36,new,melody_first,compatible_first,compatible_first,ES_green,second_IAT_second_block,scream,incompatible,30,none,target,task_repetition,response_switch,Grüne Wesen,Lila Wesen,Negativ,Positiv,IAT_purple2.bmp,purple,starting_scream,NA,m,m,1,1485937,1486327,1486327,423,none,none,none,none,1486777
36,new,melody_first,compatible_first,compatible_first,ES_green,second_IAT_second_block,scream,incompatible,31,none,attribute,task_switch,response_switch,Grüne Wesen,Lila Wesen,Negativ,Positiv,Bedrohung,NA,NA,negative,c,c,1,1487517,1487907,1487907,569,none,none,none,none,1488497
36,new,melody_first,compatible_first,compatible_first,ES_green,second_IAT_second_block,scream,incompatible,32,none,target,task_switch,response_switch,Grüne Wesen,Lila Wesen,Negativ,Positiv,IAT_purple3.bmp,purple,starting_scream,NA,m,m,1,1489197,1489587,1489587,411,none,none,none,none,1490017
36,new,melody_first,compatible_first,compatible_first,ES_green,second_IAT_second_block,scream,incompatible,33,none,target,task_repetition,response_repetition,Grüne Wesen,Lila Wesen,Negativ,Positiv,IAT_purple4.bmp,purple,starting_scream,NA,m,m,1,1490716,1491106,1491107,386,none,none,none,none,1491516
36,new,melody_first,compatible_first,compatible_first,ES_green,second_IAT_second_block,scream,incompatible,34,none,attribute,task_switch,response_repetition,Grüne Wesen,Lila Wesen,Negativ,Positiv,Glücklich,NA,NA,positive,m,m,1,1492246,1492636,1492637,503,none,none,none,none,1493166
36,new,melody_first,compatible_first,compatible_first,ES_green,second_IAT_second_block,scream,incompatible,35,none,attribute,task_repetition,response_switch,Grüne Wesen,Lila Wesen,Negativ,Positiv,Böse,NA,NA,negative,c,c,1,1493876,1494266,1494266,492,none,none,none,none,1494786
36,new,melody_first,compatible_first,compatible_first,ES_green,second_IAT_second_block,scream,incompatible,36,none,attribute,task_repetition,response_repetition,Grüne Wesen,Lila Wesen,Negativ,Positiv,Schlecht,NA,NA,negative,c,c,1,1495536,1495926,1495926,594,none,none,none,none,1496546
36,new,melody_first,compatible_first,compatible_first,ES_green,second_IAT_second_block,scream,incompatible,37,none,target,task_switch,response_switch,Grüne Wesen,Lila Wesen,Negativ,Positiv,IAT_purple1.bmp,purple,starting_scream,NA,m,m,1,1497256,1497646,1497646,551,none,none,none,none,1498216
36,new,melody_first,compatible_first,compatible_first,ES_green,second_IAT_second_block,scream,incompatible,38,none,target,task_repetition,response_switch,Grüne Wesen,Lila Wesen,Negativ,Positiv,IAT_green2.bmp,green,ending_scream,NA,c,c,1,1498958,1499346,1499346,384,none,none,none,none,1499756
36,new,melody_first,compatible_first,compatible_first,ES_green,second_IAT_second_block,scream,incompatible,39,none,attribute,task_switch,response_repetition,Grüne Wesen,Lila Wesen,Negativ,Positiv,Versagen,NA,NA,negative,c,c,1,1500476,1500867,1500867,503,none,none,none,none,1501397
36,new,melody_first,compatible_first,compatible_first,ES_green,second_IAT_second_block,scream,incompatible,40,none,attribute,task_repetition,response_switch,Grüne Wesen,Lila Wesen,Negativ,Positiv,Wundervoll,NA,NA,positive,m,m,1,1502127,1502516,1502517,572,none,none,none,none,1503117
36,new,melody_first,compatible_first,compatible_first,ES_green,second_IAT_second_block,scream,incompatible,41,none,attribute,task_repetition,response_switch,Grüne Wesen,Lila Wesen,Negativ,Positiv,Schmerz,NA,NA,negative,c,c,1,1503846,1504236,1504237,518,none,none,none,none,1504776
36,new,melody_first,compatible_first,compatible_first,ES_green,second_IAT_second_block,scream,incompatible,42,none,attribute,task_repetition,response_switch,Grüne Wesen,Lila Wesen,Negativ,Positiv,Freude,NA,NA,positive,m,m,1,1505496,1505886,1505886,497,none,none,none,none,1506406
36,new,melody_first,compatible_first,compatible_first,ES_green,second_IAT_second_block,scream,incompatible,43,none,target,task_switch,response_switch,Grüne Wesen,Lila Wesen,Negativ,Positiv,IAT_green3.bmp,green,ending_scream,NA,c,c,1,1507106,1507496,1507496,581,none,none,none,none,1508096
36,new,melody_first,compatible_first,compatible_first,ES_green,second_IAT_second_block,scream,incompatible,44,none,attribute,task_switch,response_switch,Grüne Wesen,Lila Wesen,Negativ,Positiv,Liebe,NA,NA,positive,m,m,1,1508826,1509216,1509216,444,none,none,none,none,1509686
36,new,melody_first,compatible_first,compatible_first,ES_green,second_IAT_second_block,scream,incompatible,45,none,target,task_switch,response_repetition,Grüne Wesen,Lila Wesen,Negativ,Positiv,IAT_purple2.bmp,purple,starting_scream,NA,m,m,1,1510396,1510786,1510786,667,none,none,none,none,1511476
36,new,melody_first,compatible_first,compatible_first,ES_green,second_IAT_second_block,scream,incompatible,46,none,attribute,task_switch,response_repetition,Grüne Wesen,Lila Wesen,Negativ,Positiv,Frieden,NA,NA,positive,m,m,1,1512206,1512596,1512596,570,none,none,none,none,1513186
36,new,melody_first,compatible_first,compatible_first,ES_green,second_IAT_second_block,scream,incompatible,47,none,target,task_switch,response_repetition,Grüne Wesen,Lila Wesen,Negativ,Positiv,IAT_purple3.bmp,purple,starting_scream,NA,m,m,1,1513886,1514276,1514276,285,none,none,none,none,1514586
36,new,melody_first,compatible_first,compatible_first,ES_green,second_IAT_second_block,scream,incompatible,48,none,attribute,task_switch,response_repetition,Grüne Wesen,Lila Wesen,Negativ,Positiv,Spaß,NA,NA,positive,m,m,1,1515305,1515695,1515696,458,none,none,none,none,1516175
