subject_nr,contrast_group,iat_order,block_order_1,block_order_2,color_counter,which_IAT_which_block,current_contrast,current_comp,trialnr,trial_type,target_type,task_switch, response_switch,left_target,right_target,left_attribute,right_attribute,trial_target,target_color,target_role,attribute_valence,correct_response,response_first_response,correct_first_response,time_assignments_show,time_target_show,time_first_response,response_time_first_response,response_force_correct,correct_force_correct,time_force_correct,response_time_force_correct,time_logger
50,new,melody_first,incompatible_first,incompatible_first,ES_purple,second_IAT_first_block,scream,incompatible,0,none,attribute,NA,NA,Lila Wesen,Rote Wesen,Negativ,Positiv,Trauer,NA,NA,negative,c,c,1,1380010,1380400,1380401,634,none,none,none,none,1381060
50,new,melody_first,incompatible_first,incompatible_first,ES_purple,second_IAT_first_block,scream,incompatible,1,none,target,task_switch,response_switch,Lila Wesen,Rote Wesen,Negativ,Positiv,IAT_red4.bmp,red,starting_scream,NA,m,m,1,1381760,1382150,1382151,533,none,none,none,none,1382710
50,new,melody_first,incompatible_first,incompatible_first,ES_purple,second_IAT_first_block,scream,incompatible,2,none,attribute,task_switch,response_repetition,Lila Wesen,Rote Wesen,Negativ,Positiv,Glücklich,NA,NA,positive,m,m,1,1383440,1383830,1383830,526,none,none,none,none,1384380
50,new,melody_first,incompatible_first,incompatible_first,ES_purple,second_IAT_first_block,scream,incompatible,3,none,target,task_switch,response_switch,Lila Wesen,Rote Wesen,Negativ,Positiv,IAT_purple1.bmp,purple,ending_scream,NA,c,c,1,1385070,1385460,1385460,390,none,none,none,none,1385870
50,new,melody_first,incompatible_first,incompatible_first,ES_purple,second_IAT_first_block,scream,incompatible,4,none,attribute,task_switch,response_switch,Lila Wesen,Rote Wesen,Negativ,Positiv,Spaß,NA,NA,positive,m,m,1,1386600,1386990,1386990,457,none,none,none,none,1387470
50,new,melody_first,incompatible_first,incompatible_first,ES_purple,second_IAT_first_block,scream,incompatible,5,none,target,task_switch,response_switch,Lila Wesen,Rote Wesen,Negativ,Positiv,IAT_purple3.bmp,purple,ending_scream,NA,c,c,1,1388270,1388660,1388660,406,none,none,none,none,1389090
50,new,melody_first,incompatible_first,incompatible_first,ES_purple,second_IAT_first_block,scream,incompatible,6,none,attribute,task_switch,response_repetition,Lila Wesen,Rote Wesen,Negativ,Positiv,Versagen,NA,NA,negative,c,c,1,1389850,1390240,1390240,534,none,none,none,none,1390800
50,new,melody_first,incompatible_first,incompatible_first,ES_purple,second_IAT_first_block,scream,incompatible,7,none,target,task_switch,response_switch,Lila Wesen,Rote Wesen,Negativ,Positiv,IAT_red3.bmp,red,starting_scream,NA,m,m,1,1391521,1391909,1391910,485,none,none,none,none,1392419
50,new,melody_first,incompatible_first,incompatible_first,ES_purple,second_IAT_first_block,scream,incompatible,8,none,attribute,task_switch,response_switch,Lila Wesen,Rote Wesen,Negativ,Positiv,Schmerz,NA,NA,negative,c,c,1,1393149,1393539,1393540,516,none,none,none,none,1394079
50,new,melody_first,incompatible_first,incompatible_first,ES_purple,second_IAT_first_block,scream,incompatible,9,none,attribute,task_repetition,response_switch,Lila Wesen,Rote Wesen,Negativ,Positiv,Frieden,NA,NA,positive,m,m,1,1394799,1395189,1395189,445,none,none,none,none,1395659
50,new,melody_first,incompatible_first,incompatible_first,ES_purple,second_IAT_first_block,scream,incompatible,10,none,target,task_switch,response_repetition,Lila Wesen,Rote Wesen,Negativ,Positiv,IAT_red1.bmp,red,starting_scream,NA,m,m,1,1396360,1396750,1396750,452,none,none,none,none,1397230
50,new,melody_first,incompatible_first,incompatible_first,ES_purple,second_IAT_first_block,scream,incompatible,11,none,attribute,task_switch,response_switch,Lila Wesen,Rote Wesen,Negativ,Positiv,Bedrohung,NA,NA,negative,c,c,1,1397950,1398340,1398340,474,none,none,none,none,1398840
50,new,melody_first,incompatible_first,incompatible_first,ES_purple,second_IAT_first_block,scream,incompatible,12,none,attribute,task_repetition,response_repetition,Lila Wesen,Rote Wesen,Negativ,Positiv,Böse,NA,NA,negative,c,c,1,1399570,1399960,1399960,485,none,none,none,none,1400470
50,new,melody_first,incompatible_first,incompatible_first,ES_purple,second_IAT_first_block,scream,incompatible,13,none,target,task_switch,response_repetition,Lila Wesen,Rote Wesen,Negativ,Positiv,IAT_purple4.bmp,purple,ending_scream,NA,c,m,0,1401180,1401570,1401570,428,c,1,1402010,427,1402460
50,new,melody_first,incompatible_first,incompatible_first,ES_purple,second_IAT_first_block,scream,incompatible,14,none,attribute,task_switch,response_switch,Lila Wesen,Rote Wesen,Negativ,Positiv,Liebe,NA,NA,positive,m,m,1,1403200,1403589,1403590,443,none,none,none,none,1404060
50,new,melody_first,incompatible_first,incompatible_first,ES_purple,second_IAT_first_block,scream,incompatible,15,none,attribute,task_repetition,response_repetition,Lila Wesen,Rote Wesen,Negativ,Positiv,Freude,NA,NA,positive,m,m,1,1404779,1405169,1405170,484,none,none,none,none,1405679
50,new,melody_first,incompatible_first,incompatible_first,ES_purple,second_IAT_first_block,scream,incompatible,16,none,target,task_switch,response_repetition,Lila Wesen,Rote Wesen,Negativ,Positiv,IAT_red2.bmp,red,starting_scream,NA,m,m,1,1406379,1406769,1406770,411,none,none,none,none,1407209
50,new,melody_first,incompatible_first,incompatible_first,ES_purple,second_IAT_first_block,scream,incompatible,17,none,target,task_repetition,response_switch,Lila Wesen,Rote Wesen,Negativ,Positiv,IAT_purple2.bmp,purple,ending_scream,NA,c,c,1,1407899,1408289,1408289,342,none,none,none,none,1408659
50,new,melody_first,incompatible_first,incompatible_first,ES_purple,second_IAT_first_block,scream,incompatible,18,none,attribute,task_switch,response_switch,Lila Wesen,Rote Wesen,Negativ,Positiv,Wundervoll,NA,NA,positive,m,m,1,1409459,1409849,1409849,558,none,none,none,none,1410429
50,new,melody_first,incompatible_first,incompatible_first,ES_purple,second_IAT_first_block,scream,incompatible,19,none,attribute,task_repetition,response_repetition,Lila Wesen,Rote Wesen,Negativ,Positiv,Freude,NA,NA,positive,m,m,1,1411199,1411589,1411589,469,none,none,none,none,1412079
50,new,melody_first,incompatible_first,incompatible_first,ES_purple,second_IAT_first_block,scream,incompatible,20,none,attribute,task_repetition,response_switch,Lila Wesen,Rote Wesen,Negativ,Positiv,Schlecht,NA,NA,negative,c,c,1,1412871,1413260,1413260,434,none,none,none,none,1413720
50,new,melody_first,incompatible_first,incompatible_first,ES_purple,second_IAT_first_block,scream,incompatible,21,none,target,task_switch,response_repetition,Lila Wesen,Rote Wesen,Negativ,Positiv,IAT_purple4.bmp,purple,ending_scream,NA,c,c,1,1414420,1414810,1414810,521,none,none,none,none,1415350
50,new,melody_first,incompatible_first,incompatible_first,ES_purple,second_IAT_first_block,scream,incompatible,22,none,target,task_repetition,response_switch,Lila Wesen,Rote Wesen,Negativ,Positiv,IAT_red1.bmp,red,starting_scream,NA,m,m,1,1416069,1416459,1416460,486,none,none,none,none,1416970
50,new,melody_first,incompatible_first,incompatible_first,ES_purple,second_IAT_first_block,scream,incompatible,23,none,attribute,task_switch,response_switch,Lila Wesen,Rote Wesen,Negativ,Positiv,Trauer,NA,NA,negative,c,c,1,1417699,1418089,1418090,608,none,none,none,none,1418719
50,new,melody_first,incompatible_first,incompatible_first,ES_purple,second_IAT_first_block,scream,incompatible,24,none,attribute,task_repetition,response_repetition,Lila Wesen,Rote Wesen,Negativ,Positiv,Schmerz,NA,NA,negative,c,c,1,1419459,1419849,1419850,403,none,none,none,none,1420279
50,new,melody_first,incompatible_first,incompatible_first,ES_purple,second_IAT_first_block,scream,incompatible,25,none,attribute,task_repetition,response_repetition,Lila Wesen,Rote Wesen,Negativ,Positiv,Bedrohung,NA,NA,negative,c,c,1,1421009,1421399,1421399,526,none,none,none,none,1421949
50,new,melody_first,incompatible_first,incompatible_first,ES_purple,second_IAT_first_block,scream,incompatible,26,none,attribute,task_repetition,response_switch,Lila Wesen,Rote Wesen,Negativ,Positiv,Frieden,NA,NA,positive,m,m,1,1422669,1423059,1423059,479,none,none,none,none,1423559
50,new,melody_first,incompatible_first,incompatible_first,ES_purple,second_IAT_first_block,scream,incompatible,27,none,attribute,task_repetition,response_repetition,Lila Wesen,Rote Wesen,Negativ,Positiv,Liebe,NA,NA,positive,m,m,1,1424279,1424669,1424669,482,none,none,none,none,1425179
50,new,melody_first,incompatible_first,incompatible_first,ES_purple,second_IAT_first_block,scream,incompatible,28,none,target,task_switch,response_repetition,Lila Wesen,Rote Wesen,Negativ,Positiv,IAT_red3.bmp,red,starting_scream,NA,m,m,1,1425869,1426259,1426259,477,none,none,none,none,1426759
50,new,melody_first,incompatible_first,incompatible_first,ES_purple,second_IAT_first_block,scream,incompatible,29,none,target,task_repetition,response_repetition,Lila Wesen,Rote Wesen,Negativ,Positiv,IAT_red2.bmp,red,starting_scream,NA,m,m,1,1427489,1427879,1427879,651,none,none,none,none,1428549
50,new,melody_first,incompatible_first,incompatible_first,ES_purple,second_IAT_first_block,scream,incompatible,30,none,target,task_repetition,response_repetition,Lila Wesen,Rote Wesen,Negativ,Positiv,IAT_red4.bmp,red,starting_scream,NA,m,m,1,1429258,1429648,1429649,343,none,none,none,none,1430018
50,new,melody_first,incompatible_first,incompatible_first,ES_purple,second_IAT_first_block,scream,incompatible,31,none,attribute,task_switch,response_repetition,Lila Wesen,Rote Wesen,Negativ,Positiv,Spaß,NA,NA,positive,m,m,1,1430729,1431119,1431120,445,none,none,none,none,1431589
50,new,melody_first,incompatible_first,incompatible_first,ES_purple,second_IAT_first_block,scream,incompatible,32,none,attribute,task_repetition,response_switch,Lila Wesen,Rote Wesen,Negativ,Positiv,Versagen,NA,NA,negative,c,c,1,1432319,1432709,1432710,425,none,none,none,none,1433159
50,new,melody_first,incompatible_first,incompatible_first,ES_purple,second_IAT_first_block,scream,incompatible,33,none,target,task_switch,response_switch,Lila Wesen,Rote Wesen,Negativ,Positiv,IAT_red1.bmp,red,starting_scream,NA,m,m,1,1433879,1434269,1434269,568,none,none,none,none,1434859
50,new,melody_first,incompatible_first,incompatible_first,ES_purple,second_IAT_first_block,scream,incompatible,34,none,target,task_repetition,response_repetition,Lila Wesen,Rote Wesen,Negativ,Positiv,IAT_red2.bmp,red,starting_scream,NA,m,m,1,1435631,1436019,1436019,382,none,none,none,none,1436429
50,new,melody_first,incompatible_first,incompatible_first,ES_purple,second_IAT_first_block,scream,incompatible,35,none,target,task_repetition,response_switch,Lila Wesen,Rote Wesen,Negativ,Positiv,IAT_purple1.bmp,purple,ending_scream,NA,c,c,1,1437139,1437529,1437529,436,none,none,none,none,1437989
50,new,melody_first,incompatible_first,incompatible_first,ES_purple,second_IAT_first_block,scream,incompatible,36,none,target,task_repetition,response_repetition,Lila Wesen,Rote Wesen,Negativ,Positiv,IAT_purple2.bmp,purple,ending_scream,NA,c,c,1,1438689,1439079,1439079,379,none,none,none,none,1439479
50,new,melody_first,incompatible_first,incompatible_first,ES_purple,second_IAT_first_block,scream,incompatible,37,none,target,task_repetition,response_repetition,Lila Wesen,Rote Wesen,Negativ,Positiv,IAT_purple3.bmp,purple,ending_scream,NA,c,c,1,1440179,1440569,1440569,359,none,none,none,none,1440949
50,new,melody_first,incompatible_first,incompatible_first,ES_purple,second_IAT_first_block,scream,incompatible,38,none,target,task_repetition,response_repetition,Lila Wesen,Rote Wesen,Negativ,Positiv,IAT_purple1.bmp,purple,ending_scream,NA,c,c,1,1441648,1442038,1442039,352,none,none,none,none,1442418
50,new,melody_first,incompatible_first,incompatible_first,ES_purple,second_IAT_first_block,scream,incompatible,39,none,target,task_repetition,response_switch,Lila Wesen,Rote Wesen,Negativ,Positiv,IAT_red3.bmp,red,starting_scream,NA,m,m,1,1443128,1443518,1443519,579,none,none,none,none,1444118
50,new,melody_first,incompatible_first,incompatible_first,ES_purple,second_IAT_first_block,scream,incompatible,40,none,target,task_repetition,response_switch,Lila Wesen,Rote Wesen,Negativ,Positiv,IAT_purple2.bmp,purple,ending_scream,NA,c,c,1,1444818,1445208,1445208,431,none,none,none,none,1445658
50,new,melody_first,incompatible_first,incompatible_first,ES_purple,second_IAT_first_block,scream,incompatible,41,none,attribute,task_switch,response_repetition,Lila Wesen,Rote Wesen,Negativ,Positiv,Trauer,NA,NA,negative,c,c,1,1446398,1446788,1446788,530,none,none,none,none,1447338
50,new,melody_first,incompatible_first,incompatible_first,ES_purple,second_IAT_first_block,scream,incompatible,42,none,attribute,task_repetition,response_switch,Lila Wesen,Rote Wesen,Negativ,Positiv,Wundervoll,NA,NA,positive,m,m,1,1448088,1448479,1448479,569,none,none,none,none,1449069
50,new,melody_first,incompatible_first,incompatible_first,ES_purple,second_IAT_first_block,scream,incompatible,43,none,target,task_switch,response_switch,Lila Wesen,Rote Wesen,Negativ,Positiv,IAT_purple4.bmp,purple,ending_scream,NA,c,c,1,1449759,1450149,1450149,639,none,none,none,none,1450809
50,new,melody_first,incompatible_first,incompatible_first,ES_purple,second_IAT_first_block,scream,incompatible,44,none,target,task_repetition,response_switch,Lila Wesen,Rote Wesen,Negativ,Positiv,IAT_red4.bmp,red,starting_scream,NA,m,m,1,1451509,1451899,1451899,359,none,none,none,none,1452279
50,new,melody_first,incompatible_first,incompatible_first,ES_purple,second_IAT_first_block,scream,incompatible,45,none,attribute,task_switch,response_repetition,Lila Wesen,Rote Wesen,Negativ,Positiv,Glücklich,NA,NA,positive,m,c,0,1452999,1453389,1453389,459,m,1,1453859,302,1454189
50,new,melody_first,incompatible_first,incompatible_first,ES_purple,second_IAT_first_block,scream,incompatible,46,none,attribute,task_repetition,response_switch,Lila Wesen,Rote Wesen,Negativ,Positiv,Schlecht,NA,NA,negative,c,c,1,1454928,1455318,1455319,514,none,none,none,none,1455858
50,new,melody_first,incompatible_first,incompatible_first,ES_purple,second_IAT_first_block,scream,incompatible,47,none,target,task_switch,response_repetition,Lila Wesen,Rote Wesen,Negativ,Positiv,IAT_purple3.bmp,purple,ending_scream,NA,c,c,1,1456608,1456998,1456999,592,none,none,none,none,1457618
50,new,melody_first,incompatible_first,incompatible_first,ES_purple,second_IAT_first_block,scream,incompatible,48,none,attribute,task_switch,response_repetition,Lila Wesen,Rote Wesen,Negativ,Positiv,Böse,NA,NA,negative,c,c,1,1458410,1458798,1458798,494,none,none,none,none,1459318
