subject_nr,contrast_group,iat_order,block_order_1,block_order_2,color_counter,which_IAT_which_block,current_contrast,current_comp,trialnr,trial_type,target_type,task_switch, response_switch,left_target,right_target,left_attribute,right_attribute,trial_target,target_color,target_role,attribute_valence,correct_response,response_first_response,correct_first_response,time_assignments_show,time_target_show,time_first_response,response_time_first_response,response_force_correct,correct_force_correct,time_force_correct,response_time_force_correct,time_logger
35,old,ending_first,incompatible_first,compatible_first,ES_red,first_IAT_first_block,ending,incompatible,0,none,attribute,NA,NA,Rote Wesen,Grüne Wesen,Negativ,Positiv,Trauer,NA,NA,negative,c,c,1,958893,959281,959281,854,none,none,none,none,960161
35,old,ending_first,incompatible_first,compatible_first,ES_red,first_IAT_first_block,ending,incompatible,1,none,attribute,task_repetition,response_switch,Rote Wesen,Grüne Wesen,Negativ,Positiv,Frieden,NA,NA,positive,m,m,1,960881,961271,961271,542,none,none,none,none,961841
35,old,ending_first,incompatible_first,compatible_first,ES_red,first_IAT_first_block,ending,incompatible,2,none,target,task_switch,response_repetition,Rote Wesen,Grüne Wesen,Negativ,Positiv,IAT_green3.bmp,green,ending_melody,NA,m,m,1,962551,962941,962941,646,none,none,none,none,963611
35,old,ending_first,incompatible_first,compatible_first,ES_red,first_IAT_first_block,ending,incompatible,3,none,target,task_repetition,response_repetition,Rote Wesen,Grüne Wesen,Negativ,Positiv,IAT_green2.bmp,green,ending_melody,NA,m,m,1,964311,964701,964701,364,none,none,none,none,965091
35,old,ending_first,incompatible_first,compatible_first,ES_red,first_IAT_first_block,ending,incompatible,4,none,target,task_repetition,response_repetition,Rote Wesen,Grüne Wesen,Negativ,Positiv,IAT_green4.bmp,green,ending_melody,NA,m,m,1,965801,966191,966191,355,none,none,none,none,966571
35,old,ending_first,incompatible_first,compatible_first,ES_red,first_IAT_first_block,ending,incompatible,5,none,attribute,task_switch,response_repetition,Rote Wesen,Grüne Wesen,Negativ,Positiv,Spaß,NA,NA,positive,m,m,1,967301,967690,967691,518,none,none,none,none,968231
35,old,ending_first,incompatible_first,compatible_first,ES_red,first_IAT_first_block,ending,incompatible,6,none,attribute,task_repetition,response_repetition,Rote Wesen,Grüne Wesen,Negativ,Positiv,Glücklich,NA,NA,positive,m,m,1,968960,969350,969351,577,none,none,none,none,969950
35,old,ending_first,incompatible_first,compatible_first,ES_red,first_IAT_first_block,ending,incompatible,7,none,attribute,task_repetition,response_switch,Rote Wesen,Grüne Wesen,Negativ,Positiv,Schmerz,NA,NA,negative,c,c,1,970670,971060,971060,518,none,none,none,none,971600
35,old,ending_first,incompatible_first,compatible_first,ES_red,first_IAT_first_block,ending,incompatible,8,none,attribute,task_repetition,response_repetition,Rote Wesen,Grüne Wesen,Negativ,Positiv,Böse,NA,NA,negative,c,c,1,972320,972710,972710,543,none,none,none,none,973280
35,old,ending_first,incompatible_first,compatible_first,ES_red,first_IAT_first_block,ending,incompatible,9,none,target,task_switch,response_repetition,Rote Wesen,Grüne Wesen,Negativ,Positiv,IAT_red3.bmp,red,ending_scream,NA,c,c,1,973990,974380,974380,543,none,none,none,none,974950
35,old,ending_first,incompatible_first,compatible_first,ES_red,first_IAT_first_block,ending,incompatible,10,none,target,task_repetition,response_repetition,Rote Wesen,Grüne Wesen,Negativ,Positiv,IAT_red1.bmp,red,ending_scream,NA,c,c,1,975650,976041,976041,452,none,none,none,none,976521
35,old,ending_first,incompatible_first,compatible_first,ES_red,first_IAT_first_block,ending,incompatible,11,none,attribute,task_switch,response_repetition,Rote Wesen,Grüne Wesen,Negativ,Positiv,Trauer,NA,NA,negative,c,c,1,977301,977691,977691,526,none,none,none,none,978241
35,old,ending_first,incompatible_first,compatible_first,ES_red,first_IAT_first_block,ending,incompatible,12,none,target,task_switch,response_switch,Rote Wesen,Grüne Wesen,Negativ,Positiv,IAT_green1.bmp,green,ending_melody,NA,m,m,1,978981,979371,979371,456,none,none,none,none,979851
35,old,ending_first,incompatible_first,compatible_first,ES_red,first_IAT_first_block,ending,incompatible,13,none,attribute,task_switch,response_switch,Rote Wesen,Grüne Wesen,Negativ,Positiv,Versagen,NA,NA,negative,c,c,1,980664,981061,981061,611,none,none,none,none,981691
35,old,ending_first,incompatible_first,compatible_first,ES_red,first_IAT_first_block,ending,incompatible,14,none,target,task_switch,response_switch,Rote Wesen,Grüne Wesen,Negativ,Positiv,IAT_green2.bmp,green,ending_melody,NA,m,m,1,982390,982781,982781,625,none,none,none,none,983431
35,old,ending_first,incompatible_first,compatible_first,ES_red,first_IAT_first_block,ending,incompatible,15,none,target,task_repetition,response_switch,Rote Wesen,Grüne Wesen,Negativ,Positiv,IAT_red2.bmp,red,ending_scream,NA,c,c,1,984190,984580,984581,416,none,none,none,none,985020
35,old,ending_first,incompatible_first,compatible_first,ES_red,first_IAT_first_block,ending,incompatible,16,none,attribute,task_switch,response_repetition,Rote Wesen,Grüne Wesen,Negativ,Positiv,Schlecht,NA,NA,negative,c,c,1,985750,986140,986140,522,none,none,none,none,986690
35,old,ending_first,incompatible_first,compatible_first,ES_red,first_IAT_first_block,ending,incompatible,17,none,attribute,task_repetition,response_switch,Rote Wesen,Grüne Wesen,Negativ,Positiv,Freude,NA,NA,positive,m,m,1,987430,987820,987820,481,none,none,none,none,988320
35,old,ending_first,incompatible_first,compatible_first,ES_red,first_IAT_first_block,ending,incompatible,18,none,target,task_switch,response_switch,Rote Wesen,Grüne Wesen,Negativ,Positiv,IAT_red4.bmp,red,ending_scream,NA,c,c,1,989030,989420,989420,657,none,none,none,none,990100
35,old,ending_first,incompatible_first,compatible_first,ES_red,first_IAT_first_block,ending,incompatible,19,none,attribute,task_switch,response_switch,Rote Wesen,Grüne Wesen,Negativ,Positiv,Wundervoll,NA,NA,positive,m,m,1,990820,991210,991210,598,none,none,none,none,991830
35,old,ending_first,incompatible_first,compatible_first,ES_red,first_IAT_first_block,ending,incompatible,20,none,target,task_switch,response_switch,Rote Wesen,Grüne Wesen,Negativ,Positiv,IAT_red2.bmp,red,ending_scream,NA,c,c,1,992530,992920,992920,540,none,none,none,none,993480
35,old,ending_first,incompatible_first,compatible_first,ES_red,first_IAT_first_block,ending,incompatible,21,none,target,task_repetition,response_switch,Rote Wesen,Grüne Wesen,Negativ,Positiv,IAT_green3.bmp,green,ending_melody,NA,m,m,1,994221,994611,994611,467,none,none,none,none,995101
35,old,ending_first,incompatible_first,compatible_first,ES_red,first_IAT_first_block,ending,incompatible,22,none,attribute,task_switch,response_switch,Rote Wesen,Grüne Wesen,Negativ,Positiv,Bedrohung,NA,NA,negative,c,c,1,995831,996221,996221,598,none,none,none,none,996841
35,old,ending_first,incompatible_first,compatible_first,ES_red,first_IAT_first_block,ending,incompatible,23,none,target,task_switch,response_repetition,Rote Wesen,Grüne Wesen,Negativ,Positiv,IAT_red3.bmp,red,ending_scream,NA,c,c,1,997590,997980,997981,584,none,none,none,none,998590
35,old,ending_first,incompatible_first,compatible_first,ES_red,first_IAT_first_block,ending,incompatible,24,none,attribute,task_switch,response_repetition,Rote Wesen,Grüne Wesen,Negativ,Positiv,Bedrohung,NA,NA,negative,c,c,1,999330,999720,999720,430,none,none,none,none,1000170
35,old,ending_first,incompatible_first,compatible_first,ES_red,first_IAT_first_block,ending,incompatible,25,none,attribute,task_repetition,response_repetition,Rote Wesen,Grüne Wesen,Negativ,Positiv,Versagen,NA,NA,negative,c,c,1,1000900,1001290,1001290,531,none,none,none,none,1001840
35,old,ending_first,incompatible_first,compatible_first,ES_red,first_IAT_first_block,ending,incompatible,26,none,target,task_switch,response_switch,Rote Wesen,Grüne Wesen,Negativ,Positiv,IAT_green4.bmp,green,ending_melody,NA,m,m,1,1002570,1002960,1002960,421,none,none,none,none,1003400
35,old,ending_first,incompatible_first,compatible_first,ES_red,first_IAT_first_block,ending,incompatible,27,none,target,task_repetition,response_switch,Rote Wesen,Grüne Wesen,Negativ,Positiv,IAT_red4.bmp,red,ending_scream,NA,c,c,1,1004232,1004620,1004620,439,none,none,none,none,1005080
35,old,ending_first,incompatible_first,compatible_first,ES_red,first_IAT_first_block,ending,incompatible,28,none,attribute,task_switch,response_switch,Rote Wesen,Grüne Wesen,Negativ,Positiv,Liebe,NA,NA,positive,m,m,1,1005830,1006220,1006220,514,none,none,none,none,1006760
35,old,ending_first,incompatible_first,compatible_first,ES_red,first_IAT_first_block,ending,incompatible,29,none,target,task_switch,response_switch,Rote Wesen,Grüne Wesen,Negativ,Positiv,IAT_red1.bmp,red,ending_scream,NA,c,c,1,1007460,1007850,1007850,525,none,none,none,none,1008400
35,old,ending_first,incompatible_first,compatible_first,ES_red,first_IAT_first_block,ending,incompatible,30,none,attribute,task_switch,response_switch,Rote Wesen,Grüne Wesen,Negativ,Positiv,Spaß,NA,NA,positive,m,m,1,1009130,1009520,1009520,480,none,none,none,none,1010020
35,old,ending_first,incompatible_first,compatible_first,ES_red,first_IAT_first_block,ending,incompatible,31,none,target,task_switch,response_repetition,Rote Wesen,Grüne Wesen,Negativ,Positiv,IAT_green1.bmp,green,ending_melody,NA,m,m,1,1010720,1011111,1011111,391,none,none,none,none,1011521
35,old,ending_first,incompatible_first,compatible_first,ES_red,first_IAT_first_block,ending,incompatible,32,none,target,task_repetition,response_switch,Rote Wesen,Grüne Wesen,Negativ,Positiv,IAT_red1.bmp,red,ending_scream,NA,c,c,1,1012278,1012670,1012671,377,none,none,none,none,1013070
35,old,ending_first,incompatible_first,compatible_first,ES_red,first_IAT_first_block,ending,incompatible,33,none,target,task_repetition,response_switch,Rote Wesen,Grüne Wesen,Negativ,Positiv,IAT_green3.bmp,green,ending_melody,NA,m,m,1,1013790,1014180,1014181,426,none,none,none,none,1014630
35,old,ending_first,incompatible_first,compatible_first,ES_red,first_IAT_first_block,ending,incompatible,34,none,target,task_repetition,response_repetition,Rote Wesen,Grüne Wesen,Negativ,Positiv,IAT_green2.bmp,green,ending_melody,NA,m,m,1,1015331,1015720,1015720,492,none,none,none,none,1016240
35,old,ending_first,incompatible_first,compatible_first,ES_red,first_IAT_first_block,ending,incompatible,35,none,attribute,task_switch,response_repetition,Rote Wesen,Grüne Wesen,Negativ,Positiv,Glücklich,NA,NA,positive,m,m,1,1016970,1017360,1017360,595,none,none,none,none,1017980
35,old,ending_first,incompatible_first,compatible_first,ES_red,first_IAT_first_block,ending,incompatible,36,none,attribute,task_repetition,response_switch,Rote Wesen,Grüne Wesen,Negativ,Positiv,Schlecht,NA,NA,negative,c,c,1,1018710,1019100,1019100,497,none,none,none,none,1019620
35,old,ending_first,incompatible_first,compatible_first,ES_red,first_IAT_first_block,ending,incompatible,37,none,attribute,task_repetition,response_switch,Rote Wesen,Grüne Wesen,Negativ,Positiv,Freude,NA,NA,positive,m,m,1,1020340,1020730,1020730,640,none,none,none,none,1021390
35,old,ending_first,incompatible_first,compatible_first,ES_red,first_IAT_first_block,ending,incompatible,38,none,attribute,task_repetition,response_repetition,Rote Wesen,Grüne Wesen,Negativ,Positiv,Frieden,NA,NA,positive,m,m,1,1022130,1022520,1022520,691,none,none,none,none,1023230
35,old,ending_first,incompatible_first,compatible_first,ES_red,first_IAT_first_block,ending,incompatible,39,none,attribute,task_repetition,response_repetition,Rote Wesen,Grüne Wesen,Negativ,Positiv,Wundervoll,NA,NA,positive,m,m,1,1023960,1024350,1024350,438,none,none,none,none,1024810
35,old,ending_first,incompatible_first,compatible_first,ES_red,first_IAT_first_block,ending,incompatible,40,none,target,task_switch,response_repetition,Rote Wesen,Grüne Wesen,Negativ,Positiv,IAT_green4.bmp,green,ending_melody,NA,m,m,1,1025560,1025950,1025950,460,none,none,none,none,1026430
35,old,ending_first,incompatible_first,compatible_first,ES_red,first_IAT_first_block,ending,incompatible,41,none,attribute,task_switch,response_switch,Rote Wesen,Grüne Wesen,Negativ,Positiv,Böse,NA,NA,negative,c,c,1,1027203,1027599,1027600,624,none,none,none,none,1028249
35,old,ending_first,incompatible_first,compatible_first,ES_red,first_IAT_first_block,ending,incompatible,42,none,target,task_switch,response_repetition,Rote Wesen,Grüne Wesen,Negativ,Positiv,IAT_red4.bmp,red,ending_scream,NA,c,c,1,1028950,1029340,1029340,510,none,none,none,none,1029870
35,old,ending_first,incompatible_first,compatible_first,ES_red,first_IAT_first_block,ending,incompatible,43,none,target,task_repetition,response_repetition,Rote Wesen,Grüne Wesen,Negativ,Positiv,IAT_red2.bmp,red,ending_scream,NA,c,c,1,1030570,1030960,1030960,391,none,none,none,none,1031370
35,old,ending_first,incompatible_first,compatible_first,ES_red,first_IAT_first_block,ending,incompatible,44,none,target,task_repetition,response_repetition,Rote Wesen,Grüne Wesen,Negativ,Positiv,IAT_red3.bmp,red,ending_scream,NA,c,c,1,1032090,1032480,1032480,337,none,none,none,none,1032840
35,old,ending_first,incompatible_first,compatible_first,ES_red,first_IAT_first_block,ending,incompatible,45,none,target,task_repetition,response_switch,Rote Wesen,Grüne Wesen,Negativ,Positiv,IAT_green1.bmp,green,ending_melody,NA,m,m,1,1033550,1033940,1033940,450,none,none,none,none,1034410
35,old,ending_first,incompatible_first,compatible_first,ES_red,first_IAT_first_block,ending,incompatible,46,none,attribute,task_switch,response_repetition,Rote Wesen,Grüne Wesen,Negativ,Positiv,Liebe,NA,NA,positive,m,m,1,1035150,1035540,1035540,932,none,none,none,none,1036500
35,old,ending_first,incompatible_first,compatible_first,ES_red,first_IAT_first_block,ending,incompatible,47,none,attribute,task_repetition,response_switch,Rote Wesen,Grüne Wesen,Negativ,Positiv,Schmerz,NA,NA,negative,c,c,1,1037230,1037620,1037620,518,none,none,none,none,1038160
35,old,ending_first,incompatible_first,compatible_first,ES_red,first_IAT_first_block,ending,incompatible,48,none,attribute,task_repetition,response_repetition,Rote Wesen,Grüne Wesen,Negativ,Positiv,Trauer,NA,NA,negative,c,c,1,1038880,1039270,1039270,469,none,none,none,none,1039760
