subject_nr,contrast_group,iat_order,block_order_1,block_order_2,color_counter,which_IAT_which_block,current_contrast,current_comp,trialnr,trial_type,target_type,task_switch, response_switch,left_target,right_target,left_attribute,right_attribute,trial_target,target_color,target_role,attribute_valence,correct_response,response_first_response,correct_first_response,time_assignments_show,time_target_show,time_first_response,response_time_first_response,response_force_correct,correct_force_correct,time_force_correct,response_time_force_correct,time_logger
48,new,melody_first,incompatible_first,compatible_first,ES_purple,first_IAT_first_block,melody,incompatible,0,NA,attribute_practice,attribute_practice,attribute_practice,attribute_practice,attribute_practice,Negativ,Positiv,Wundervoll,attribute_practice,attribute_practice,positive,m,m,1,1060550,1060940,1060941,980,none,none,none,none,1061940
48,new,melody_first,incompatible_first,compatible_first,ES_purple,first_IAT_first_block,melody,incompatible,1,repetition,attribute_practice,attribute_practice,attribute_practice,attribute_practice,attribute_practice,Negativ,Positiv,Freude,attribute_practice,attribute_practice,positive,m,m,1,1062563,1062960,1062960,608,none,none,none,none,1063591
48,new,melody_first,incompatible_first,compatible_first,ES_purple,first_IAT_first_block,melody,incompatible,2,change,attribute_practice,attribute_practice,attribute_practice,attribute_practice,attribute_practice,Negativ,Positiv,Bedrohung,attribute_practice,attribute_practice,negative,c,c,1,1064131,1064521,1064521,532,none,none,none,none,1065071
48,new,melody_first,incompatible_first,compatible_first,ES_purple,first_IAT_first_block,melody,incompatible,3,change,attribute_practice,attribute_practice,attribute_practice,attribute_practice,attribute_practice,Negativ,Positiv,Wundervoll,attribute_practice,attribute_practice,positive,m,m,1,1065631,1066021,1066021,550,none,none,none,none,1066591
48,new,melody_first,incompatible_first,compatible_first,ES_purple,first_IAT_first_block,melody,incompatible,4,repetition,attribute_practice,attribute_practice,attribute_practice,attribute_practice,attribute_practice,Negativ,Positiv,Freude,attribute_practice,attribute_practice,positive,m,m,1,1067121,1067511,1067511,597,none,none,none,none,1068131
48,new,melody_first,incompatible_first,compatible_first,ES_purple,first_IAT_first_block,melody,incompatible,5,change,attribute_practice,attribute_practice,attribute_practice,attribute_practice,attribute_practice,Negativ,Positiv,Schmerz,attribute_practice,attribute_practice,negative,c,c,1,1068671,1069061,1069061,616,none,none,none,none,1069701
48,new,melody_first,incompatible_first,compatible_first,ES_purple,first_IAT_first_block,melody,incompatible,6,change,attribute_practice,attribute_practice,attribute_practice,attribute_practice,attribute_practice,Negativ,Positiv,Frieden,attribute_practice,attribute_practice,positive,m,m,1,1070231,1070621,1070621,556,none,none,none,none,1071201
48,new,melody_first,incompatible_first,compatible_first,ES_purple,first_IAT_first_block,melody,incompatible,7,change,attribute_practice,attribute_practice,attribute_practice,attribute_practice,attribute_practice,Negativ,Positiv,Böse,attribute_practice,attribute_practice,negative,c,c,1,1071730,1072120,1072121,534,none,none,none,none,1072681
48,new,melody_first,incompatible_first,compatible_first,ES_purple,first_IAT_first_block,melody,incompatible,8,repetition,attribute_practice,attribute_practice,attribute_practice,attribute_practice,attribute_practice,Negativ,Positiv,Schlecht,attribute_practice,attribute_practice,negative,c,c,1,1073211,1073600,1073601,650,none,none,none,none,1074270
48,new,melody_first,incompatible_first,compatible_first,ES_purple,first_IAT_first_block,melody,incompatible,9,change,attribute_practice,attribute_practice,attribute_practice,attribute_practice,attribute_practice,Negativ,Positiv,Spaß,attribute_practice,attribute_practice,positive,m,m,1,1074810,1075200,1075200,606,none,none,none,none,1075830
48,new,melody_first,incompatible_first,compatible_first,ES_purple,first_IAT_first_block,melody,incompatible,10,change,attribute_practice,attribute_practice,attribute_practice,attribute_practice,attribute_practice,Negativ,Positiv,Versagen,attribute_practice,attribute_practice,negative,c,c,1,1076370,1076760,1076760,697,none,none,none,none,1077480
48,new,melody_first,incompatible_first,compatible_first,ES_purple,first_IAT_first_block,melody,incompatible,11,repetition,attribute_practice,attribute_practice,attribute_practice,attribute_practice,attribute_practice,Negativ,Positiv,Bedrohung,attribute_practice,attribute_practice,negative,c,c,1,1078050,1078440,1078440,641,none,none,none,none,1079100
48,new,melody_first,incompatible_first,compatible_first,ES_purple,first_IAT_first_block,melody,incompatible,12,repetition,attribute_practice,attribute_practice,attribute_practice,attribute_practice,attribute_practice,Negativ,Positiv,Trauer,attribute_practice,attribute_practice,negative,c,c,1,1079710,1080100,1080100,635,none,none,none,none,1080760
48,new,melody_first,incompatible_first,compatible_first,ES_purple,first_IAT_first_block,melody,incompatible,13,change,attribute_practice,attribute_practice,attribute_practice,attribute_practice,attribute_practice,Negativ,Positiv,Liebe,attribute_practice,attribute_practice,positive,m,m,1,1081391,1081781,1081781,531,none,none,none,none,1082341
48,new,melody_first,incompatible_first,compatible_first,ES_purple,first_IAT_first_block,melody,incompatible,14,repetition,attribute_practice,attribute_practice,attribute_practice,attribute_practice,attribute_practice,Negativ,Positiv,Frieden,attribute_practice,attribute_practice,positive,m,m,1,1082941,1083331,1083331,576,none,none,none,none,1083931
48,new,melody_first,incompatible_first,compatible_first,ES_purple,first_IAT_first_block,melody,incompatible,15,repetition,attribute_practice,attribute_practice,attribute_practice,attribute_practice,attribute_practice,Negativ,Positiv,Glücklich,attribute_practice,attribute_practice,positive,m,m,1,1084530,1084920,1084921,564,none,none,none,none,1085510
48,new,melody_first,incompatible_first,compatible_first,ES_purple,first_IAT_first_block,melody,incompatible,16,change,attribute_practice,attribute_practice,attribute_practice,attribute_practice,attribute_practice,Negativ,Positiv,Versagen,attribute_practice,attribute_practice,negative,c,c,1,1086073,1086470,1086471,558,none,none,none,none,1087050
48,new,melody_first,incompatible_first,compatible_first,ES_purple,first_IAT_first_block,melody,incompatible,17,repetition,attribute_practice,attribute_practice,attribute_practice,attribute_practice,attribute_practice,Negativ,Positiv,Trauer,attribute_practice,attribute_practice,negative,c,c,1,1087622,1088010,1088010,622,none,none,none,none,1088650
48,new,melody_first,incompatible_first,compatible_first,ES_purple,first_IAT_first_block,melody,incompatible,18,repetition,attribute_practice,attribute_practice,attribute_practice,attribute_practice,attribute_practice,Negativ,Positiv,Schmerz,attribute_practice,attribute_practice,negative,c,c,1,1089190,1089580,1089580,447,none,none,none,none,1090050
48,new,melody_first,incompatible_first,compatible_first,ES_purple,first_IAT_first_block,melody,incompatible,19,repetition,attribute_practice,attribute_practice,attribute_practice,attribute_practice,attribute_practice,Negativ,Positiv,Böse,attribute_practice,attribute_practice,negative,c,c,1,1090580,1090970,1090970,464,none,none,none,none,1091460
48,new,melody_first,incompatible_first,compatible_first,ES_purple,first_IAT_first_block,melody,incompatible,20,change,attribute_practice,attribute_practice,attribute_practice,attribute_practice,attribute_practice,Negativ,Positiv,Spaß,attribute_practice,attribute_practice,positive,m,m,1,1091990,1092380,1092380,1210,none,none,none,none,1093610
