subject_nr,contrast_group,iat_order,block_order_1,block_order_2,color_counter,which_IAT_which_block,current_contrast,current_comp,trialnr,trial_type,target_type,task_switch, response_switch,left_target,right_target,left_attribute,right_attribute,trial_target,target_color,target_role,attribute_valence,correct_response,response_first_response,correct_first_response,time_assignments_show,time_target_show,time_first_response,response_time_first_response,response_force_correct,correct_force_correct,time_force_correct,response_time_force_correct,time_logger
49,old,ending_first,compatible_first,compatible_first,ES_purple,second_IAT_first_block,starting,compatible,0,none,attribute,NA,NA,Rote Wesen,Grüne Wesen,Negativ,Positiv,Glücklich,NA,NA,positive,m,m,1,1460120,1460510,1460511,1035,none,none,none,none,1461570
49,old,ending_first,compatible_first,compatible_first,ES_purple,second_IAT_first_block,starting,compatible,1,none,attribute,task_repetition,response_repetition,Rote Wesen,Grüne Wesen,Negativ,Positiv,Liebe,NA,NA,positive,m,m,1,1462300,1462690,1462691,553,none,none,none,none,1463270
49,old,ending_first,compatible_first,compatible_first,ES_purple,second_IAT_first_block,starting,compatible,2,none,target,task_switch,response_switch,Rote Wesen,Grüne Wesen,Negativ,Positiv,IAT_red4.bmp,red,starting_scream,NA,c,c,1,1463970,1464360,1464360,611,none,none,none,none,1464990
49,old,ending_first,compatible_first,compatible_first,ES_purple,second_IAT_first_block,starting,compatible,3,none,target,task_repetition,response_repetition,Rote Wesen,Grüne Wesen,Negativ,Positiv,IAT_red2.bmp,red,starting_scream,NA,c,c,1,1465691,1466081,1466081,431,none,none,none,none,1466531
49,old,ending_first,compatible_first,compatible_first,ES_purple,second_IAT_first_block,starting,compatible,4,none,target,task_repetition,response_switch,Rote Wesen,Grüne Wesen,Negativ,Positiv,IAT_green2.bmp,green,starting_melody,NA,m,m,1,1467221,1467611,1467611,1064,none,none,none,none,1468701
49,old,ending_first,compatible_first,compatible_first,ES_purple,second_IAT_first_block,starting,compatible,5,none,target,task_repetition,response_switch,Rote Wesen,Grüne Wesen,Negativ,Positiv,IAT_red3.bmp,red,starting_scream,NA,c,c,1,1469471,1469861,1469861,546,none,none,none,none,1470431
49,old,ending_first,compatible_first,compatible_first,ES_purple,second_IAT_first_block,starting,compatible,6,none,target,task_repetition,response_switch,Rote Wesen,Grüne Wesen,Negativ,Positiv,IAT_green1.bmp,green,starting_melody,NA,m,m,1,1471181,1471571,1471571,520,none,none,none,none,1472111
49,old,ending_first,compatible_first,compatible_first,ES_purple,second_IAT_first_block,starting,compatible,7,none,attribute,task_switch,response_repetition,Rote Wesen,Grüne Wesen,Negativ,Positiv,Wundervoll,NA,NA,positive,m,m,1,1472872,1473260,1473261,604,none,none,none,none,1473891
49,old,ending_first,compatible_first,compatible_first,ES_purple,second_IAT_first_block,starting,compatible,8,none,target,task_switch,response_switch,Rote Wesen,Grüne Wesen,Negativ,Positiv,IAT_red1.bmp,red,starting_scream,NA,c,c,1,1474580,1474970,1474971,681,none,none,none,none,1475680
49,old,ending_first,compatible_first,compatible_first,ES_purple,second_IAT_first_block,starting,compatible,9,none,attribute,task_switch,response_switch,Rote Wesen,Grüne Wesen,Negativ,Positiv,Glücklich,NA,NA,positive,m,m,1,1476410,1476800,1476801,1116,none,none,none,none,1477940
49,old,ending_first,compatible_first,compatible_first,ES_purple,second_IAT_first_block,starting,compatible,10,none,target,task_switch,response_repetition,Rote Wesen,Grüne Wesen,Negativ,Positiv,IAT_green4.bmp,green,starting_melody,NA,m,m,1,1478640,1479030,1479030,1063,none,none,none,none,1480120
49,old,ending_first,compatible_first,compatible_first,ES_purple,second_IAT_first_block,starting,compatible,11,none,target,task_repetition,response_repetition,Rote Wesen,Grüne Wesen,Negativ,Positiv,IAT_green3.bmp,green,starting_melody,NA,m,m,1,1480820,1481210,1481210,391,none,none,none,none,1481630
49,old,ending_first,compatible_first,compatible_first,ES_purple,second_IAT_first_block,starting,compatible,12,none,target,task_repetition,response_switch,Rote Wesen,Grüne Wesen,Negativ,Positiv,IAT_red4.bmp,red,starting_scream,NA,c,c,1,1482320,1482710,1482710,483,none,none,none,none,1483221
49,old,ending_first,compatible_first,compatible_first,ES_purple,second_IAT_first_block,starting,compatible,13,none,attribute,task_switch,response_switch,Rote Wesen,Grüne Wesen,Negativ,Positiv,Frieden,NA,NA,positive,m,m,1,1483961,1484351,1484351,577,none,none,none,none,1484951
49,old,ending_first,compatible_first,compatible_first,ES_purple,second_IAT_first_block,starting,compatible,14,none,target,task_switch,response_switch,Rote Wesen,Grüne Wesen,Negativ,Positiv,IAT_red1.bmp,red,starting_scream,NA,c,c,1,1485661,1486051,1486051,635,none,none,none,none,1486711
49,old,ending_first,compatible_first,compatible_first,ES_purple,second_IAT_first_block,starting,compatible,15,none,attribute,task_switch,response_repetition,Rote Wesen,Grüne Wesen,Negativ,Positiv,Böse,NA,NA,negative,c,c,1,1487420,1487810,1487811,708,none,none,none,none,1488540
49,old,ending_first,compatible_first,compatible_first,ES_purple,second_IAT_first_block,starting,compatible,16,none,target,task_switch,response_switch,Rote Wesen,Grüne Wesen,Negativ,Positiv,IAT_green4.bmp,green,starting_melody,NA,m,m,1,1489240,1489630,1489631,565,none,none,none,none,1490220
49,old,ending_first,compatible_first,compatible_first,ES_purple,second_IAT_first_block,starting,compatible,17,none,attribute,task_switch,response_switch,Rote Wesen,Grüne Wesen,Negativ,Positiv,Schlecht,NA,NA,negative,c,c,1,1490940,1491330,1491331,898,none,none,none,none,1492250
49,old,ending_first,compatible_first,compatible_first,ES_purple,second_IAT_first_block,starting,compatible,18,none,attribute,task_repetition,response_switch,Rote Wesen,Grüne Wesen,Negativ,Positiv,Spaß,NA,NA,positive,m,m,1,1493030,1493420,1493420,531,none,none,none,none,1493970
49,old,ending_first,compatible_first,compatible_first,ES_purple,second_IAT_first_block,starting,compatible,19,none,attribute,task_repetition,response_switch,Rote Wesen,Grüne Wesen,Negativ,Positiv,Versagen,NA,NA,negative,c,c,1,1494740,1495130,1495130,568,none,none,none,none,1495720
49,old,ending_first,compatible_first,compatible_first,ES_purple,second_IAT_first_block,starting,compatible,20,none,attribute,task_repetition,response_switch,Rote Wesen,Grüne Wesen,Negativ,Positiv,Freude,NA,NA,positive,m,m,1,1496522,1496910,1496910,417,none,none,none,none,1497350
49,old,ending_first,compatible_first,compatible_first,ES_purple,second_IAT_first_block,starting,compatible,21,none,target,task_switch,response_repetition,Rote Wesen,Grüne Wesen,Negativ,Positiv,IAT_green2.bmp,green,starting_melody,NA,m,m,1,1498050,1498440,1498440,630,none,none,none,none,1499090
49,old,ending_first,compatible_first,compatible_first,ES_purple,second_IAT_first_block,starting,compatible,22,none,target,task_repetition,response_repetition,Rote Wesen,Grüne Wesen,Negativ,Positiv,IAT_green3.bmp,green,starting_melody,NA,m,m,1,1499780,1500170,1500170,381,none,none,none,none,1500570
49,old,ending_first,compatible_first,compatible_first,ES_purple,second_IAT_first_block,starting,compatible,23,none,attribute,task_switch,response_repetition,Rote Wesen,Grüne Wesen,Negativ,Positiv,Wundervoll,NA,NA,positive,m,m,1,1501290,1501680,1501681,749,none,none,none,none,1502450
49,old,ending_first,compatible_first,compatible_first,ES_purple,second_IAT_first_block,starting,compatible,24,none,attribute,task_repetition,response_switch,Rote Wesen,Grüne Wesen,Negativ,Positiv,Schmerz,NA,NA,negative,c,c,1,1503170,1503560,1503561,832,none,none,none,none,1504420
49,old,ending_first,compatible_first,compatible_first,ES_purple,second_IAT_first_block,starting,compatible,25,none,target,task_switch,response_repetition,Rote Wesen,Grüne Wesen,Negativ,Positiv,IAT_red3.bmp,red,starting_scream,NA,c,c,1,1505110,1505500,1505501,1130,none,none,none,none,1506650
49,old,ending_first,compatible_first,compatible_first,ES_purple,second_IAT_first_block,starting,compatible,26,none,target,task_repetition,response_repetition,Rote Wesen,Grüne Wesen,Negativ,Positiv,IAT_red2.bmp,red,starting_scream,NA,c,c,1,1507350,1507740,1507740,669,none,none,none,none,1508430
49,old,ending_first,compatible_first,compatible_first,ES_purple,second_IAT_first_block,starting,compatible,27,none,attribute,task_switch,response_repetition,Rote Wesen,Grüne Wesen,Negativ,Positiv,Trauer,NA,NA,negative,c,c,1,1509160,1509550,1509550,1415,none,none,none,none,1510990
49,old,ending_first,compatible_first,compatible_first,ES_purple,second_IAT_first_block,starting,compatible,28,none,attribute,task_repetition,response_repetition,Rote Wesen,Grüne Wesen,Negativ,Positiv,Bedrohung,NA,NA,negative,c,c,1,1511720,1512110,1512110,540,none,none,none,none,1512670
49,old,ending_first,compatible_first,compatible_first,ES_purple,second_IAT_first_block,starting,compatible,29,none,target,task_switch,response_repetition,Rote Wesen,Grüne Wesen,Negativ,Positiv,IAT_red3.bmp,red,starting_scream,NA,c,c,1,1513360,1513750,1513750,459,none,none,none,none,1514230
49,old,ending_first,compatible_first,compatible_first,ES_purple,second_IAT_first_block,starting,compatible,30,none,attribute,task_switch,response_repetition,Rote Wesen,Grüne Wesen,Negativ,Positiv,Böse,NA,NA,negative,c,c,1,1514960,1515349,1515350,808,none,none,none,none,1516180
49,old,ending_first,compatible_first,compatible_first,ES_purple,second_IAT_first_block,starting,compatible,31,none,attribute,task_repetition,response_repetition,Rote Wesen,Grüne Wesen,Negativ,Positiv,Versagen,NA,NA,negative,c,c,1,1516919,1517309,1517310,395,none,none,none,none,1517729
49,old,ending_first,compatible_first,compatible_first,ES_purple,second_IAT_first_block,starting,compatible,32,none,attribute,task_repetition,response_switch,Rote Wesen,Grüne Wesen,Negativ,Positiv,Freude,NA,NA,positive,m,m,1,1518460,1518850,1518851,593,none,none,none,none,1519470
49,old,ending_first,compatible_first,compatible_first,ES_purple,second_IAT_first_block,starting,compatible,33,none,target,task_switch,response_repetition,Rote Wesen,Grüne Wesen,Negativ,Positiv,IAT_green1.bmp,green,starting_melody,NA,m,m,1,1520200,1520590,1520590,1181,none,none,none,none,1521790
49,old,ending_first,compatible_first,compatible_first,ES_purple,second_IAT_first_block,starting,compatible,34,none,target,task_repetition,response_switch,Rote Wesen,Grüne Wesen,Negativ,Positiv,IAT_red1.bmp,red,starting_scream,NA,c,c,1,1522662,1523050,1523050,713,none,none,none,none,1523790
49,old,ending_first,compatible_first,compatible_first,ES_purple,second_IAT_first_block,starting,compatible,35,none,target,task_repetition,response_switch,Rote Wesen,Grüne Wesen,Negativ,Positiv,IAT_green3.bmp,green,starting_melody,NA,m,m,1,1524500,1524890,1524890,687,none,none,none,none,1525600
49,old,ending_first,compatible_first,compatible_first,ES_purple,second_IAT_first_block,starting,compatible,36,none,attribute,task_switch,response_switch,Rote Wesen,Grüne Wesen,Negativ,Positiv,Trauer,NA,NA,negative,c,c,1,1526340,1526730,1526730,1134,none,none,none,none,1527890
49,old,ending_first,compatible_first,compatible_first,ES_purple,second_IAT_first_block,starting,compatible,37,none,target,task_switch,response_switch,Rote Wesen,Grüne Wesen,Negativ,Positiv,IAT_green2.bmp,green,starting_melody,NA,m,m,1,1528590,1528980,1528980,1428,none,none,none,none,1530430
49,old,ending_first,compatible_first,compatible_first,ES_purple,second_IAT_first_block,starting,compatible,38,none,target,task_repetition,response_repetition,Rote Wesen,Grüne Wesen,Negativ,Positiv,IAT_green1.bmp,green,starting_melody,NA,m,m,1,1531129,1531519,1531520,372,none,none,none,none,1531919
49,old,ending_first,compatible_first,compatible_first,ES_purple,second_IAT_first_block,starting,compatible,39,none,attribute,task_switch,response_switch,Rote Wesen,Grüne Wesen,Negativ,Positiv,Schlecht,NA,NA,negative,c,c,1,1532649,1533039,1533040,481,none,none,none,none,1533549
49,old,ending_first,compatible_first,compatible_first,ES_purple,second_IAT_first_block,starting,compatible,40,none,attribute,task_repetition,response_repetition,Rote Wesen,Grüne Wesen,Negativ,Positiv,Schmerz,NA,NA,negative,c,c,1,1534269,1534659,1534659,475,none,none,none,none,1535159
49,old,ending_first,compatible_first,compatible_first,ES_purple,second_IAT_first_block,starting,compatible,41,none,target,task_switch,response_switch,Rote Wesen,Grüne Wesen,Negativ,Positiv,IAT_green4.bmp,green,starting_melody,NA,m,m,1,1535860,1536250,1536250,658,none,none,none,none,1536930
49,old,ending_first,compatible_first,compatible_first,ES_purple,second_IAT_first_block,starting,compatible,42,none,attribute,task_switch,response_repetition,Rote Wesen,Grüne Wesen,Negativ,Positiv,Liebe,NA,NA,positive,m,m,1,1537650,1538040,1538040,399,none,none,none,none,1538460
49,old,ending_first,compatible_first,compatible_first,ES_purple,second_IAT_first_block,starting,compatible,43,none,attribute,task_repetition,response_repetition,Rote Wesen,Grüne Wesen,Negativ,Positiv,Spaß,NA,NA,positive,m,m,1,1539180,1539570,1539570,535,none,none,none,none,1540130
49,old,ending_first,compatible_first,compatible_first,ES_purple,second_IAT_first_block,starting,compatible,44,none,attribute,task_repetition,response_switch,Rote Wesen,Grüne Wesen,Negativ,Positiv,Bedrohung,NA,NA,negative,c,c,1,1540860,1541250,1541250,455,none,none,none,none,1541730
49,old,ending_first,compatible_first,compatible_first,ES_purple,second_IAT_first_block,starting,compatible,45,none,target,task_switch,response_repetition,Rote Wesen,Grüne Wesen,Negativ,Positiv,IAT_red2.bmp,red,starting_scream,NA,c,c,1,1542450,1542840,1542840,797,none,none,none,none,1543660
49,old,ending_first,compatible_first,compatible_first,ES_purple,second_IAT_first_block,starting,compatible,46,none,target,task_repetition,response_repetition,Rote Wesen,Grüne Wesen,Negativ,Positiv,IAT_red4.bmp,red,starting_scream,NA,c,c,1,1544349,1544739,1544740,382,none,none,none,none,1545149
49,old,ending_first,compatible_first,compatible_first,ES_purple,second_IAT_first_block,starting,compatible,47,none,attribute,task_switch,response_switch,Rote Wesen,Grüne Wesen,Negativ,Positiv,Glücklich,NA,NA,positive,m,m,1,1545949,1546339,1546340,518,none,none,none,none,1546879
49,old,ending_first,compatible_first,compatible_first,ES_purple,second_IAT_first_block,starting,compatible,48,none,attribute,task_repetition,response_repetition,Rote Wesen,Grüne Wesen,Negativ,Positiv,Frieden,NA,NA,positive,m,m,1,1547661,1548049,1548050,533,none,none,none,none,1548609
