subject_nr,contrast_group,iat_order,block_order_1,block_order_2,color_counter,which_IAT_which_block,current_contrast,current_comp,trialnr,trial_type,target_type,task_switch, response_switch,left_target,right_target,left_attribute,right_attribute,trial_target,target_color,target_role,attribute_valence,correct_response,response_first_response,correct_first_response,time_assignments_show,time_target_show,time_first_response,response_time_first_response,response_force_correct,correct_force_correct,time_force_correct,response_time_force_correct,time_logger
35,old,ending_first,incompatible_first,compatible_first,ES_red,second_IAT_second_block,starting,incompatible,0,none,attribute,NA,NA,Lila Wesen,Gelbe Wesen,Negativ,Positiv,Frieden,NA,NA,positive,m,m,1,1672862,1673252,1673252,984,none,none,none,none,1674262
35,old,ending_first,incompatible_first,compatible_first,ES_red,second_IAT_second_block,starting,incompatible,1,none,attribute,task_repetition,response_repetition,Lila Wesen,Gelbe Wesen,Negativ,Positiv,Wundervoll,NA,NA,positive,m,m,1,1674992,1675382,1675382,478,none,none,none,none,1675883
35,old,ending_first,incompatible_first,compatible_first,ES_red,second_IAT_second_block,starting,incompatible,2,none,attribute,task_repetition,response_switch,Lila Wesen,Gelbe Wesen,Negativ,Positiv,Schmerz,NA,NA,negative,c,c,1,1676613,1677003,1677003,605,none,none,none,none,1677633
35,old,ending_first,incompatible_first,compatible_first,ES_red,second_IAT_second_block,starting,incompatible,3,none,attribute,task_repetition,response_switch,Lila Wesen,Gelbe Wesen,Negativ,Positiv,Frieden,NA,NA,positive,m,m,1,1678363,1678752,1678753,531,none,none,none,none,1679313
35,old,ending_first,incompatible_first,compatible_first,ES_red,second_IAT_second_block,starting,incompatible,4,none,attribute,task_repetition,response_repetition,Lila Wesen,Gelbe Wesen,Negativ,Positiv,Liebe,NA,NA,positive,m,m,1,1680042,1680432,1680433,366,none,none,none,none,1680822
35,old,ending_first,incompatible_first,compatible_first,ES_red,second_IAT_second_block,starting,incompatible,5,none,target,task_switch,response_repetition,Lila Wesen,Gelbe Wesen,Negativ,Positiv,IAT_yellow2.bmp,yellow,starting_scream,NA,m,m,1,1681512,1681902,1681902,509,none,none,none,none,1682432
35,old,ending_first,incompatible_first,compatible_first,ES_red,second_IAT_second_block,starting,incompatible,6,none,target,task_repetition,response_switch,Lila Wesen,Gelbe Wesen,Negativ,Positiv,IAT_purple1.bmp,purple,starting_melody,NA,c,c,1,1683142,1683532,1683532,459,none,none,none,none,1684012
35,old,ending_first,incompatible_first,compatible_first,ES_red,second_IAT_second_block,starting,incompatible,7,none,target,task_repetition,response_repetition,Lila Wesen,Gelbe Wesen,Negativ,Positiv,IAT_purple2.bmp,purple,starting_melody,NA,c,c,1,1684702,1685092,1685092,377,none,none,none,none,1685492
35,old,ending_first,incompatible_first,compatible_first,ES_red,second_IAT_second_block,starting,incompatible,8,none,attribute,task_switch,response_switch,Lila Wesen,Gelbe Wesen,Negativ,Positiv,Glücklich,NA,NA,positive,m,m,1,1686222,1686612,1686612,1073,none,none,none,none,1687712
35,old,ending_first,incompatible_first,compatible_first,ES_red,second_IAT_second_block,starting,incompatible,9,none,attribute,task_repetition,response_repetition,Lila Wesen,Gelbe Wesen,Negativ,Positiv,Spaß,NA,NA,positive,m,m,1,1688442,1688832,1688832,529,none,none,none,none,1689382
35,old,ending_first,incompatible_first,compatible_first,ES_red,second_IAT_second_block,starting,incompatible,10,none,attribute,task_repetition,response_switch,Lila Wesen,Gelbe Wesen,Negativ,Positiv,Böse,NA,NA,negative,c,c,1,1690112,1690502,1690502,524,none,none,none,none,1691052
35,old,ending_first,incompatible_first,compatible_first,ES_red,second_IAT_second_block,starting,incompatible,11,none,attribute,task_repetition,response_repetition,Lila Wesen,Gelbe Wesen,Negativ,Positiv,Schlecht,NA,NA,negative,c,c,1,1691805,1692201,1692202,479,none,none,none,none,1692701
35,old,ending_first,incompatible_first,compatible_first,ES_red,second_IAT_second_block,starting,incompatible,12,none,target,task_switch,response_switch,Lila Wesen,Gelbe Wesen,Negativ,Positiv,IAT_yellow4.bmp,yellow,starting_scream,NA,m,m,1,1693402,1693792,1693793,656,none,none,none,none,1694472
35,old,ending_first,incompatible_first,compatible_first,ES_red,second_IAT_second_block,starting,incompatible,13,none,target,task_repetition,response_repetition,Lila Wesen,Gelbe Wesen,Negativ,Positiv,IAT_yellow1.bmp,yellow,starting_scream,NA,m,m,1,1695162,1695552,1695552,351,none,none,none,none,1695922
35,old,ending_first,incompatible_first,compatible_first,ES_red,second_IAT_second_block,starting,incompatible,14,none,attribute,task_switch,response_repetition,Lila Wesen,Gelbe Wesen,Negativ,Positiv,Freude,NA,NA,positive,m,m,1,1696652,1697042,1697042,695,none,none,none,none,1697762
35,old,ending_first,incompatible_first,compatible_first,ES_red,second_IAT_second_block,starting,incompatible,15,none,target,task_switch,response_switch,Lila Wesen,Gelbe Wesen,Negativ,Positiv,IAT_purple4.bmp,purple,starting_melody,NA,c,c,1,1698462,1698852,1698852,554,none,none,none,none,1699432
35,old,ending_first,incompatible_first,compatible_first,ES_red,second_IAT_second_block,starting,incompatible,16,none,attribute,task_switch,response_repetition,Lila Wesen,Gelbe Wesen,Negativ,Positiv,Versagen,NA,NA,negative,c,c,1,1700152,1700542,1700542,530,none,none,none,none,1701092
35,old,ending_first,incompatible_first,compatible_first,ES_red,second_IAT_second_block,starting,incompatible,17,none,attribute,task_repetition,response_repetition,Lila Wesen,Gelbe Wesen,Negativ,Positiv,Trauer,NA,NA,negative,c,c,1,1701822,1702212,1702212,412,none,none,none,none,1702652
35,old,ending_first,incompatible_first,compatible_first,ES_red,second_IAT_second_block,starting,incompatible,18,none,target,task_switch,response_switch,Lila Wesen,Gelbe Wesen,Negativ,Positiv,IAT_yellow3.bmp,yellow,starting_scream,NA,m,m,1,1703352,1703742,1703742,490,none,none,none,none,1704252
35,old,ending_first,incompatible_first,compatible_first,ES_red,second_IAT_second_block,starting,incompatible,19,none,target,task_repetition,response_switch,Lila Wesen,Gelbe Wesen,Negativ,Positiv,IAT_purple3.bmp,purple,starting_melody,NA,c,c,1,1704941,1705331,1705332,552,none,none,none,none,1705911
35,old,ending_first,incompatible_first,compatible_first,ES_red,second_IAT_second_block,starting,incompatible,20,none,target,task_repetition,response_switch,Lila Wesen,Gelbe Wesen,Negativ,Positiv,IAT_yellow3.bmp,yellow,starting_scream,NA,m,m,1,1706611,1707001,1707001,784,none,none,none,none,1707811
35,old,ending_first,incompatible_first,compatible_first,ES_red,second_IAT_second_block,starting,incompatible,21,none,target,task_repetition,response_repetition,Lila Wesen,Gelbe Wesen,Negativ,Positiv,IAT_yellow2.bmp,yellow,starting_scream,NA,m,m,1,1708511,1708901,1708901,356,none,none,none,none,1709281
35,old,ending_first,incompatible_first,compatible_first,ES_red,second_IAT_second_block,starting,incompatible,22,none,attribute,task_switch,response_switch,Lila Wesen,Gelbe Wesen,Negativ,Positiv,Bedrohung,NA,NA,negative,c,c,1,1710001,1710391,1710391,583,none,none,none,none,1711002
35,old,ending_first,incompatible_first,compatible_first,ES_red,second_IAT_second_block,starting,incompatible,23,none,attribute,task_repetition,response_switch,Lila Wesen,Gelbe Wesen,Negativ,Positiv,Spaß,NA,NA,positive,m,m,1,1711732,1712122,1712122,1342,none,none,none,none,1713492
35,old,ending_first,incompatible_first,compatible_first,ES_red,second_IAT_second_block,starting,incompatible,24,none,target,task_switch,response_repetition,Lila Wesen,Gelbe Wesen,Negativ,Positiv,IAT_yellow1.bmp,yellow,starting_scream,NA,m,m,1,1714235,1714632,1714632,451,none,none,none,none,1715102
35,old,ending_first,incompatible_first,compatible_first,ES_red,second_IAT_second_block,starting,incompatible,25,none,target,task_repetition,response_repetition,Lila Wesen,Gelbe Wesen,Negativ,Positiv,IAT_yellow4.bmp,yellow,starting_scream,NA,m,m,1,1715812,1716202,1716202,361,none,none,none,none,1716582
35,old,ending_first,incompatible_first,compatible_first,ES_red,second_IAT_second_block,starting,incompatible,26,none,attribute,task_switch,response_switch,Lila Wesen,Gelbe Wesen,Negativ,Positiv,Schlecht,NA,NA,negative,c,c,1,1717311,1717701,1717702,649,none,none,none,none,1718371
35,old,ending_first,incompatible_first,compatible_first,ES_red,second_IAT_second_block,starting,incompatible,27,none,attribute,task_repetition,response_switch,Lila Wesen,Gelbe Wesen,Negativ,Positiv,Glücklich,NA,NA,positive,m,m,1,1719151,1719541,1719541,850,none,none,none,none,1720411
35,old,ending_first,incompatible_first,compatible_first,ES_red,second_IAT_second_block,starting,incompatible,28,none,target,task_switch,response_switch,Lila Wesen,Gelbe Wesen,Negativ,Positiv,IAT_purple2.bmp,purple,starting_melody,NA,c,c,1,1721111,1721501,1721501,586,none,none,none,none,1722111
35,old,ending_first,incompatible_first,compatible_first,ES_red,second_IAT_second_block,starting,incompatible,29,none,target,task_repetition,response_switch,Lila Wesen,Gelbe Wesen,Negativ,Positiv,IAT_yellow2.bmp,yellow,starting_scream,NA,m,m,1,1722821,1723211,1723211,564,none,none,none,none,1723801
35,old,ending_first,incompatible_first,compatible_first,ES_red,second_IAT_second_block,starting,incompatible,30,none,target,task_repetition,response_switch,Lila Wesen,Gelbe Wesen,Negativ,Positiv,IAT_purple3.bmp,purple,starting_melody,NA,c,c,1,1724501,1724891,1724891,557,none,none,none,none,1725471
35,old,ending_first,incompatible_first,compatible_first,ES_red,second_IAT_second_block,starting,incompatible,31,none,target,task_repetition,response_repetition,Lila Wesen,Gelbe Wesen,Negativ,Positiv,IAT_purple1.bmp,purple,starting_melody,NA,c,c,1,1726171,1726561,1726561,480,none,none,none,none,1727061
35,old,ending_first,incompatible_first,compatible_first,ES_red,second_IAT_second_block,starting,incompatible,32,none,attribute,task_switch,response_repetition,Lila Wesen,Gelbe Wesen,Negativ,Positiv,Trauer,NA,NA,negative,c,c,1,1727791,1728182,1728182,813,none,none,none,none,1729022
35,old,ending_first,incompatible_first,compatible_first,ES_red,second_IAT_second_block,starting,incompatible,33,none,attribute,task_repetition,response_repetition,Lila Wesen,Gelbe Wesen,Negativ,Positiv,Versagen,NA,NA,negative,c,c,1,1729761,1730151,1730152,645,none,none,none,none,1730821
35,old,ending_first,incompatible_first,compatible_first,ES_red,second_IAT_second_block,starting,incompatible,34,none,target,task_switch,response_repetition,Lila Wesen,Gelbe Wesen,Negativ,Positiv,IAT_purple4.bmp,purple,starting_melody,NA,c,c,1,1731521,1731911,1731911,565,none,none,none,none,1732501
35,old,ending_first,incompatible_first,compatible_first,ES_red,second_IAT_second_block,starting,incompatible,35,none,attribute,task_switch,response_switch,Lila Wesen,Gelbe Wesen,Negativ,Positiv,Freude,NA,NA,positive,m,m,1,1733231,1733621,1733621,593,none,none,none,none,1734241
35,old,ending_first,incompatible_first,compatible_first,ES_red,second_IAT_second_block,starting,incompatible,36,none,attribute,task_repetition,response_switch,Lila Wesen,Gelbe Wesen,Negativ,Positiv,Böse,NA,NA,negative,c,c,1,1734981,1735371,1735371,647,none,none,none,none,1736041
35,old,ending_first,incompatible_first,compatible_first,ES_red,second_IAT_second_block,starting,incompatible,37,none,target,task_switch,response_repetition,Lila Wesen,Gelbe Wesen,Negativ,Positiv,IAT_purple3.bmp,purple,starting_melody,NA,c,c,1,1736741,1737131,1737131,658,none,none,none,none,1737811
35,old,ending_first,incompatible_first,compatible_first,ES_red,second_IAT_second_block,starting,incompatible,38,none,target,task_repetition,response_switch,Lila Wesen,Gelbe Wesen,Negativ,Positiv,IAT_yellow1.bmp,yellow,starting_scream,NA,m,m,1,1738542,1738931,1738931,396,none,none,none,none,1739351
35,old,ending_first,incompatible_first,compatible_first,ES_red,second_IAT_second_block,starting,incompatible,39,none,attribute,task_switch,response_switch,Lila Wesen,Gelbe Wesen,Negativ,Positiv,Schmerz,NA,NA,negative,c,c,1,1740081,1740471,1740471,566,none,none,none,none,1741061
35,old,ending_first,incompatible_first,compatible_first,ES_red,second_IAT_second_block,starting,incompatible,40,none,target,task_switch,response_repetition,Lila Wesen,Gelbe Wesen,Negativ,Positiv,IAT_purple1.bmp,purple,starting_melody,NA,c,c,1,1741781,1742170,1742171,605,none,none,none,none,1742801
35,old,ending_first,incompatible_first,compatible_first,ES_red,second_IAT_second_block,starting,incompatible,41,none,target,task_repetition,response_repetition,Lila Wesen,Gelbe Wesen,Negativ,Positiv,IAT_purple2.bmp,purple,starting_melody,NA,c,c,1,1743500,1743890,1743891,372,none,none,none,none,1744290
35,old,ending_first,incompatible_first,compatible_first,ES_red,second_IAT_second_block,starting,incompatible,42,none,attribute,task_switch,response_switch,Lila Wesen,Gelbe Wesen,Negativ,Positiv,Liebe,NA,NA,positive,m,m,1,1745020,1745411,1745411,1019,none,none,none,none,1746451
35,old,ending_first,incompatible_first,compatible_first,ES_red,second_IAT_second_block,starting,incompatible,43,none,target,task_switch,response_switch,Lila Wesen,Gelbe Wesen,Negativ,Positiv,IAT_purple4.bmp,purple,starting_melody,NA,c,c,1,1747151,1747541,1747541,671,none,none,none,none,1748231
35,old,ending_first,incompatible_first,compatible_first,ES_red,second_IAT_second_block,starting,incompatible,44,none,attribute,task_switch,response_repetition,Lila Wesen,Gelbe Wesen,Negativ,Positiv,Bedrohung,NA,NA,negative,c,c,1,1748961,1749351,1749351,549,none,none,none,none,1749921
35,old,ending_first,incompatible_first,compatible_first,ES_red,second_IAT_second_block,starting,incompatible,45,none,target,task_switch,response_switch,Lila Wesen,Gelbe Wesen,Negativ,Positiv,IAT_yellow3.bmp,yellow,starting_scream,NA,m,m,1,1750631,1751021,1751021,469,none,none,none,none,1751511
35,old,ending_first,incompatible_first,compatible_first,ES_red,second_IAT_second_block,starting,incompatible,46,none,attribute,task_switch,response_repetition,Lila Wesen,Gelbe Wesen,Negativ,Positiv,Wundervoll,NA,NA,positive,m,m,1,1752241,1752631,1752631,847,none,none,none,none,1753501
35,old,ending_first,incompatible_first,compatible_first,ES_red,second_IAT_second_block,starting,incompatible,47,none,target,task_switch,response_repetition,Lila Wesen,Gelbe Wesen,Negativ,Positiv,IAT_yellow4.bmp,yellow,starting_scream,NA,m,m,1,1754200,1754590,1754591,528,none,none,none,none,1755141
35,old,ending_first,incompatible_first,compatible_first,ES_red,second_IAT_second_block,starting,incompatible,48,none,attribute,task_switch,response_repetition,Lila Wesen,Gelbe Wesen,Negativ,Positiv,Frieden,NA,NA,positive,m,c,0,1755850,1756240,1756241,834,m,1,1757091,286,1757400
