subject_nr,contrast_group,iat_order,block_order_1,block_order_2,color_counter,which_IAT_which_block,current_contrast,current_comp,trialnr,trial_type,target_type,task_switch, response_switch,left_target,right_target,left_attribute,right_attribute,trial_target,target_color,target_role,attribute_valence,correct_response,response_first_response,correct_first_response,time_assignments_show,time_target_show,time_first_response,response_time_first_response,response_force_correct,correct_force_correct,time_force_correct,response_time_force_correct,time_logger
42,old,ending_first,compatible_first,compatible_first,ES_green,second_IAT_first_block,starting,compatible,0,none,attribute,NA,NA,Lila Wesen,Gelbe Wesen,Negativ,Positiv,Wundervoll,NA,NA,positive,m,m,1,1450276,1450666,1450666,578,none,none,none,none,1451266
42,old,ending_first,compatible_first,compatible_first,ES_green,second_IAT_first_block,starting,compatible,1,none,target,task_switch,response_repetition,Lila Wesen,Gelbe Wesen,Negativ,Positiv,IAT_yellow3.bmp,yellow,starting_melody,NA,m,m,1,1451956,1452346,1452346,380,none,none,none,none,1452746
42,old,ending_first,compatible_first,compatible_first,ES_green,second_IAT_first_block,starting,compatible,2,none,attribute,task_switch,response_repetition,Lila Wesen,Gelbe Wesen,Negativ,Positiv,Frieden,NA,NA,positive,m,m,1,1453466,1453855,1453856,453,none,none,none,none,1454336
42,old,ending_first,compatible_first,compatible_first,ES_green,second_IAT_first_block,starting,compatible,3,none,attribute,task_repetition,response_switch,Lila Wesen,Gelbe Wesen,Negativ,Positiv,Bedrohung,NA,NA,negative,c,c,1,1455055,1455445,1455446,484,none,none,none,none,1455955
42,old,ending_first,compatible_first,compatible_first,ES_green,second_IAT_first_block,starting,compatible,4,none,attribute,task_repetition,response_switch,Lila Wesen,Gelbe Wesen,Negativ,Positiv,Freude,NA,NA,positive,m,c,0,1456685,1457075,1457076,328,m,1,1457415,355,1457795
42,old,ending_first,compatible_first,compatible_first,ES_green,second_IAT_first_block,starting,compatible,5,none,attribute,task_repetition,response_switch,Lila Wesen,Gelbe Wesen,Negativ,Positiv,Versagen,NA,NA,negative,c,c,1,1458575,1458965,1458965,572,none,none,none,none,1459565
42,old,ending_first,compatible_first,compatible_first,ES_green,second_IAT_first_block,starting,compatible,6,none,target,task_switch,response_switch,Lila Wesen,Gelbe Wesen,Negativ,Positiv,IAT_yellow1.bmp,yellow,starting_melody,NA,m,m,1,1460395,1460785,1460785,699,none,none,none,none,1461505
42,old,ending_first,compatible_first,compatible_first,ES_green,second_IAT_first_block,starting,compatible,7,none,target,task_repetition,response_switch,Lila Wesen,Gelbe Wesen,Negativ,Positiv,IAT_purple2.bmp,purple,starting_scream,NA,c,c,1,1462256,1462645,1462645,553,none,none,none,none,1463225
42,old,ending_first,compatible_first,compatible_first,ES_green,second_IAT_first_block,starting,compatible,8,none,target,task_repetition,response_switch,Lila Wesen,Gelbe Wesen,Negativ,Positiv,IAT_yellow2.bmp,yellow,starting_melody,NA,m,m,1,1464025,1464415,1464415,524,none,none,none,none,1464965
42,old,ending_first,compatible_first,compatible_first,ES_green,second_IAT_first_block,starting,compatible,9,none,attribute,task_switch,response_switch,Lila Wesen,Gelbe Wesen,Negativ,Positiv,Schlecht,NA,NA,negative,c,c,1,1465696,1466086,1466086,454,none,none,none,none,1466566
42,old,ending_first,compatible_first,compatible_first,ES_green,second_IAT_first_block,starting,compatible,10,none,attribute,task_repetition,response_repetition,Lila Wesen,Gelbe Wesen,Negativ,Positiv,Schmerz,NA,NA,negative,c,c,1,1467285,1467675,1467676,709,none,none,none,none,1468405
42,old,ending_first,compatible_first,compatible_first,ES_green,second_IAT_first_block,starting,compatible,11,none,attribute,task_repetition,response_switch,Lila Wesen,Gelbe Wesen,Negativ,Positiv,Glücklich,NA,NA,positive,m,m,1,1469125,1469515,1469516,440,none,none,none,none,1469975
42,old,ending_first,compatible_first,compatible_first,ES_green,second_IAT_first_block,starting,compatible,12,none,attribute,task_repetition,response_repetition,Lila Wesen,Gelbe Wesen,Negativ,Positiv,Liebe,NA,NA,positive,m,m,1,1470695,1471085,1471085,411,none,none,none,none,1471515
42,old,ending_first,compatible_first,compatible_first,ES_green,second_IAT_first_block,starting,compatible,13,none,attribute,task_repetition,response_repetition,Lila Wesen,Gelbe Wesen,Negativ,Positiv,Wundervoll,NA,NA,positive,m,m,1,1472235,1472625,1472625,577,none,none,none,none,1473225
42,old,ending_first,compatible_first,compatible_first,ES_green,second_IAT_first_block,starting,compatible,14,none,target,task_switch,response_switch,Lila Wesen,Gelbe Wesen,Negativ,Positiv,IAT_purple4.bmp,purple,starting_scream,NA,c,c,1,1474015,1474405,1474405,385,none,none,none,none,1474815
42,old,ending_first,compatible_first,compatible_first,ES_green,second_IAT_first_block,starting,compatible,15,none,attribute,task_switch,response_switch,Lila Wesen,Gelbe Wesen,Negativ,Positiv,Spaß,NA,NA,positive,m,m,1,1475545,1475935,1475935,482,none,none,none,none,1476445
42,old,ending_first,compatible_first,compatible_first,ES_green,second_IAT_first_block,starting,compatible,16,none,target,task_switch,response_repetition,Lila Wesen,Gelbe Wesen,Negativ,Positiv,IAT_yellow4.bmp,yellow,starting_melody,NA,m,m,1,1477145,1477535,1477535,780,none,none,none,none,1478335
42,old,ending_first,compatible_first,compatible_first,ES_green,second_IAT_first_block,starting,compatible,17,none,target,task_repetition,response_repetition,Lila Wesen,Gelbe Wesen,Negativ,Positiv,IAT_yellow2.bmp,yellow,starting_melody,NA,m,m,1,1479055,1479444,1479445,450,none,none,none,none,1479914
42,old,ending_first,compatible_first,compatible_first,ES_green,second_IAT_first_block,starting,compatible,18,none,target,task_repetition,response_repetition,Lila Wesen,Gelbe Wesen,Negativ,Positiv,IAT_yellow4.bmp,yellow,starting_melody,NA,m,m,1,1480684,1481074,1481075,496,none,none,none,none,1481594
42,old,ending_first,compatible_first,compatible_first,ES_green,second_IAT_first_block,starting,compatible,19,none,target,task_repetition,response_switch,Lila Wesen,Gelbe Wesen,Negativ,Positiv,IAT_purple3.bmp,purple,starting_scream,NA,c,c,1,1482384,1482774,1482774,343,none,none,none,none,1483144
42,old,ending_first,compatible_first,compatible_first,ES_green,second_IAT_first_block,starting,compatible,20,none,attribute,task_switch,response_repetition,Lila Wesen,Gelbe Wesen,Negativ,Positiv,Böse,NA,NA,negative,c,c,1,1483937,1484325,1484325,339,none,none,none,none,1484685
42,old,ending_first,compatible_first,compatible_first,ES_green,second_IAT_first_block,starting,compatible,21,none,target,task_switch,response_switch,Lila Wesen,Gelbe Wesen,Negativ,Positiv,IAT_yellow1.bmp,yellow,starting_melody,NA,m,m,1,1485385,1485775,1485775,476,none,none,none,none,1486275
42,old,ending_first,compatible_first,compatible_first,ES_green,second_IAT_first_block,starting,compatible,22,none,target,task_repetition,response_switch,Lila Wesen,Gelbe Wesen,Negativ,Positiv,IAT_purple1.bmp,purple,starting_scream,NA,c,c,1,1486995,1487385,1487385,521,none,none,none,none,1487935
42,old,ending_first,compatible_first,compatible_first,ES_green,second_IAT_first_block,starting,compatible,23,none,target,task_repetition,response_repetition,Lila Wesen,Gelbe Wesen,Negativ,Positiv,IAT_purple2.bmp,purple,starting_scream,NA,c,c,1,1488635,1489025,1489025,430,none,none,none,none,1489475
42,old,ending_first,compatible_first,compatible_first,ES_green,second_IAT_first_block,starting,compatible,24,none,target,task_repetition,response_switch,Lila Wesen,Gelbe Wesen,Negativ,Positiv,IAT_yellow3.bmp,yellow,starting_melody,NA,m,c,0,1490185,1490574,1490575,404,m,1,1490995,342,1491365
42,old,ending_first,compatible_first,compatible_first,ES_green,second_IAT_first_block,starting,compatible,25,none,attribute,task_switch,response_repetition,Lila Wesen,Gelbe Wesen,Negativ,Positiv,Frieden,NA,NA,positive,m,m,1,1492094,1492484,1492485,554,none,none,none,none,1493064
42,old,ending_first,compatible_first,compatible_first,ES_green,second_IAT_first_block,starting,compatible,26,none,target,task_switch,response_repetition,Lila Wesen,Gelbe Wesen,Negativ,Positiv,IAT_yellow2.bmp,yellow,starting_melody,NA,m,m,1,1493764,1494154,1494154,442,none,none,none,none,1494624
42,old,ending_first,compatible_first,compatible_first,ES_green,second_IAT_first_block,starting,compatible,27,none,attribute,task_switch,response_switch,Lila Wesen,Gelbe Wesen,Negativ,Positiv,Trauer,NA,NA,negative,c,c,1,1495355,1495744,1495744,607,none,none,none,none,1496374
42,old,ending_first,compatible_first,compatible_first,ES_green,second_IAT_first_block,starting,compatible,28,none,attribute,task_repetition,response_repetition,Lila Wesen,Gelbe Wesen,Negativ,Positiv,Versagen,NA,NA,negative,c,c,1,1497104,1497494,1497494,361,none,none,none,none,1497874
42,old,ending_first,compatible_first,compatible_first,ES_green,second_IAT_first_block,starting,compatible,29,none,target,task_switch,response_repetition,Lila Wesen,Gelbe Wesen,Negativ,Positiv,IAT_purple3.bmp,purple,starting_scream,NA,c,c,1,1498564,1498954,1498954,341,none,none,none,none,1499314
42,old,ending_first,compatible_first,compatible_first,ES_green,second_IAT_first_block,starting,compatible,30,none,attribute,task_switch,response_switch,Lila Wesen,Gelbe Wesen,Negativ,Positiv,Wundervoll,NA,NA,positive,m,m,1,1500054,1500444,1500444,581,none,none,none,none,1501045
42,old,ending_first,compatible_first,compatible_first,ES_green,second_IAT_first_block,starting,compatible,31,none,attribute,task_repetition,response_switch,Lila Wesen,Gelbe Wesen,Negativ,Positiv,Trauer,NA,NA,negative,c,c,1,1501775,1502165,1502165,543,none,none,none,none,1502735
42,old,ending_first,compatible_first,compatible_first,ES_green,second_IAT_first_block,starting,compatible,32,none,target,task_switch,response_repetition,Lila Wesen,Gelbe Wesen,Negativ,Positiv,IAT_purple1.bmp,purple,starting_scream,NA,c,c,1,1503434,1503824,1503825,817,none,none,none,none,1504664
42,old,ending_first,compatible_first,compatible_first,ES_green,second_IAT_first_block,starting,compatible,33,none,attribute,task_switch,response_switch,Lila Wesen,Gelbe Wesen,Negativ,Positiv,Liebe,NA,NA,positive,m,m,1,1505394,1505784,1505785,515,none,none,none,none,1506324
42,old,ending_first,compatible_first,compatible_first,ES_green,second_IAT_first_block,starting,compatible,34,none,target,task_switch,response_switch,Lila Wesen,Gelbe Wesen,Negativ,Positiv,IAT_purple4.bmp,purple,starting_scream,NA,c,c,1,1507096,1507484,1507484,604,none,none,none,none,1508114
42,old,ending_first,compatible_first,compatible_first,ES_green,second_IAT_first_block,starting,compatible,35,none,attribute,task_switch,response_repetition,Lila Wesen,Gelbe Wesen,Negativ,Positiv,Bedrohung,NA,NA,negative,c,c,1,1508844,1509234,1509234,654,none,none,none,none,1509914
42,old,ending_first,compatible_first,compatible_first,ES_green,second_IAT_first_block,starting,compatible,36,none,attribute,task_repetition,response_switch,Lila Wesen,Gelbe Wesen,Negativ,Positiv,Glücklich,NA,NA,positive,m,m,1,1510644,1511034,1511034,472,none,none,none,none,1511534
42,old,ending_first,compatible_first,compatible_first,ES_green,second_IAT_first_block,starting,compatible,37,none,target,task_switch,response_switch,Lila Wesen,Gelbe Wesen,Negativ,Positiv,IAT_purple4.bmp,purple,starting_scream,NA,c,c,1,1512244,1512634,1512634,475,none,none,none,none,1513134
42,old,ending_first,compatible_first,compatible_first,ES_green,second_IAT_first_block,starting,compatible,38,none,target,task_repetition,response_repetition,Lila Wesen,Gelbe Wesen,Negativ,Positiv,IAT_purple2.bmp,purple,starting_scream,NA,c,c,1,1513834,1514223,1514224,516,none,none,none,none,1514764
42,old,ending_first,compatible_first,compatible_first,ES_green,second_IAT_first_block,starting,compatible,39,none,target,task_repetition,response_repetition,Lila Wesen,Gelbe Wesen,Negativ,Positiv,IAT_purple1.bmp,purple,starting_scream,NA,c,c,1,1515473,1515863,1515864,406,none,none,none,none,1516293
42,old,ending_first,compatible_first,compatible_first,ES_green,second_IAT_first_block,starting,compatible,40,none,attribute,task_switch,response_repetition,Lila Wesen,Gelbe Wesen,Negativ,Positiv,Schmerz,NA,NA,negative,c,c,1,1517023,1517413,1517414,581,none,none,none,none,1518023
42,old,ending_first,compatible_first,compatible_first,ES_green,second_IAT_first_block,starting,compatible,41,none,target,task_switch,response_switch,Lila Wesen,Gelbe Wesen,Negativ,Positiv,IAT_yellow1.bmp,yellow,starting_melody,NA,m,m,1,1518724,1519114,1519114,446,none,none,none,none,1519584
42,old,ending_first,compatible_first,compatible_first,ES_green,second_IAT_first_block,starting,compatible,42,none,attribute,task_switch,response_switch,Lila Wesen,Gelbe Wesen,Negativ,Positiv,Schlecht,NA,NA,negative,c,c,1,1520324,1520714,1520714,527,none,none,none,none,1521264
42,old,ending_first,compatible_first,compatible_first,ES_green,second_IAT_first_block,starting,compatible,43,none,attribute,task_repetition,response_repetition,Lila Wesen,Gelbe Wesen,Negativ,Positiv,Böse,NA,NA,negative,c,c,1,1522014,1522404,1522404,529,none,none,none,none,1522954
42,old,ending_first,compatible_first,compatible_first,ES_green,second_IAT_first_block,starting,compatible,44,none,target,task_switch,response_repetition,Lila Wesen,Gelbe Wesen,Negativ,Positiv,IAT_purple3.bmp,purple,starting_scream,NA,c,c,1,1523654,1524044,1524044,560,none,none,none,none,1524624
42,old,ending_first,compatible_first,compatible_first,ES_green,second_IAT_first_block,starting,compatible,45,none,target,task_repetition,response_switch,Lila Wesen,Gelbe Wesen,Negativ,Positiv,IAT_yellow3.bmp,yellow,starting_melody,NA,m,m,1,1525324,1525714,1525714,404,none,none,none,none,1526144
42,old,ending_first,compatible_first,compatible_first,ES_green,second_IAT_first_block,starting,compatible,46,none,target,task_repetition,response_repetition,Lila Wesen,Gelbe Wesen,Negativ,Positiv,IAT_yellow4.bmp,yellow,starting_melody,NA,m,m,1,1526853,1527243,1527244,441,none,none,none,none,1527713
42,old,ending_first,compatible_first,compatible_first,ES_green,second_IAT_first_block,starting,compatible,47,none,attribute,task_switch,response_repetition,Lila Wesen,Gelbe Wesen,Negativ,Positiv,Spaß,NA,NA,positive,m,m,1,1528473,1528863,1528864,330,none,none,none,none,1529213
42,old,ending_first,compatible_first,compatible_first,ES_green,second_IAT_first_block,starting,compatible,48,none,attribute,task_repetition,response_repetition,Lila Wesen,Gelbe Wesen,Negativ,Positiv,Freude,NA,NA,positive,m,c,0,1530005,1530393,1530393,491,m,1,1530893,336,1531253
