subject_nr,contrast_group,iat_order,block_order_1,block_order_2,color_counter,which_IAT_which_block,current_contrast,current_comp,trialnr,trial_type,target_type,task_switch, response_switch,left_target,right_target,left_attribute,right_attribute,trial_target,target_color,target_role,attribute_valence,correct_response,response_first_response,correct_first_response,time_assignments_show,time_target_show,time_first_response,response_time_first_response,response_force_correct,correct_force_correct,time_force_correct,response_time_force_correct,time_logger
35,old,ending_first,incompatible_first,compatible_first,ES_red,first_IAT_first_block,ending,incompatible,0,none,attribute,NA,NA,Rote Wesen,Grüne Wesen,Negativ,Positiv,Trauer,NA,NA,negative,c,c,1,1057699,1058096,1058096,672,none,none,none,none,1058796
35,old,ending_first,incompatible_first,compatible_first,ES_red,first_IAT_first_block,ending,incompatible,1,none,attribute,task_repetition,response_switch,Rote Wesen,Grüne Wesen,Negativ,Positiv,Frieden,NA,NA,positive,m,c,0,1059516,1059906,1059906,431,m,1,1060346,310,1060676
35,old,ending_first,incompatible_first,compatible_first,ES_red,first_IAT_first_block,ending,incompatible,2,none,target,task_switch,response_repetition,Rote Wesen,Grüne Wesen,Negativ,Positiv,IAT_green3.bmp,green,ending_melody,NA,m,m,1,1061386,1061776,1061776,418,none,none,none,none,1062216
35,old,ending_first,incompatible_first,compatible_first,ES_red,first_IAT_first_block,ending,incompatible,3,none,target,task_repetition,response_repetition,Rote Wesen,Grüne Wesen,Negativ,Positiv,IAT_green2.bmp,green,ending_melody,NA,m,m,1,1062915,1063305,1063306,402,none,none,none,none,1063727
35,old,ending_first,incompatible_first,compatible_first,ES_red,first_IAT_first_block,ending,incompatible,4,none,target,task_repetition,response_repetition,Rote Wesen,Grüne Wesen,Negativ,Positiv,IAT_green4.bmp,green,ending_melody,NA,m,m,1,1064426,1064816,1064817,420,none,none,none,none,1065256
35,old,ending_first,incompatible_first,compatible_first,ES_red,first_IAT_first_block,ending,incompatible,5,none,attribute,task_switch,response_repetition,Rote Wesen,Grüne Wesen,Negativ,Positiv,Spaß,NA,NA,positive,m,m,1,1065976,1066366,1066366,622,none,none,none,none,1067006
35,old,ending_first,incompatible_first,compatible_first,ES_red,first_IAT_first_block,ending,incompatible,6,none,attribute,task_repetition,response_repetition,Rote Wesen,Grüne Wesen,Negativ,Positiv,Glücklich,NA,NA,positive,m,m,1,1067736,1068126,1068126,657,none,none,none,none,1068806
35,old,ending_first,incompatible_first,compatible_first,ES_red,first_IAT_first_block,ending,incompatible,7,none,attribute,task_repetition,response_switch,Rote Wesen,Grüne Wesen,Negativ,Positiv,Schmerz,NA,NA,negative,c,c,1,1069536,1069926,1069926,431,none,none,none,none,1070376
35,old,ending_first,incompatible_first,compatible_first,ES_red,first_IAT_first_block,ending,incompatible,8,none,attribute,task_repetition,response_repetition,Rote Wesen,Grüne Wesen,Negativ,Positiv,Böse,NA,NA,negative,c,c,1,1071116,1071506,1071506,472,none,none,none,none,1072006
35,old,ending_first,incompatible_first,compatible_first,ES_red,first_IAT_first_block,ending,incompatible,9,none,target,task_switch,response_repetition,Rote Wesen,Grüne Wesen,Negativ,Positiv,IAT_red3.bmp,red,ending_scream,NA,c,c,1,1072706,1073096,1073096,249,none,none,none,none,1073366
35,old,ending_first,incompatible_first,compatible_first,ES_red,first_IAT_first_block,ending,incompatible,10,none,target,task_repetition,response_repetition,Rote Wesen,Grüne Wesen,Negativ,Positiv,IAT_red1.bmp,red,ending_scream,NA,c,c,1,1074096,1074486,1074486,283,none,none,none,none,1074796
35,old,ending_first,incompatible_first,compatible_first,ES_red,first_IAT_first_block,ending,incompatible,11,none,attribute,task_switch,response_repetition,Rote Wesen,Grüne Wesen,Negativ,Positiv,Trauer,NA,NA,negative,c,c,1,1075595,1075985,1075986,725,none,none,none,none,1076735
35,old,ending_first,incompatible_first,compatible_first,ES_red,first_IAT_first_block,ending,incompatible,12,none,target,task_switch,response_switch,Rote Wesen,Grüne Wesen,Negativ,Positiv,IAT_green1.bmp,green,ending_melody,NA,m,m,1,1077485,1077875,1077875,460,none,none,none,none,1078355
35,old,ending_first,incompatible_first,compatible_first,ES_red,first_IAT_first_block,ending,incompatible,13,none,attribute,task_switch,response_switch,Rote Wesen,Grüne Wesen,Negativ,Positiv,Versagen,NA,NA,negative,c,c,1,1079169,1079565,1079565,585,none,none,none,none,1080175
35,old,ending_first,incompatible_first,compatible_first,ES_red,first_IAT_first_block,ending,incompatible,14,none,target,task_switch,response_switch,Rote Wesen,Grüne Wesen,Negativ,Positiv,IAT_green2.bmp,green,ending_melody,NA,m,m,1,1080875,1081266,1081266,528,none,none,none,none,1081816
35,old,ending_first,incompatible_first,compatible_first,ES_red,first_IAT_first_block,ending,incompatible,15,none,target,task_repetition,response_switch,Rote Wesen,Grüne Wesen,Negativ,Positiv,IAT_red2.bmp,red,ending_scream,NA,c,c,1,1082526,1082916,1082916,456,none,none,none,none,1083396
35,old,ending_first,incompatible_first,compatible_first,ES_red,first_IAT_first_block,ending,incompatible,16,none,attribute,task_switch,response_repetition,Rote Wesen,Grüne Wesen,Negativ,Positiv,Schlecht,NA,NA,negative,c,c,1,1084176,1084566,1084566,581,none,none,none,none,1085166
35,old,ending_first,incompatible_first,compatible_first,ES_red,first_IAT_first_block,ending,incompatible,17,none,attribute,task_repetition,response_switch,Rote Wesen,Grüne Wesen,Negativ,Positiv,Freude,NA,NA,positive,m,m,1,1085906,1086296,1086296,701,none,none,none,none,1087016
35,old,ending_first,incompatible_first,compatible_first,ES_red,first_IAT_first_block,ending,incompatible,18,none,target,task_switch,response_switch,Rote Wesen,Grüne Wesen,Negativ,Positiv,IAT_red4.bmp,red,ending_scream,NA,c,c,1,1087725,1088115,1088116,897,none,none,none,none,1089035
35,old,ending_first,incompatible_first,compatible_first,ES_red,first_IAT_first_block,ending,incompatible,19,none,attribute,task_switch,response_switch,Rote Wesen,Grüne Wesen,Negativ,Positiv,Wundervoll,NA,NA,positive,m,m,1,1089755,1090145,1090145,1293,none,none,none,none,1091465
35,old,ending_first,incompatible_first,compatible_first,ES_red,first_IAT_first_block,ending,incompatible,20,none,target,task_switch,response_switch,Rote Wesen,Grüne Wesen,Negativ,Positiv,IAT_red2.bmp,red,ending_scream,NA,c,c,1,1092165,1092555,1092555,618,none,none,none,none,1093195
35,old,ending_first,incompatible_first,compatible_first,ES_red,first_IAT_first_block,ending,incompatible,21,none,target,task_repetition,response_switch,Rote Wesen,Grüne Wesen,Negativ,Positiv,IAT_green3.bmp,green,ending_melody,NA,m,m,1,1093895,1094285,1094285,498,none,none,none,none,1094805
35,old,ending_first,incompatible_first,compatible_first,ES_red,first_IAT_first_block,ending,incompatible,22,none,attribute,task_switch,response_switch,Rote Wesen,Grüne Wesen,Negativ,Positiv,Bedrohung,NA,NA,negative,c,c,1,1095545,1095935,1095935,649,none,none,none,none,1096605
35,old,ending_first,incompatible_first,compatible_first,ES_red,first_IAT_first_block,ending,incompatible,23,none,target,task_switch,response_repetition,Rote Wesen,Grüne Wesen,Negativ,Positiv,IAT_red3.bmp,red,ending_scream,NA,c,c,1,1097305,1097695,1097695,403,none,none,none,none,1098125
35,old,ending_first,incompatible_first,compatible_first,ES_red,first_IAT_first_block,ending,incompatible,24,none,attribute,task_switch,response_repetition,Rote Wesen,Grüne Wesen,Negativ,Positiv,Bedrohung,NA,NA,negative,c,c,1,1098856,1099246,1099246,467,none,none,none,none,1099736
35,old,ending_first,incompatible_first,compatible_first,ES_red,first_IAT_first_block,ending,incompatible,25,none,attribute,task_repetition,response_repetition,Rote Wesen,Grüne Wesen,Negativ,Positiv,Versagen,NA,NA,negative,c,c,1,1100456,1100845,1100846,552,none,none,none,none,1101426
35,old,ending_first,incompatible_first,compatible_first,ES_red,first_IAT_first_block,ending,incompatible,26,none,target,task_switch,response_switch,Rote Wesen,Grüne Wesen,Negativ,Positiv,IAT_green4.bmp,green,ending_melody,NA,m,m,1,1102165,1102555,1102556,497,none,none,none,none,1103075
35,old,ending_first,incompatible_first,compatible_first,ES_red,first_IAT_first_block,ending,incompatible,27,none,target,task_repetition,response_switch,Rote Wesen,Grüne Wesen,Negativ,Positiv,IAT_red4.bmp,red,ending_scream,NA,c,c,1,1103859,1104255,1104255,441,none,none,none,none,1104715
35,old,ending_first,incompatible_first,compatible_first,ES_red,first_IAT_first_block,ending,incompatible,28,none,attribute,task_switch,response_switch,Rote Wesen,Grüne Wesen,Negativ,Positiv,Liebe,NA,NA,positive,m,m,1,1105446,1105835,1105835,488,none,none,none,none,1106345
35,old,ending_first,incompatible_first,compatible_first,ES_red,first_IAT_first_block,ending,incompatible,29,none,target,task_switch,response_switch,Rote Wesen,Grüne Wesen,Negativ,Positiv,IAT_red1.bmp,red,ending_scream,NA,c,c,1,1107055,1107445,1107445,484,none,none,none,none,1107955
35,old,ending_first,incompatible_first,compatible_first,ES_red,first_IAT_first_block,ending,incompatible,30,none,attribute,task_switch,response_switch,Rote Wesen,Grüne Wesen,Negativ,Positiv,Spaß,NA,NA,positive,m,m,1,1108675,1109065,1109065,501,none,none,none,none,1109585
35,old,ending_first,incompatible_first,compatible_first,ES_red,first_IAT_first_block,ending,incompatible,31,none,target,task_switch,response_repetition,Rote Wesen,Grüne Wesen,Negativ,Positiv,IAT_green1.bmp,green,ending_melody,NA,m,m,1,1110285,1110675,1110675,388,none,none,none,none,1111085
35,old,ending_first,incompatible_first,compatible_first,ES_red,first_IAT_first_block,ending,incompatible,32,none,target,task_repetition,response_switch,Rote Wesen,Grüne Wesen,Negativ,Positiv,IAT_red1.bmp,red,ending_scream,NA,c,c,1,1111785,1112175,1112175,486,none,none,none,none,1112685
35,old,ending_first,incompatible_first,compatible_first,ES_red,first_IAT_first_block,ending,incompatible,33,none,target,task_repetition,response_switch,Rote Wesen,Grüne Wesen,Negativ,Positiv,IAT_green3.bmp,green,ending_melody,NA,m,m,1,1113414,1113804,1113805,315,none,none,none,none,1114144
35,old,ending_first,incompatible_first,compatible_first,ES_red,first_IAT_first_block,ending,incompatible,34,none,target,task_repetition,response_repetition,Rote Wesen,Grüne Wesen,Negativ,Positiv,IAT_green2.bmp,green,ending_melody,NA,m,m,1,1114845,1115234,1115234,435,none,none,none,none,1115694
35,old,ending_first,incompatible_first,compatible_first,ES_red,first_IAT_first_block,ending,incompatible,35,none,attribute,task_switch,response_repetition,Rote Wesen,Grüne Wesen,Negativ,Positiv,Glücklich,NA,NA,positive,m,m,1,1116425,1116815,1116815,529,none,none,none,none,1117365
35,old,ending_first,incompatible_first,compatible_first,ES_red,first_IAT_first_block,ending,incompatible,36,none,attribute,task_repetition,response_switch,Rote Wesen,Grüne Wesen,Negativ,Positiv,Schlecht,NA,NA,negative,c,c,1,1118125,1118515,1118515,593,none,none,none,none,1119135
35,old,ending_first,incompatible_first,compatible_first,ES_red,first_IAT_first_block,ending,incompatible,37,none,attribute,task_repetition,response_switch,Rote Wesen,Grüne Wesen,Negativ,Positiv,Freude,NA,NA,positive,m,m,1,1119865,1120255,1120255,659,none,none,none,none,1120935
35,old,ending_first,incompatible_first,compatible_first,ES_red,first_IAT_first_block,ending,incompatible,38,none,attribute,task_repetition,response_repetition,Rote Wesen,Grüne Wesen,Negativ,Positiv,Frieden,NA,NA,positive,m,m,1,1121655,1122045,1122045,1034,none,none,none,none,1123105
35,old,ending_first,incompatible_first,compatible_first,ES_red,first_IAT_first_block,ending,incompatible,39,none,attribute,task_repetition,response_repetition,Rote Wesen,Grüne Wesen,Negativ,Positiv,Wundervoll,NA,NA,positive,m,m,1,1123825,1124215,1124215,526,none,none,none,none,1124765
35,old,ending_first,incompatible_first,compatible_first,ES_red,first_IAT_first_block,ending,incompatible,40,none,target,task_switch,response_repetition,Rote Wesen,Grüne Wesen,Negativ,Positiv,IAT_green4.bmp,green,ending_melody,NA,m,m,1,1125505,1125894,1125895,428,none,none,none,none,1126345
35,old,ending_first,incompatible_first,compatible_first,ES_red,first_IAT_first_block,ending,incompatible,41,none,attribute,task_switch,response_switch,Rote Wesen,Grüne Wesen,Negativ,Positiv,Böse,NA,NA,negative,c,m,0,1127118,1127514,1127515,337,c,1,1127865,401,1128294
35,old,ending_first,incompatible_first,compatible_first,ES_red,first_IAT_first_block,ending,incompatible,42,none,target,task_switch,response_repetition,Rote Wesen,Grüne Wesen,Negativ,Positiv,IAT_red4.bmp,red,ending_scream,NA,c,c,1,1128994,1129384,1129384,517,none,none,none,none,1129924
35,old,ending_first,incompatible_first,compatible_first,ES_red,first_IAT_first_block,ending,incompatible,43,none,target,task_repetition,response_repetition,Rote Wesen,Grüne Wesen,Negativ,Positiv,IAT_red2.bmp,red,ending_scream,NA,c,c,1,1130624,1131014,1131014,487,none,none,none,none,1131524
35,old,ending_first,incompatible_first,compatible_first,ES_red,first_IAT_first_block,ending,incompatible,44,none,target,task_repetition,response_repetition,Rote Wesen,Grüne Wesen,Negativ,Positiv,IAT_red3.bmp,red,ending_scream,NA,c,c,1,1132224,1132614,1132614,393,none,none,none,none,1133034
35,old,ending_first,incompatible_first,compatible_first,ES_red,first_IAT_first_block,ending,incompatible,45,none,target,task_repetition,response_switch,Rote Wesen,Grüne Wesen,Negativ,Positiv,IAT_green1.bmp,green,ending_melody,NA,m,m,1,1133765,1134155,1134155,570,none,none,none,none,1134745
35,old,ending_first,incompatible_first,compatible_first,ES_red,first_IAT_first_block,ending,incompatible,46,none,attribute,task_switch,response_repetition,Rote Wesen,Grüne Wesen,Negativ,Positiv,Liebe,NA,NA,positive,m,m,1,1135465,1135855,1135855,479,none,none,none,none,1136355
35,old,ending_first,incompatible_first,compatible_first,ES_red,first_IAT_first_block,ending,incompatible,47,none,attribute,task_repetition,response_switch,Rote Wesen,Grüne Wesen,Negativ,Positiv,Schmerz,NA,NA,negative,c,c,1,1137095,1137485,1137485,459,none,none,none,none,1137965
35,old,ending_first,incompatible_first,compatible_first,ES_red,first_IAT_first_block,ending,incompatible,48,none,attribute,task_repetition,response_repetition,Rote Wesen,Grüne Wesen,Negativ,Positiv,Trauer,NA,NA,negative,c,c,1,1138694,1139084,1139085,492,none,none,none,none,1139604
