subject_nr,contrast_group,iat_order,block_order_1,block_order_2,color_counter,which_IAT_which_block,current_contrast,current_comp,trialnr,trial_type,target_type,task_switch, response_switch,left_target,right_target,left_attribute,right_attribute,trial_target,target_color,target_role,attribute_valence,correct_response,response_first_response,correct_first_response,time_assignments_show,time_target_show,time_first_response,response_time_first_response,response_force_correct,correct_force_correct,time_force_correct,response_time_force_correct,time_logger
36,new,melody_first,compatible_first,compatible_first,ES_green,first_IAT_second_block,melody,incompatible,0,none,attribute,NA,NA,Gelbe Wesen,Rote Wesen,Negativ,Positiv,Böse,NA,NA,negative,c,c,1,1087287,1087677,1087677,562,none,none,none,none,1088267
36,new,melody_first,compatible_first,compatible_first,ES_green,first_IAT_second_block,melody,incompatible,1,none,attribute,task_repetition,response_switch,Gelbe Wesen,Rote Wesen,Negativ,Positiv,Spaß,NA,NA,positive,m,c,0,1089007,1089397,1089397,423,m,1,1089837,219,1090077
36,new,melody_first,compatible_first,compatible_first,ES_green,first_IAT_second_block,melody,incompatible,2,none,attribute,task_repetition,response_switch,Gelbe Wesen,Rote Wesen,Negativ,Positiv,Schlecht,NA,NA,negative,c,c,1,1090796,1091186,1091187,503,none,none,none,none,1091716
36,new,melody_first,compatible_first,compatible_first,ES_green,first_IAT_second_block,melody,incompatible,3,none,target,task_switch,response_switch,Gelbe Wesen,Rote Wesen,Negativ,Positiv,IAT_red2.bmp,red,ending_melody,NA,m,m,1,1092416,1092806,1092807,441,none,none,none,none,1093266
36,new,melody_first,compatible_first,compatible_first,ES_green,first_IAT_second_block,melody,incompatible,4,none,target,task_repetition,response_repetition,Gelbe Wesen,Rote Wesen,Negativ,Positiv,IAT_red4.bmp,red,ending_melody,NA,m,m,1,1094016,1094406,1094406,385,none,none,none,none,1094816
36,new,melody_first,compatible_first,compatible_first,ES_green,first_IAT_second_block,melody,incompatible,5,none,attribute,task_switch,response_repetition,Gelbe Wesen,Rote Wesen,Negativ,Positiv,Liebe,NA,NA,positive,m,m,1,1095636,1096026,1096026,553,none,none,none,none,1096606
36,new,melody_first,compatible_first,compatible_first,ES_green,first_IAT_second_block,melody,incompatible,6,none,attribute,task_repetition,response_repetition,Gelbe Wesen,Rote Wesen,Negativ,Positiv,Wundervoll,NA,NA,positive,m,m,1,1097418,1097806,1097806,462,none,none,none,none,1098296
36,new,melody_first,compatible_first,compatible_first,ES_green,first_IAT_second_block,melody,incompatible,7,none,attribute,task_repetition,response_repetition,Gelbe Wesen,Rote Wesen,Negativ,Positiv,Freude,NA,NA,positive,m,m,1,1099027,1099417,1099417,348,none,none,none,none,1099787
36,new,melody_first,compatible_first,compatible_first,ES_green,first_IAT_second_block,melody,incompatible,8,none,target,task_switch,response_repetition,Gelbe Wesen,Rote Wesen,Negativ,Positiv,IAT_red1.bmp,red,ending_melody,NA,m,m,1,1100487,1100877,1100877,352,none,none,none,none,1101257
36,new,melody_first,compatible_first,compatible_first,ES_green,first_IAT_second_block,melody,incompatible,9,none,target,task_repetition,response_switch,Gelbe Wesen,Rote Wesen,Negativ,Positiv,IAT_yellow3.bmp,yellow,starting_melody,NA,c,c,1,1101947,1102337,1102337,301,none,none,none,none,1102657
36,new,melody_first,compatible_first,compatible_first,ES_green,first_IAT_second_block,melody,incompatible,10,none,target,task_repetition,response_repetition,Gelbe Wesen,Rote Wesen,Negativ,Positiv,IAT_yellow2.bmp,yellow,starting_melody,NA,c,c,1,1103356,1103746,1103747,328,none,none,none,none,1104096
36,new,melody_first,compatible_first,compatible_first,ES_green,first_IAT_second_block,melody,incompatible,11,none,attribute,task_switch,response_switch,Gelbe Wesen,Rote Wesen,Negativ,Positiv,Glücklich,NA,NA,positive,m,m,1,1104816,1105206,1105207,398,none,none,none,none,1105626
36,new,melody_first,compatible_first,compatible_first,ES_green,first_IAT_second_block,melody,incompatible,12,none,target,task_switch,response_switch,Gelbe Wesen,Rote Wesen,Negativ,Positiv,IAT_yellow4.bmp,yellow,starting_melody,NA,c,c,1,1106326,1106716,1106716,592,none,none,none,none,1107336
36,new,melody_first,compatible_first,compatible_first,ES_green,first_IAT_second_block,melody,incompatible,13,none,attribute,task_switch,response_switch,Gelbe Wesen,Rote Wesen,Negativ,Positiv,Frieden,NA,NA,positive,m,m,1,1108056,1108446,1108446,482,none,none,none,none,1108956
36,new,melody_first,compatible_first,compatible_first,ES_green,first_IAT_second_block,melody,incompatible,14,none,attribute,task_repetition,response_switch,Gelbe Wesen,Rote Wesen,Negativ,Positiv,Versagen,NA,NA,negative,c,c,1,1109676,1110066,1110066,478,none,none,none,none,1110566
36,new,melody_first,compatible_first,compatible_first,ES_green,first_IAT_second_block,melody,incompatible,15,none,target,task_switch,response_repetition,Gelbe Wesen,Rote Wesen,Negativ,Positiv,IAT_yellow1.bmp,yellow,starting_melody,NA,c,c,1,1111286,1111676,1111676,407,none,none,none,none,1112106
36,new,melody_first,compatible_first,compatible_first,ES_green,first_IAT_second_block,melody,incompatible,16,none,target,task_repetition,response_repetition,Gelbe Wesen,Rote Wesen,Negativ,Positiv,IAT_yellow1.bmp,yellow,starting_melody,NA,c,c,1,1112806,1113196,1113196,304,none,none,none,none,1113526
36,new,melody_first,compatible_first,compatible_first,ES_green,first_IAT_second_block,melody,incompatible,17,none,attribute,task_switch,response_switch,Gelbe Wesen,Rote Wesen,Negativ,Positiv,Spaß,NA,NA,positive,m,m,1,1114256,1114646,1114646,471,none,none,none,none,1115146
36,new,melody_first,compatible_first,compatible_first,ES_green,first_IAT_second_block,melody,incompatible,18,none,target,task_switch,response_repetition,Gelbe Wesen,Rote Wesen,Negativ,Positiv,IAT_red3.bmp,red,ending_melody,NA,m,c,0,1115895,1116286,1116287,428,m,1,1116727,355,1117106
36,new,melody_first,compatible_first,compatible_first,ES_green,first_IAT_second_block,melody,incompatible,19,none,attribute,task_switch,response_switch,Gelbe Wesen,Rote Wesen,Negativ,Positiv,Schmerz,NA,NA,negative,c,c,1,1117866,1118256,1118256,657,none,none,none,none,1118936
36,new,melody_first,compatible_first,compatible_first,ES_green,first_IAT_second_block,melody,incompatible,20,none,target,task_switch,response_repetition,Gelbe Wesen,Rote Wesen,Negativ,Positiv,IAT_yellow2.bmp,yellow,starting_melody,NA,c,c,1,1119688,1120076,1120076,395,none,none,none,none,1120496
36,new,melody_first,compatible_first,compatible_first,ES_green,first_IAT_second_block,melody,incompatible,21,none,attribute,task_switch,response_repetition,Gelbe Wesen,Rote Wesen,Negativ,Positiv,Bedrohung,NA,NA,negative,c,c,1,1121226,1121616,1121616,359,none,none,none,none,1121996
36,new,melody_first,compatible_first,compatible_first,ES_green,first_IAT_second_block,melody,incompatible,22,none,target,task_switch,response_switch,Gelbe Wesen,Rote Wesen,Negativ,Positiv,IAT_red3.bmp,red,ending_melody,NA,m,m,1,1122696,1123086,1123086,431,none,none,none,none,1123536
36,new,melody_first,compatible_first,compatible_first,ES_green,first_IAT_second_block,melody,incompatible,23,none,attribute,task_switch,response_switch,Gelbe Wesen,Rote Wesen,Negativ,Positiv,Trauer,NA,NA,negative,c,c,1,1124266,1124656,1124656,498,none,none,none,none,1125176
36,new,melody_first,compatible_first,compatible_first,ES_green,first_IAT_second_block,melody,incompatible,24,none,target,task_switch,response_switch,Gelbe Wesen,Rote Wesen,Negativ,Positiv,IAT_red4.bmp,red,ending_melody,NA,m,m,1,1125886,1126276,1126276,501,none,none,none,none,1126806
36,new,melody_first,compatible_first,compatible_first,ES_green,first_IAT_second_block,melody,incompatible,25,none,target,task_repetition,response_repetition,Gelbe Wesen,Rote Wesen,Negativ,Positiv,IAT_red2.bmp,red,ending_melody,NA,m,m,1,1127505,1127895,1127896,386,none,none,none,none,1128305
36,new,melody_first,compatible_first,compatible_first,ES_green,first_IAT_second_block,melody,incompatible,26,none,attribute,task_switch,response_repetition,Gelbe Wesen,Rote Wesen,Negativ,Positiv,Glücklich,NA,NA,positive,m,m,1,1129025,1129415,1129416,573,none,none,none,none,1130015
36,new,melody_first,compatible_first,compatible_first,ES_green,first_IAT_second_block,melody,incompatible,27,none,target,task_switch,response_switch,Gelbe Wesen,Rote Wesen,Negativ,Positiv,IAT_yellow3.bmp,yellow,starting_melody,NA,c,c,1,1130736,1131125,1131125,613,none,none,none,none,1131765
36,new,melody_first,compatible_first,compatible_first,ES_green,first_IAT_second_block,melody,incompatible,28,none,target,task_repetition,response_switch,Gelbe Wesen,Rote Wesen,Negativ,Positiv,IAT_red1.bmp,red,ending_melody,NA,m,m,1,1132455,1132845,1132845,398,none,none,none,none,1133265
36,new,melody_first,compatible_first,compatible_first,ES_green,first_IAT_second_block,melody,incompatible,29,none,target,task_repetition,response_switch,Gelbe Wesen,Rote Wesen,Negativ,Positiv,IAT_yellow4.bmp,yellow,starting_melody,NA,c,c,1,1133966,1134356,1134356,717,none,none,none,none,1135096
36,new,melody_first,compatible_first,compatible_first,ES_green,first_IAT_second_block,melody,incompatible,30,none,target,task_repetition,response_switch,Gelbe Wesen,Rote Wesen,Negativ,Positiv,IAT_red4.bmp,red,ending_melody,NA,m,m,1,1135796,1136186,1136186,359,none,none,none,none,1136566
36,new,melody_first,compatible_first,compatible_first,ES_green,first_IAT_second_block,melody,incompatible,31,none,attribute,task_switch,response_repetition,Gelbe Wesen,Rote Wesen,Negativ,Positiv,Wundervoll,NA,NA,positive,m,m,1,1137296,1137686,1137686,544,none,none,none,none,1138256
36,new,melody_first,compatible_first,compatible_first,ES_green,first_IAT_second_block,melody,incompatible,32,none,attribute,task_repetition,response_repetition,Gelbe Wesen,Rote Wesen,Negativ,Positiv,Liebe,NA,NA,positive,m,m,1,1138975,1139365,1139366,412,none,none,none,none,1139806
36,new,melody_first,compatible_first,compatible_first,ES_green,first_IAT_second_block,melody,incompatible,33,none,attribute,task_repetition,response_switch,Gelbe Wesen,Rote Wesen,Negativ,Positiv,Böse,NA,NA,negative,c,c,1,1140585,1140975,1140976,718,none,none,none,none,1141715
36,new,melody_first,compatible_first,compatible_first,ES_green,first_IAT_second_block,melody,incompatible,34,none,attribute,task_repetition,response_switch,Gelbe Wesen,Rote Wesen,Negativ,Positiv,Frieden,NA,NA,positive,m,m,1,1142497,1142885,1142885,455,none,none,none,none,1143365
36,new,melody_first,compatible_first,compatible_first,ES_green,first_IAT_second_block,melody,incompatible,35,none,target,task_switch,response_repetition,Gelbe Wesen,Rote Wesen,Negativ,Positiv,IAT_red2.bmp,red,ending_melody,NA,m,m,1,1144055,1144445,1144445,348,none,none,none,none,1144815
36,new,melody_first,compatible_first,compatible_first,ES_green,first_IAT_second_block,melody,incompatible,36,none,target,task_repetition,response_repetition,Gelbe Wesen,Rote Wesen,Negativ,Positiv,IAT_red3.bmp,red,ending_melody,NA,m,m,1,1145535,1145925,1145925,351,none,none,none,none,1146295
36,new,melody_first,compatible_first,compatible_first,ES_green,first_IAT_second_block,melody,incompatible,37,none,target,task_repetition,response_switch,Gelbe Wesen,Rote Wesen,Negativ,Positiv,IAT_yellow3.bmp,yellow,starting_melody,NA,c,c,1,1146985,1147375,1147375,403,none,none,none,none,1147805
36,new,melody_first,compatible_first,compatible_first,ES_green,first_IAT_second_block,melody,incompatible,38,none,target,task_repetition,response_switch,Gelbe Wesen,Rote Wesen,Negativ,Positiv,IAT_red1.bmp,red,ending_melody,NA,m,m,1,1148515,1148905,1148905,345,none,none,none,none,1149275
36,new,melody_first,compatible_first,compatible_first,ES_green,first_IAT_second_block,melody,incompatible,39,none,attribute,task_switch,response_switch,Gelbe Wesen,Rote Wesen,Negativ,Positiv,Bedrohung,NA,NA,negative,c,c,1,1149995,1150385,1150385,603,none,none,none,none,1151016
36,new,melody_first,compatible_first,compatible_first,ES_green,first_IAT_second_block,melody,incompatible,40,none,attribute,task_repetition,response_repetition,Gelbe Wesen,Rote Wesen,Negativ,Positiv,Versagen,NA,NA,negative,c,c,1,1151765,1152155,1152156,598,none,none,none,none,1152775
36,new,melody_first,compatible_first,compatible_first,ES_green,first_IAT_second_block,melody,incompatible,41,none,attribute,task_repetition,response_repetition,Gelbe Wesen,Rote Wesen,Negativ,Positiv,Schlecht,NA,NA,negative,c,c,1,1153495,1153885,1153886,501,none,none,none,none,1154415
36,new,melody_first,compatible_first,compatible_first,ES_green,first_IAT_second_block,melody,incompatible,42,none,target,task_switch,response_repetition,Gelbe Wesen,Rote Wesen,Negativ,Positiv,IAT_yellow1.bmp,yellow,starting_melody,NA,c,c,1,1155115,1155505,1155505,528,none,none,none,none,1156055
36,new,melody_first,compatible_first,compatible_first,ES_green,first_IAT_second_block,melody,incompatible,43,none,target,task_repetition,response_repetition,Gelbe Wesen,Rote Wesen,Negativ,Positiv,IAT_yellow2.bmp,yellow,starting_melody,NA,c,c,1,1156755,1157145,1157145,386,none,none,none,none,1157555
36,new,melody_first,compatible_first,compatible_first,ES_green,first_IAT_second_block,melody,incompatible,44,none,attribute,task_switch,response_repetition,Gelbe Wesen,Rote Wesen,Negativ,Positiv,Böse,NA,NA,negative,c,c,1,1158275,1158665,1158665,689,none,none,none,none,1159375
36,new,melody_first,compatible_first,compatible_first,ES_green,first_IAT_second_block,melody,incompatible,45,none,attribute,task_repetition,response_switch,Gelbe Wesen,Rote Wesen,Negativ,Positiv,Freude,NA,NA,positive,m,m,1,1160095,1160485,1160485,529,none,none,none,none,1161035
36,new,melody_first,compatible_first,compatible_first,ES_green,first_IAT_second_block,melody,incompatible,46,none,target,task_switch,response_switch,Gelbe Wesen,Rote Wesen,Negativ,Positiv,IAT_yellow4.bmp,yellow,starting_melody,NA,c,c,1,1161805,1162195,1162195,527,none,none,none,none,1162745
36,new,melody_first,compatible_first,compatible_first,ES_green,first_IAT_second_block,melody,incompatible,47,none,attribute,task_switch,response_repetition,Gelbe Wesen,Rote Wesen,Negativ,Positiv,Schmerz,NA,NA,negative,c,c,1,1163548,1163944,1163945,511,none,none,none,none,1164474
36,new,melody_first,compatible_first,compatible_first,ES_green,first_IAT_second_block,melody,incompatible,48,none,attribute,task_repetition,response_repetition,Gelbe Wesen,Rote Wesen,Negativ,Positiv,Trauer,NA,NA,negative,c,c,1,1165204,1165594,1165595,341,none,none,none,none,1165964
