subject_nr,contrast_group,iat_order,block_order_1,block_order_2,color_counter,which_IAT_which_block,current_contrast,current_comp,trialnr,trial_type,target_type,task_switch, response_switch,left_target,right_target,left_attribute,right_attribute,trial_target,target_color,target_role,attribute_valence,correct_response,response_first_response,correct_first_response,time_assignments_show,time_target_show,time_first_response,response_time_first_response,response_force_correct,correct_force_correct,time_force_correct,response_time_force_correct,time_logger
36,new,melody_first,compatible_first,compatible_first,ES_green,first_IAT_second_block,melody,incompatible,0,NA,target_practice,target_practice,target_practice,Gelbe Wesen,Rote Wesen,target_practice,target_practice,IAT_red3.bmp,red,ending_melody,target_practice,m,m,1,1026318,1026708,1026708,541,none,none,none,none,1027268
36,new,melody_first,compatible_first,compatible_first,ES_green,first_IAT_second_block,melody,incompatible,1,repetition,target_practice,target_practice,target_practice,Gelbe Wesen,Rote Wesen,target_practice,target_practice,IAT_red2.bmp,red,ending_melody,target_practice,m,m,1,1027828,1028218,1028218,335,none,none,none,none,1028579
36,new,melody_first,compatible_first,compatible_first,ES_green,first_IAT_second_block,melody,incompatible,2,change,target_practice,target_practice,target_practice,Gelbe Wesen,Rote Wesen,target_practice,target_practice,IAT_yellow1.bmp,yellow,starting_melody,target_practice,c,c,1,1029159,1029549,1029549,475,none,none,none,none,1030049
36,new,melody_first,compatible_first,compatible_first,ES_green,first_IAT_second_block,melody,incompatible,3,repetition,target_practice,target_practice,target_practice,Gelbe Wesen,Rote Wesen,target_practice,target_practice,IAT_yellow3.bmp,yellow,starting_melody,target_practice,c,c,1,1030609,1030998,1030999,318,none,none,none,none,1031338
36,new,melody_first,compatible_first,compatible_first,ES_green,first_IAT_second_block,melody,incompatible,4,change,target_practice,target_practice,target_practice,Gelbe Wesen,Rote Wesen,target_practice,target_practice,IAT_red4.bmp,red,ending_melody,target_practice,m,m,1,1031958,1032348,1032349,425,none,none,none,none,1032798
36,new,melody_first,compatible_first,compatible_first,ES_green,first_IAT_second_block,melody,incompatible,5,repetition,target_practice,target_practice,target_practice,Gelbe Wesen,Rote Wesen,target_practice,target_practice,IAT_red1.bmp,red,ending_melody,target_practice,m,m,1,1033400,1033788,1033789,297,none,none,none,none,1034108
36,new,melody_first,compatible_first,compatible_first,ES_green,first_IAT_second_block,melody,incompatible,6,repetition,target_practice,target_practice,target_practice,Gelbe Wesen,Rote Wesen,target_practice,target_practice,IAT_red4.bmp,red,ending_melody,target_practice,m,m,1,1034668,1035058,1035058,315,none,none,none,none,1035398
36,new,melody_first,compatible_first,compatible_first,ES_green,first_IAT_second_block,melody,incompatible,7,change,target_practice,target_practice,target_practice,Gelbe Wesen,Rote Wesen,target_practice,target_practice,IAT_yellow4.bmp,yellow,starting_melody,target_practice,c,c,1,1035959,1036348,1036348,325,none,none,none,none,1036698
36,new,melody_first,compatible_first,compatible_first,ES_green,first_IAT_second_block,melody,incompatible,8,change,target_practice,target_practice,target_practice,Gelbe Wesen,Rote Wesen,target_practice,target_practice,IAT_red1.bmp,red,ending_melody,target_practice,m,m,1,1037258,1037648,1037648,300,none,none,none,none,1037968
36,new,melody_first,compatible_first,compatible_first,ES_green,first_IAT_second_block,melody,incompatible,9,repetition,target_practice,target_practice,target_practice,Gelbe Wesen,Rote Wesen,target_practice,target_practice,IAT_red4.bmp,red,ending_melody,target_practice,m,m,1,1038538,1038928,1038928,339,none,none,none,none,1039288
36,new,melody_first,compatible_first,compatible_first,ES_green,first_IAT_second_block,melody,incompatible,10,change,target_practice,target_practice,target_practice,Gelbe Wesen,Rote Wesen,target_practice,target_practice,IAT_yellow4.bmp,yellow,starting_melody,target_practice,c,c,1,1039848,1040238,1040238,312,none,none,none,none,1040578
36,new,melody_first,compatible_first,compatible_first,ES_green,first_IAT_second_block,melody,incompatible,11,change,target_practice,target_practice,target_practice,Gelbe Wesen,Rote Wesen,target_practice,target_practice,IAT_red3.bmp,red,ending_melody,target_practice,m,m,1,1041148,1041538,1041538,344,none,none,none,none,1041908
36,new,melody_first,compatible_first,compatible_first,ES_green,first_IAT_second_block,melody,incompatible,12,change,target_practice,target_practice,target_practice,Gelbe Wesen,Rote Wesen,target_practice,target_practice,IAT_yellow1.bmp,yellow,starting_melody,target_practice,c,c,1,1042477,1042867,1042868,277,none,none,none,none,1043167
36,new,melody_first,compatible_first,compatible_first,ES_green,first_IAT_second_block,melody,incompatible,13,repetition,target_practice,target_practice,target_practice,Gelbe Wesen,Rote Wesen,target_practice,target_practice,IAT_yellow2.bmp,yellow,starting_melody,target_practice,c,c,1,1043727,1044117,1044118,365,none,none,none,none,1044507
36,new,melody_first,compatible_first,compatible_first,ES_green,first_IAT_second_block,melody,incompatible,14,repetition,target_practice,target_practice,target_practice,Gelbe Wesen,Rote Wesen,target_practice,target_practice,IAT_yellow2.bmp,yellow,starting_melody,target_practice,c,c,1,1045067,1045457,1045458,347,none,none,none,none,1045827
36,new,melody_first,compatible_first,compatible_first,ES_green,first_IAT_second_block,melody,incompatible,15,repetition,target_practice,target_practice,target_practice,Gelbe Wesen,Rote Wesen,target_practice,target_practice,IAT_yellow2.bmp,yellow,starting_melody,target_practice,c,c,1,1046398,1046788,1046788,365,none,none,none,none,1047178
36,new,melody_first,compatible_first,compatible_first,ES_green,first_IAT_second_block,melody,incompatible,16,change,target_practice,target_practice,target_practice,Gelbe Wesen,Rote Wesen,target_practice,target_practice,IAT_red2.bmp,red,ending_melody,target_practice,m,m,1,1047768,1048158,1048158,325,none,none,none,none,1048508
36,new,melody_first,compatible_first,compatible_first,ES_green,first_IAT_second_block,melody,incompatible,17,change,target_practice,target_practice,target_practice,Gelbe Wesen,Rote Wesen,target_practice,target_practice,IAT_yellow1.bmp,yellow,starting_melody,target_practice,c,c,1,1049118,1049508,1049508,300,none,none,none,none,1049828
36,new,melody_first,compatible_first,compatible_first,ES_green,first_IAT_second_block,melody,incompatible,18,repetition,target_practice,target_practice,target_practice,Gelbe Wesen,Rote Wesen,target_practice,target_practice,IAT_yellow3.bmp,yellow,starting_melody,target_practice,c,m,0,1050428,1050818,1050818,326,c,1,1051158,377,1051558
36,new,melody_first,compatible_first,compatible_first,ES_green,first_IAT_second_block,melody,incompatible,19,repetition,target_practice,target_practice,target_practice,Gelbe Wesen,Rote Wesen,target_practice,target_practice,IAT_yellow3.bmp,yellow,starting_melody,target_practice,c,c,1,1052211,1052608,1052608,294,none,none,none,none,1052928
36,new,melody_first,compatible_first,compatible_first,ES_green,first_IAT_second_block,melody,incompatible,20,change,target_practice,target_practice,target_practice,Gelbe Wesen,Rote Wesen,target_practice,target_practice,IAT_red2.bmp,red,ending_melody,target_practice,m,m,1,1053498,1053887,1053888,387,none,none,none,none,1054298
