subject_nr,contrast_group,iat_order,block_order_1,block_order_2,color_counter,which_IAT_which_block,current_contrast,current_comp,trialnr,trial_type,target_type,task_switch, response_switch,left_target,right_target,left_attribute,right_attribute,trial_target,target_color,target_role,attribute_valence,correct_response,response_first_response,correct_first_response,time_assignments_show,time_target_show,time_first_response,response_time_first_response,response_force_correct,correct_force_correct,time_force_correct,response_time_force_correct,time_logger
44,old,ending_first,incompatible_first,compatible_first,ES_green,second_IAT_second_block,starting,incompatible,0,NA,target_practice,target_practice,target_practice,Gelbe Wesen,Lila Wesen,target_practice,target_practice,IAT_yellow4.bmp,yellow,starting_melody,target_practice,c,c,1,1527752,1528142,1528142,1303,none,none,none,none,1529472
44,old,ending_first,incompatible_first,compatible_first,ES_green,second_IAT_second_block,starting,incompatible,1,repetition,target_practice,target_practice,target_practice,Gelbe Wesen,Lila Wesen,target_practice,target_practice,IAT_yellow3.bmp,yellow,starting_melody,target_practice,c,c,1,1530021,1530411,1530412,340,none,none,none,none,1530772
44,old,ending_first,incompatible_first,compatible_first,ES_green,second_IAT_second_block,starting,incompatible,2,change,target_practice,target_practice,target_practice,Gelbe Wesen,Lila Wesen,target_practice,target_practice,IAT_purple3.bmp,purple,starting_scream,target_practice,m,m,1,1531341,1531731,1531732,380,none,none,none,none,1532131
44,old,ending_first,incompatible_first,compatible_first,ES_green,second_IAT_second_block,starting,incompatible,3,repetition,target_practice,target_practice,target_practice,Gelbe Wesen,Lila Wesen,target_practice,target_practice,IAT_purple2.bmp,purple,starting_scream,target_practice,m,c,0,1532681,1533071,1533072,238,m,1,1533321,300,1533641
44,old,ending_first,incompatible_first,compatible_first,ES_green,second_IAT_second_block,starting,incompatible,4,repetition,target_practice,target_practice,target_practice,Gelbe Wesen,Lila Wesen,target_practice,target_practice,IAT_purple4.bmp,purple,starting_scream,target_practice,m,m,1,1534191,1534581,1534581,366,none,none,none,none,1534971
44,old,ending_first,incompatible_first,compatible_first,ES_green,second_IAT_second_block,starting,incompatible,5,repetition,target_practice,target_practice,target_practice,Gelbe Wesen,Lila Wesen,target_practice,target_practice,IAT_purple1.bmp,purple,starting_scream,target_practice,m,m,1,1535541,1535932,1535932,332,none,none,none,none,1536292
44,old,ending_first,incompatible_first,compatible_first,ES_green,second_IAT_second_block,starting,incompatible,6,change,target_practice,target_practice,target_practice,Gelbe Wesen,Lila Wesen,target_practice,target_practice,IAT_yellow1.bmp,yellow,starting_melody,target_practice,c,c,1,1536852,1537242,1537242,322,none,none,none,none,1537592
44,old,ending_first,incompatible_first,compatible_first,ES_green,second_IAT_second_block,starting,incompatible,7,change,target_practice,target_practice,target_practice,Gelbe Wesen,Lila Wesen,target_practice,target_practice,IAT_purple4.bmp,purple,starting_scream,target_practice,m,m,1,1538152,1538542,1538542,241,none,none,none,none,1538802
44,old,ending_first,incompatible_first,compatible_first,ES_green,second_IAT_second_block,starting,incompatible,8,change,target_practice,target_practice,target_practice,Gelbe Wesen,Lila Wesen,target_practice,target_practice,IAT_yellow2.bmp,yellow,starting_melody,target_practice,c,c,1,1539372,1539762,1539762,599,none,none,none,none,1540382
44,old,ending_first,incompatible_first,compatible_first,ES_green,second_IAT_second_block,starting,incompatible,9,change,target_practice,target_practice,target_practice,Gelbe Wesen,Lila Wesen,target_practice,target_practice,IAT_purple3.bmp,purple,starting_scream,target_practice,m,m,1,1540942,1541332,1541332,249,none,none,none,none,1541602
44,old,ending_first,incompatible_first,compatible_first,ES_green,second_IAT_second_block,starting,incompatible,10,change,target_practice,target_practice,target_practice,Gelbe Wesen,Lila Wesen,target_practice,target_practice,IAT_yellow3.bmp,yellow,starting_melody,target_practice,c,c,1,1542172,1542562,1542562,367,none,none,none,none,1542952
44,old,ending_first,incompatible_first,compatible_first,ES_green,second_IAT_second_block,starting,incompatible,11,change,target_practice,target_practice,target_practice,Gelbe Wesen,Lila Wesen,target_practice,target_practice,IAT_purple3.bmp,purple,starting_scream,target_practice,m,m,1,1543512,1543901,1543902,228,none,none,none,none,1544152
44,old,ending_first,incompatible_first,compatible_first,ES_green,second_IAT_second_block,starting,incompatible,12,change,target_practice,target_practice,target_practice,Gelbe Wesen,Lila Wesen,target_practice,target_practice,IAT_yellow2.bmp,yellow,starting_melody,target_practice,c,c,1,1544783,1545171,1545172,306,none,none,none,none,1545501
44,old,ending_first,incompatible_first,compatible_first,ES_green,second_IAT_second_block,starting,incompatible,13,repetition,target_practice,target_practice,target_practice,Gelbe Wesen,Lila Wesen,target_practice,target_practice,IAT_yellow2.bmp,yellow,starting_melody,target_practice,c,m,0,1546081,1546471,1546472,272,c,1,1546762,618,1547401
44,old,ending_first,incompatible_first,compatible_first,ES_green,second_IAT_second_block,starting,incompatible,14,repetition,target_practice,target_practice,target_practice,Gelbe Wesen,Lila Wesen,target_practice,target_practice,IAT_yellow3.bmp,yellow,starting_melody,target_practice,c,c,1,1548083,1548471,1548472,382,none,none,none,none,1548881
44,old,ending_first,incompatible_first,compatible_first,ES_green,second_IAT_second_block,starting,incompatible,15,change,target_practice,target_practice,target_practice,Gelbe Wesen,Lila Wesen,target_practice,target_practice,IAT_purple2.bmp,purple,starting_scream,target_practice,m,m,1,1549451,1549841,1549841,354,none,none,none,none,1550221
44,old,ending_first,incompatible_first,compatible_first,ES_green,second_IAT_second_block,starting,incompatible,16,repetition,target_practice,target_practice,target_practice,Gelbe Wesen,Lila Wesen,target_practice,target_practice,IAT_purple1.bmp,purple,starting_scream,target_practice,m,m,1,1550781,1551171,1551171,330,none,none,none,none,1551521
44,old,ending_first,incompatible_first,compatible_first,ES_green,second_IAT_second_block,starting,incompatible,17,repetition,target_practice,target_practice,target_practice,Gelbe Wesen,Lila Wesen,target_practice,target_practice,IAT_purple2.bmp,purple,starting_scream,target_practice,m,m,1,1552081,1552471,1552471,694,none,none,none,none,1553192
44,old,ending_first,incompatible_first,compatible_first,ES_green,second_IAT_second_block,starting,incompatible,18,repetition,target_practice,target_practice,target_practice,Gelbe Wesen,Lila Wesen,target_practice,target_practice,IAT_purple1.bmp,purple,starting_scream,target_practice,m,m,1,1553752,1554142,1554142,439,none,none,none,none,1554602
44,old,ending_first,incompatible_first,compatible_first,ES_green,second_IAT_second_block,starting,incompatible,19,change,target_practice,target_practice,target_practice,Gelbe Wesen,Lila Wesen,target_practice,target_practice,IAT_yellow1.bmp,yellow,starting_melody,target_practice,c,c,1,1555172,1555562,1555562,677,none,none,none,none,1556262
44,old,ending_first,incompatible_first,compatible_first,ES_green,second_IAT_second_block,starting,incompatible,20,repetition,target_practice,target_practice,target_practice,Gelbe Wesen,Lila Wesen,target_practice,target_practice,IAT_yellow4.bmp,yellow,starting_melody,target_practice,c,c,1,1556842,1557232,1557232,391,none,none,none,none,1557642
