subject_nr,contrast_group,iat_order,block_order_1,block_order_2,color_counter,which_IAT_which_block,current_contrast,current_comp,trialnr,trial_type,target_type,task_switch, response_switch,left_target,right_target,left_attribute,right_attribute,trial_target,target_color,target_role,attribute_valence,correct_response,response_first_response,correct_first_response,time_assignments_show,time_target_show,time_first_response,response_time_first_response,response_force_correct,correct_force_correct,time_force_correct,response_time_force_correct,time_logger
45,old,ending_first,compatible_first,incompatible_first,ES_yellow,second_IAT_first_block,starting,incompatible,0,none,attribute,NA,NA,Rote Wesen,Grüne Wesen,Negativ,Positiv,Wundervoll,NA,NA,positive,m,m,1,1518132,1518522,1518523,1016,none,none,none,none,1519562
45,old,ending_first,compatible_first,incompatible_first,ES_yellow,second_IAT_first_block,starting,incompatible,1,none,target,task_switch,response_repetition,Rote Wesen,Grüne Wesen,Negativ,Positiv,IAT_green3.bmp,green,starting_scream,NA,m,m,1,1520262,1520652,1520652,764,none,none,none,none,1521442
45,old,ending_first,compatible_first,incompatible_first,ES_yellow,second_IAT_first_block,starting,incompatible,2,none,attribute,task_switch,response_repetition,Rote Wesen,Grüne Wesen,Negativ,Positiv,Frieden,NA,NA,positive,m,m,1,1522172,1522562,1522562,667,none,none,none,none,1523252
45,old,ending_first,compatible_first,incompatible_first,ES_yellow,second_IAT_first_block,starting,incompatible,3,none,attribute,task_repetition,response_switch,Rote Wesen,Grüne Wesen,Negativ,Positiv,Trauer,NA,NA,negative,c,m,0,1524032,1524422,1524422,514,c,1,1524952,188,1525162
45,old,ending_first,compatible_first,incompatible_first,ES_yellow,second_IAT_first_block,starting,incompatible,4,none,attribute,task_repetition,response_switch,Rote Wesen,Grüne Wesen,Negativ,Positiv,Liebe,NA,NA,positive,m,m,1,1525932,1526322,1526322,612,none,none,none,none,1526962
45,old,ending_first,compatible_first,incompatible_first,ES_yellow,second_IAT_first_block,starting,incompatible,5,none,target,task_switch,response_switch,Rote Wesen,Grüne Wesen,Negativ,Positiv,IAT_red3.bmp,red,starting_melody,NA,c,c,1,1527722,1528112,1528112,497,none,none,none,none,1528632
45,old,ending_first,compatible_first,incompatible_first,ES_yellow,second_IAT_first_block,starting,incompatible,6,none,target,task_repetition,response_repetition,Rote Wesen,Grüne Wesen,Negativ,Positiv,IAT_red2.bmp,red,starting_melody,NA,c,c,1,1529395,1529791,1529792,421,none,none,none,none,1530242
45,old,ending_first,compatible_first,incompatible_first,ES_yellow,second_IAT_first_block,starting,incompatible,7,none,attribute,task_switch,response_repetition,Rote Wesen,Grüne Wesen,Negativ,Positiv,Bedrohung,NA,NA,negative,c,c,1,1530982,1531371,1531372,918,none,none,none,none,1532311
45,old,ending_first,compatible_first,incompatible_first,ES_yellow,second_IAT_first_block,starting,incompatible,8,none,target,task_switch,response_switch,Rote Wesen,Grüne Wesen,Negativ,Positiv,IAT_green2.bmp,green,starting_scream,NA,m,m,1,1533021,1533411,1533411,469,none,none,none,none,1533901
45,old,ending_first,compatible_first,incompatible_first,ES_yellow,second_IAT_first_block,starting,incompatible,9,none,attribute,task_switch,response_switch,Rote Wesen,Grüne Wesen,Negativ,Positiv,Versagen,NA,NA,negative,c,c,1,1534631,1535021,1535021,549,none,none,none,none,1535592
45,old,ending_first,compatible_first,incompatible_first,ES_yellow,second_IAT_first_block,starting,incompatible,10,none,target,task_switch,response_switch,Rote Wesen,Grüne Wesen,Negativ,Positiv,IAT_green4.bmp,green,starting_scream,NA,m,m,1,1536292,1536682,1536682,539,none,none,none,none,1537242
45,old,ending_first,compatible_first,incompatible_first,ES_yellow,second_IAT_first_block,starting,incompatible,11,none,target,task_repetition,response_repetition,Rote Wesen,Grüne Wesen,Negativ,Positiv,IAT_green1.bmp,green,starting_scream,NA,m,m,1,1538032,1538422,1538422,415,none,none,none,none,1538862
45,old,ending_first,compatible_first,incompatible_first,ES_yellow,second_IAT_first_block,starting,incompatible,12,none,target,task_repetition,response_repetition,Rote Wesen,Grüne Wesen,Negativ,Positiv,IAT_green1.bmp,green,starting_scream,NA,m,m,1,1539562,1539952,1539952,434,none,none,none,none,1540412
45,old,ending_first,compatible_first,incompatible_first,ES_yellow,second_IAT_first_block,starting,incompatible,13,none,attribute,task_switch,response_switch,Rote Wesen,Grüne Wesen,Negativ,Positiv,Schlecht,NA,NA,negative,c,c,1,1541141,1541531,1541532,696,none,none,none,none,1542251
45,old,ending_first,compatible_first,incompatible_first,ES_yellow,second_IAT_first_block,starting,incompatible,14,none,attribute,task_repetition,response_repetition,Rote Wesen,Grüne Wesen,Negativ,Positiv,Schmerz,NA,NA,negative,c,c,1,1542981,1543371,1543372,867,none,none,none,none,1544261
45,old,ending_first,compatible_first,incompatible_first,ES_yellow,second_IAT_first_block,starting,incompatible,15,none,attribute,task_repetition,response_switch,Rote Wesen,Grüne Wesen,Negativ,Positiv,Spaß,NA,NA,positive,m,m,1,1544991,1545381,1545381,608,none,none,none,none,1546011
45,old,ending_first,compatible_first,incompatible_first,ES_yellow,second_IAT_first_block,starting,incompatible,16,none,attribute,task_repetition,response_repetition,Rote Wesen,Grüne Wesen,Negativ,Positiv,Glücklich,NA,NA,positive,m,m,1,1546741,1547131,1547131,727,none,none,none,none,1547881
45,old,ending_first,compatible_first,incompatible_first,ES_yellow,second_IAT_first_block,starting,incompatible,17,none,target,task_switch,response_repetition,Rote Wesen,Grüne Wesen,Negativ,Positiv,IAT_green3.bmp,green,starting_scream,NA,m,m,1,1548591,1548981,1548981,911,none,none,none,none,1549911
45,old,ending_first,compatible_first,incompatible_first,ES_yellow,second_IAT_first_block,starting,incompatible,18,none,target,task_repetition,response_switch,Rote Wesen,Grüne Wesen,Negativ,Positiv,IAT_red4.bmp,red,starting_melody,NA,c,c,1,1550661,1551051,1551051,470,none,none,none,none,1551541
45,old,ending_first,compatible_first,incompatible_first,ES_yellow,second_IAT_first_block,starting,incompatible,19,none,attribute,task_switch,response_switch,Rote Wesen,Grüne Wesen,Negativ,Positiv,Freude,NA,NA,positive,m,m,1,1552311,1552700,1552701,716,none,none,none,none,1553442
45,old,ending_first,compatible_first,incompatible_first,ES_yellow,second_IAT_first_block,starting,incompatible,20,none,attribute,task_repetition,response_switch,Rote Wesen,Grüne Wesen,Negativ,Positiv,Böse,NA,NA,negative,c,c,1,1554225,1554621,1554622,731,none,none,none,none,1555381
45,old,ending_first,compatible_first,incompatible_first,ES_yellow,second_IAT_first_block,starting,incompatible,21,none,attribute,task_repetition,response_switch,Rote Wesen,Grüne Wesen,Negativ,Positiv,Wundervoll,NA,NA,positive,m,m,1,1556111,1556501,1556502,576,none,none,none,none,1557101
45,old,ending_first,compatible_first,incompatible_first,ES_yellow,second_IAT_first_block,starting,incompatible,22,none,attribute,task_repetition,response_repetition,Rote Wesen,Grüne Wesen,Negativ,Positiv,Freude,NA,NA,positive,m,m,1,1557831,1558221,1558221,2032,none,none,none,none,1560281
45,old,ending_first,compatible_first,incompatible_first,ES_yellow,second_IAT_first_block,starting,incompatible,23,none,attribute,task_repetition,response_switch,Rote Wesen,Grüne Wesen,Negativ,Positiv,Versagen,NA,NA,negative,c,c,1,1561011,1561401,1561401,697,none,none,none,none,1562121
45,old,ending_first,compatible_first,incompatible_first,ES_yellow,second_IAT_first_block,starting,incompatible,24,none,attribute,task_repetition,response_repetition,Rote Wesen,Grüne Wesen,Negativ,Positiv,Bedrohung,NA,NA,negative,c,c,1,1562851,1563241,1563241,1239,none,none,none,none,1564501
45,old,ending_first,compatible_first,incompatible_first,ES_yellow,second_IAT_first_block,starting,incompatible,25,none,target,task_switch,response_switch,Rote Wesen,Grüne Wesen,Negativ,Positiv,IAT_green2.bmp,green,starting_scream,NA,m,m,1,1565200,1565590,1565591,1077,none,none,none,none,1566690
45,old,ending_first,compatible_first,incompatible_first,ES_yellow,second_IAT_first_block,starting,incompatible,26,none,target,task_repetition,response_switch,Rote Wesen,Grüne Wesen,Negativ,Positiv,IAT_red1.bmp,red,starting_melody,NA,c,c,1,1567380,1567770,1567771,490,none,none,none,none,1568280
45,old,ending_first,compatible_first,incompatible_first,ES_yellow,second_IAT_first_block,starting,incompatible,27,none,attribute,task_switch,response_repetition,Rote Wesen,Grüne Wesen,Negativ,Positiv,Schlecht,NA,NA,negative,c,c,1,1569020,1569410,1569410,1590,none,none,none,none,1571021
45,old,ending_first,compatible_first,incompatible_first,ES_yellow,second_IAT_first_block,starting,incompatible,28,none,attribute,task_repetition,response_repetition,Rote Wesen,Grüne Wesen,Negativ,Positiv,Schmerz,NA,NA,negative,c,c,1,1571751,1572141,1572141,537,none,none,none,none,1572701
45,old,ending_first,compatible_first,incompatible_first,ES_yellow,second_IAT_first_block,starting,incompatible,29,none,target,task_switch,response_repetition,Rote Wesen,Grüne Wesen,Negativ,Positiv,IAT_red4.bmp,red,starting_melody,NA,c,c,1,1573411,1573801,1573801,494,none,none,none,none,1574321
45,old,ending_first,compatible_first,incompatible_first,ES_yellow,second_IAT_first_block,starting,incompatible,30,none,attribute,task_switch,response_repetition,Rote Wesen,Grüne Wesen,Negativ,Positiv,Trauer,NA,NA,negative,c,c,1,1575051,1575441,1575441,557,none,none,none,none,1576021
45,old,ending_first,compatible_first,incompatible_first,ES_yellow,second_IAT_first_block,starting,incompatible,31,none,target,task_switch,response_repetition,Rote Wesen,Grüne Wesen,Negativ,Positiv,IAT_red3.bmp,red,starting_melody,NA,c,c,1,1576730,1577120,1577121,387,none,none,none,none,1577531
45,old,ending_first,compatible_first,incompatible_first,ES_yellow,second_IAT_first_block,starting,incompatible,32,none,target,task_repetition,response_switch,Rote Wesen,Grüne Wesen,Negativ,Positiv,IAT_green4.bmp,green,starting_scream,NA,m,m,1,1578230,1578620,1578621,359,none,none,none,none,1579000
45,old,ending_first,compatible_first,incompatible_first,ES_yellow,second_IAT_first_block,starting,incompatible,33,none,target,task_repetition,response_repetition,Rote Wesen,Grüne Wesen,Negativ,Positiv,IAT_green2.bmp,green,starting_scream,NA,m,m,1,1579760,1580150,1580151,477,none,none,none,none,1580650
45,old,ending_first,compatible_first,incompatible_first,ES_yellow,second_IAT_first_block,starting,incompatible,34,none,attribute,task_switch,response_switch,Rote Wesen,Grüne Wesen,Negativ,Positiv,Böse,NA,NA,negative,c,c,1,1581423,1581820,1581820,533,none,none,none,none,1582380
45,old,ending_first,compatible_first,incompatible_first,ES_yellow,second_IAT_first_block,starting,incompatible,35,none,target,task_switch,response_repetition,Rote Wesen,Grüne Wesen,Negativ,Positiv,IAT_red1.bmp,red,starting_melody,NA,c,c,1,1583090,1583480,1583480,558,none,none,none,none,1584060
45,old,ending_first,compatible_first,incompatible_first,ES_yellow,second_IAT_first_block,starting,incompatible,36,none,attribute,task_switch,response_switch,Rote Wesen,Grüne Wesen,Negativ,Positiv,Glücklich,NA,NA,positive,m,m,1,1584790,1585180,1585180,542,none,none,none,none,1585750
45,old,ending_first,compatible_first,incompatible_first,ES_yellow,second_IAT_first_block,starting,incompatible,37,none,attribute,task_repetition,response_repetition,Rote Wesen,Grüne Wesen,Negativ,Positiv,Liebe,NA,NA,positive,m,m,1,1586480,1586870,1586870,584,none,none,none,none,1587480
45,old,ending_first,compatible_first,incompatible_first,ES_yellow,second_IAT_first_block,starting,incompatible,38,none,target,task_switch,response_switch,Rote Wesen,Grüne Wesen,Negativ,Positiv,IAT_red2.bmp,red,starting_melody,NA,c,c,1,1588181,1588570,1588571,470,none,none,none,none,1589061
45,old,ending_first,compatible_first,incompatible_first,ES_yellow,second_IAT_first_block,starting,incompatible,39,none,target,task_repetition,response_switch,Rote Wesen,Grüne Wesen,Negativ,Positiv,IAT_green3.bmp,green,starting_scream,NA,m,m,1,1589770,1590160,1590161,522,none,none,none,none,1590710
45,old,ending_first,compatible_first,incompatible_first,ES_yellow,second_IAT_first_block,starting,incompatible,40,none,attribute,task_switch,response_repetition,Rote Wesen,Grüne Wesen,Negativ,Positiv,Spaß,NA,NA,positive,m,m,1,1591450,1591840,1591841,833,none,none,none,none,1592700
45,old,ending_first,compatible_first,incompatible_first,ES_yellow,second_IAT_first_block,starting,incompatible,41,none,target,task_switch,response_switch,Rote Wesen,Grüne Wesen,Negativ,Positiv,IAT_red4.bmp,red,starting_melody,NA,c,c,1,1593410,1593800,1593800,487,none,none,none,none,1594310
45,old,ending_first,compatible_first,incompatible_first,ES_yellow,second_IAT_first_block,starting,incompatible,42,none,target,task_repetition,response_switch,Rote Wesen,Grüne Wesen,Negativ,Positiv,IAT_green1.bmp,green,starting_scream,NA,m,m,1,1595020,1595410,1595410,948,none,none,none,none,1596380
45,old,ending_first,compatible_first,incompatible_first,ES_yellow,second_IAT_first_block,starting,incompatible,43,none,attribute,task_switch,response_repetition,Rote Wesen,Grüne Wesen,Negativ,Positiv,Frieden,NA,NA,positive,m,m,1,1597120,1597510,1597510,1552,none,none,none,none,1599090
45,old,ending_first,compatible_first,incompatible_first,ES_yellow,second_IAT_first_block,starting,incompatible,44,none,target,task_switch,response_repetition,Rote Wesen,Grüne Wesen,Negativ,Positiv,IAT_green4.bmp,green,starting_scream,NA,m,m,1,1599800,1600190,1600190,488,none,none,none,none,1600700
45,old,ending_first,compatible_first,incompatible_first,ES_yellow,second_IAT_first_block,starting,incompatible,45,none,target,task_repetition,response_switch,Rote Wesen,Grüne Wesen,Negativ,Positiv,IAT_red2.bmp,red,starting_melody,NA,c,c,1,1601409,1601799,1601800,1103,none,none,none,none,1602929
45,old,ending_first,compatible_first,incompatible_first,ES_yellow,second_IAT_first_block,starting,incompatible,46,none,target,task_repetition,response_repetition,Rote Wesen,Grüne Wesen,Negativ,Positiv,IAT_red1.bmp,red,starting_melody,NA,c,c,1,1603639,1604029,1604030,387,none,none,none,none,1604439
45,old,ending_first,compatible_first,incompatible_first,ES_yellow,second_IAT_first_block,starting,incompatible,47,none,target,task_repetition,response_repetition,Rote Wesen,Grüne Wesen,Negativ,Positiv,IAT_red3.bmp,red,starting_melody,NA,c,c,1,1605254,1605650,1605651,403,none,none,none,none,1606080
45,old,ending_first,compatible_first,incompatible_first,ES_yellow,second_IAT_first_block,starting,incompatible,48,none,attribute,task_switch,response_switch,Rote Wesen,Grüne Wesen,Negativ,Positiv,Wundervoll,NA,NA,positive,m,m,1,1606810,1607200,1607200,626,none,none,none,none,1607850
