subject_nr,contrast_group,iat_order,block_order_1,block_order_2,color_counter,which_IAT_which_block,current_contrast,current_comp,trialnr,trial_type,target_type,task_switch, response_switch,left_target,right_target,left_attribute,right_attribute,trial_target,target_color,target_role,attribute_valence,correct_response,response_first_response,correct_first_response,time_assignments_show,time_target_show,time_first_response,response_time_first_response,response_force_correct,correct_force_correct,time_force_correct,response_time_force_correct,time_logger
63,new,melody_first,compatible_first,compatible_first,ES_yellow,second_IAT_first_block,scream,compatible,0,none,attribute,NA,NA,Grüne Wesen,Gelbe Wesen,Negativ,Positiv,Glücklich,NA,NA,positive,m,m,1,1341088,1341478,1341479,591,none,none,none,none,1342098
63,new,melody_first,compatible_first,compatible_first,ES_yellow,second_IAT_first_block,scream,compatible,1,none,target,task_switch,response_repetition,Grüne Wesen,Gelbe Wesen,Negativ,Positiv,IAT_yellow3.bmp,yellow,ending_scream,NA,m,m,1,1342798,1343188,1343189,476,none,none,none,none,1343689
63,new,melody_first,compatible_first,compatible_first,ES_yellow,second_IAT_first_block,scream,compatible,2,none,attribute,task_switch,response_repetition,Grüne Wesen,Gelbe Wesen,Negativ,Positiv,Glücklich,NA,NA,positive,m,m,1,1344409,1344799,1344800,384,none,none,none,none,1345209
63,new,melody_first,compatible_first,compatible_first,ES_yellow,second_IAT_first_block,scream,compatible,3,none,target,task_switch,response_repetition,Grüne Wesen,Gelbe Wesen,Negativ,Positiv,IAT_yellow2.bmp,yellow,ending_scream,NA,m,m,1,1345919,1346309,1346309,475,none,none,none,none,1346809
63,new,melody_first,compatible_first,compatible_first,ES_yellow,second_IAT_first_block,scream,compatible,4,none,target,task_repetition,response_switch,Grüne Wesen,Gelbe Wesen,Negativ,Positiv,IAT_green2.bmp,green,starting_scream,NA,c,c,1,1347509,1347899,1347899,438,none,none,none,none,1348359
63,new,melody_first,compatible_first,compatible_first,ES_yellow,second_IAT_first_block,scream,compatible,5,none,target,task_repetition,response_repetition,Grüne Wesen,Gelbe Wesen,Negativ,Positiv,IAT_green1.bmp,green,starting_scream,NA,c,c,1,1349119,1349509,1349509,349,none,none,none,none,1349879
63,new,melody_first,compatible_first,compatible_first,ES_yellow,second_IAT_first_block,scream,compatible,6,none,attribute,task_switch,response_repetition,Grüne Wesen,Gelbe Wesen,Negativ,Positiv,Böse,NA,NA,negative,c,c,1,1350649,1351039,1351039,374,none,none,none,none,1351439
63,new,melody_first,compatible_first,compatible_first,ES_yellow,second_IAT_first_block,scream,compatible,7,none,attribute,task_repetition,response_repetition,Grüne Wesen,Gelbe Wesen,Negativ,Positiv,Versagen,NA,NA,negative,c,c,1,1352192,1352589,1352589,425,none,none,none,none,1353039
63,new,melody_first,compatible_first,compatible_first,ES_yellow,second_IAT_first_block,scream,compatible,8,none,target,task_switch,response_repetition,Grüne Wesen,Gelbe Wesen,Negativ,Positiv,IAT_green4.bmp,green,starting_scream,NA,c,c,1,1353729,1354119,1354119,538,none,none,none,none,1354679
63,new,melody_first,compatible_first,compatible_first,ES_yellow,second_IAT_first_block,scream,compatible,9,none,target,task_repetition,response_repetition,Grüne Wesen,Gelbe Wesen,Negativ,Positiv,IAT_green3.bmp,green,starting_scream,NA,c,c,1,1355378,1355768,1355769,422,none,none,none,none,1356219
63,new,melody_first,compatible_first,compatible_first,ES_yellow,second_IAT_first_block,scream,compatible,10,none,target,task_repetition,response_switch,Grüne Wesen,Gelbe Wesen,Negativ,Positiv,IAT_yellow4.bmp,yellow,ending_scream,NA,m,m,1,1356918,1357308,1357309,486,none,none,none,none,1357818
63,new,melody_first,compatible_first,compatible_first,ES_yellow,second_IAT_first_block,scream,compatible,11,none,attribute,task_switch,response_repetition,Grüne Wesen,Gelbe Wesen,Negativ,Positiv,Liebe,NA,NA,positive,m,m,1,1358548,1358938,1358939,693,none,none,none,none,1359658
63,new,melody_first,compatible_first,compatible_first,ES_yellow,second_IAT_first_block,scream,compatible,12,none,target,task_switch,response_switch,Grüne Wesen,Gelbe Wesen,Negativ,Positiv,IAT_green3.bmp,green,starting_scream,NA,c,c,1,1360348,1360738,1360738,464,none,none,none,none,1361229
63,new,melody_first,compatible_first,compatible_first,ES_yellow,second_IAT_first_block,scream,compatible,13,none,target,task_repetition,response_repetition,Grüne Wesen,Gelbe Wesen,Negativ,Positiv,IAT_green1.bmp,green,starting_scream,NA,c,c,1,1361929,1362319,1362319,399,none,none,none,none,1362739
63,new,melody_first,compatible_first,compatible_first,ES_yellow,second_IAT_first_block,scream,compatible,14,none,attribute,task_switch,response_repetition,Grüne Wesen,Gelbe Wesen,Negativ,Positiv,Schlecht,NA,NA,negative,c,c,1,1363459,1363849,1363849,561,none,none,none,none,1364429
63,new,melody_first,compatible_first,compatible_first,ES_yellow,second_IAT_first_block,scream,compatible,15,none,attribute,task_repetition,response_switch,Grüne Wesen,Gelbe Wesen,Negativ,Positiv,Freude,NA,NA,positive,m,c,0,1365149,1365539,1365539,315,m,1,1365869,500,1366389
63,new,melody_first,compatible_first,compatible_first,ES_yellow,second_IAT_first_block,scream,compatible,16,none,attribute,task_repetition,response_switch,Grüne Wesen,Gelbe Wesen,Negativ,Positiv,Schmerz,NA,NA,negative,c,c,1,1367109,1367499,1367499,514,none,none,none,none,1368039
63,new,melody_first,compatible_first,compatible_first,ES_yellow,second_IAT_first_block,scream,compatible,17,none,target,task_switch,response_switch,Grüne Wesen,Gelbe Wesen,Negativ,Positiv,IAT_yellow1.bmp,yellow,ending_scream,NA,m,m,1,1368739,1369129,1369129,487,none,none,none,none,1369639
63,new,melody_first,compatible_first,compatible_first,ES_yellow,second_IAT_first_block,scream,compatible,18,none,attribute,task_switch,response_switch,Grüne Wesen,Gelbe Wesen,Negativ,Positiv,Trauer,NA,NA,negative,c,c,1,1370408,1370798,1370799,623,none,none,none,none,1371449
63,new,melody_first,compatible_first,compatible_first,ES_yellow,second_IAT_first_block,scream,compatible,19,none,target,task_switch,response_switch,Grüne Wesen,Gelbe Wesen,Negativ,Positiv,IAT_yellow1.bmp,yellow,ending_scream,NA,m,m,1,1372198,1372588,1372589,611,none,none,none,none,1373218
63,new,melody_first,compatible_first,compatible_first,ES_yellow,second_IAT_first_block,scream,compatible,20,none,attribute,task_switch,response_switch,Grüne Wesen,Gelbe Wesen,Negativ,Positiv,Bedrohung,NA,NA,negative,c,c,1,1374012,1374408,1374409,477,none,none,none,none,1374908
63,new,melody_first,compatible_first,compatible_first,ES_yellow,second_IAT_first_block,scream,compatible,21,none,attribute,task_repetition,response_switch,Grüne Wesen,Gelbe Wesen,Negativ,Positiv,Frieden,NA,NA,positive,m,c,0,1375638,1376028,1376028,378,m,1,1376418,495,1376938
63,new,melody_first,compatible_first,compatible_first,ES_yellow,second_IAT_first_block,scream,compatible,22,none,target,task_switch,response_switch,Grüne Wesen,Gelbe Wesen,Negativ,Positiv,IAT_green4.bmp,green,starting_scream,NA,c,c,1,1377638,1378028,1378028,492,none,none,none,none,1378539
63,new,melody_first,compatible_first,compatible_first,ES_yellow,second_IAT_first_block,scream,compatible,23,none,target,task_repetition,response_switch,Grüne Wesen,Gelbe Wesen,Negativ,Positiv,IAT_yellow3.bmp,yellow,ending_scream,NA,m,m,1,1379239,1379629,1379629,655,none,none,none,none,1380309
63,new,melody_first,compatible_first,compatible_first,ES_yellow,second_IAT_first_block,scream,compatible,24,none,target,task_repetition,response_repetition,Grüne Wesen,Gelbe Wesen,Negativ,Positiv,IAT_yellow4.bmp,yellow,ending_scream,NA,m,m,1,1380999,1381389,1381389,486,none,none,none,none,1381899
63,new,melody_first,compatible_first,compatible_first,ES_yellow,second_IAT_first_block,scream,compatible,25,none,attribute,task_switch,response_switch,Grüne Wesen,Gelbe Wesen,Negativ,Positiv,Schlecht,NA,NA,negative,c,c,1,1382629,1383019,1383019,522,none,none,none,none,1383569
63,new,melody_first,compatible_first,compatible_first,ES_yellow,second_IAT_first_block,scream,compatible,26,none,target,task_switch,response_repetition,Grüne Wesen,Gelbe Wesen,Negativ,Positiv,IAT_green2.bmp,green,starting_scream,NA,c,c,1,1384269,1384659,1384659,469,none,none,none,none,1385149
63,new,melody_first,compatible_first,compatible_first,ES_yellow,second_IAT_first_block,scream,compatible,27,none,attribute,task_switch,response_switch,Grüne Wesen,Gelbe Wesen,Negativ,Positiv,Wundervoll,NA,NA,positive,m,m,1,1385869,1386258,1386259,506,none,none,none,none,1386788
63,new,melody_first,compatible_first,compatible_first,ES_yellow,second_IAT_first_block,scream,compatible,28,none,attribute,task_repetition,response_repetition,Grüne Wesen,Gelbe Wesen,Negativ,Positiv,Spaß,NA,NA,positive,m,m,1,1387528,1387918,1387919,900,none,none,none,none,1388838
63,new,melody_first,compatible_first,compatible_first,ES_yellow,second_IAT_first_block,scream,compatible,29,none,attribute,task_repetition,response_repetition,Grüne Wesen,Gelbe Wesen,Negativ,Positiv,Frieden,NA,NA,positive,m,m,1,1389558,1389948,1389948,516,none,none,none,none,1390488
63,new,melody_first,compatible_first,compatible_first,ES_yellow,second_IAT_first_block,scream,compatible,30,none,attribute,task_repetition,response_switch,Grüne Wesen,Gelbe Wesen,Negativ,Positiv,Böse,NA,NA,negative,c,c,1,1391198,1391588,1391588,516,none,none,none,none,1392128
63,new,melody_first,compatible_first,compatible_first,ES_yellow,second_IAT_first_block,scream,compatible,31,none,attribute,task_repetition,response_switch,Grüne Wesen,Gelbe Wesen,Negativ,Positiv,Spaß,NA,NA,positive,m,m,1,1392858,1393248,1393248,467,none,none,none,none,1393738
63,new,melody_first,compatible_first,compatible_first,ES_yellow,second_IAT_first_block,scream,compatible,32,none,target,task_switch,response_switch,Grüne Wesen,Gelbe Wesen,Negativ,Positiv,IAT_green1.bmp,green,starting_scream,NA,c,c,1,1394438,1394828,1394828,483,none,none,none,none,1395338
63,new,melody_first,compatible_first,compatible_first,ES_yellow,second_IAT_first_block,scream,compatible,33,none,attribute,task_switch,response_repetition,Grüne Wesen,Gelbe Wesen,Negativ,Positiv,Schmerz,NA,NA,negative,c,c,1,1396079,1396469,1396469,568,none,none,none,none,1397059
63,new,melody_first,compatible_first,compatible_first,ES_yellow,second_IAT_first_block,scream,compatible,34,none,attribute,task_repetition,response_repetition,Grüne Wesen,Gelbe Wesen,Negativ,Positiv,Versagen,NA,NA,negative,c,c,1,1397860,1398249,1398249,536,none,none,none,none,1398809
63,new,melody_first,compatible_first,compatible_first,ES_yellow,second_IAT_first_block,scream,compatible,35,none,attribute,task_repetition,response_repetition,Grüne Wesen,Gelbe Wesen,Negativ,Positiv,Bedrohung,NA,NA,negative,c,c,1,1399539,1399928,1399929,360,none,none,none,none,1400309
63,new,melody_first,compatible_first,compatible_first,ES_yellow,second_IAT_first_block,scream,compatible,36,none,target,task_switch,response_switch,Grüne Wesen,Gelbe Wesen,Negativ,Positiv,IAT_yellow2.bmp,yellow,ending_scream,NA,m,m,1,1401009,1401398,1401399,516,none,none,none,none,1401938
63,new,melody_first,compatible_first,compatible_first,ES_yellow,second_IAT_first_block,scream,compatible,37,none,target,task_repetition,response_repetition,Grüne Wesen,Gelbe Wesen,Negativ,Positiv,IAT_yellow2.bmp,yellow,ending_scream,NA,m,m,1,1402628,1403018,1403019,504,none,none,none,none,1403548
63,new,melody_first,compatible_first,compatible_first,ES_yellow,second_IAT_first_block,scream,compatible,38,none,target,task_repetition,response_switch,Grüne Wesen,Gelbe Wesen,Negativ,Positiv,IAT_green2.bmp,green,starting_scream,NA,c,c,1,1404248,1404638,1404639,452,none,none,none,none,1405118
63,new,melody_first,compatible_first,compatible_first,ES_yellow,second_IAT_first_block,scream,compatible,39,none,target,task_repetition,response_switch,Grüne Wesen,Gelbe Wesen,Negativ,Positiv,IAT_yellow4.bmp,yellow,ending_scream,NA,m,m,1,1405818,1406208,1406208,390,none,none,none,none,1406618
63,new,melody_first,compatible_first,compatible_first,ES_yellow,second_IAT_first_block,scream,compatible,40,none,target,task_repetition,response_repetition,Grüne Wesen,Gelbe Wesen,Negativ,Positiv,IAT_yellow3.bmp,yellow,ending_scream,NA,m,m,1,1407318,1407708,1407708,420,none,none,none,none,1408148
63,new,melody_first,compatible_first,compatible_first,ES_yellow,second_IAT_first_block,scream,compatible,41,none,target,task_repetition,response_switch,Grüne Wesen,Gelbe Wesen,Negativ,Positiv,IAT_green3.bmp,green,starting_scream,NA,c,c,1,1408838,1409228,1409228,355,none,none,none,none,1409608
63,new,melody_first,compatible_first,compatible_first,ES_yellow,second_IAT_first_block,scream,compatible,42,none,attribute,task_switch,response_switch,Grüne Wesen,Gelbe Wesen,Negativ,Positiv,Freude,NA,NA,positive,m,m,1,1410338,1410728,1410728,490,none,none,none,none,1411238
63,new,melody_first,compatible_first,compatible_first,ES_yellow,second_IAT_first_block,scream,compatible,43,none,target,task_switch,response_repetition,Grüne Wesen,Gelbe Wesen,Negativ,Positiv,IAT_yellow1.bmp,yellow,ending_scream,NA,m,m,1,1411928,1412318,1412318,421,none,none,none,none,1412758
63,new,melody_first,compatible_first,compatible_first,ES_yellow,second_IAT_first_block,scream,compatible,44,none,attribute,task_switch,response_repetition,Grüne Wesen,Gelbe Wesen,Negativ,Positiv,Liebe,NA,NA,positive,m,m,1,1413479,1413869,1413869,390,none,none,none,none,1414279
63,new,melody_first,compatible_first,compatible_first,ES_yellow,second_IAT_first_block,scream,compatible,45,none,attribute,task_repetition,response_repetition,Grüne Wesen,Gelbe Wesen,Negativ,Positiv,Glücklich,NA,NA,positive,m,m,1,1415018,1415408,1415409,427,none,none,none,none,1415859
63,new,melody_first,compatible_first,compatible_first,ES_yellow,second_IAT_first_block,scream,compatible,46,none,attribute,task_repetition,response_switch,Grüne Wesen,Gelbe Wesen,Negativ,Positiv,Trauer,NA,NA,negative,c,c,1,1416588,1416978,1416979,370,none,none,none,none,1417368
63,new,melody_first,compatible_first,compatible_first,ES_yellow,second_IAT_first_block,scream,compatible,47,none,target,task_switch,response_repetition,Grüne Wesen,Gelbe Wesen,Negativ,Positiv,IAT_green4.bmp,green,starting_scream,NA,c,c,1,1418118,1418508,1418509,581,none,none,none,none,1419118
63,new,melody_first,compatible_first,compatible_first,ES_yellow,second_IAT_first_block,scream,compatible,48,none,attribute,task_switch,response_switch,Grüne Wesen,Gelbe Wesen,Negativ,Positiv,Wundervoll,NA,NA,positive,m,m,1,1419912,1420308,1420308,666,none,none,none,none,1420998
