subject_nr,contrast_group,iat_order,block_order_1,block_order_2,color_counter,which_IAT_which_block,current_contrast,current_comp,trialnr,trial_type,target_type,task_switch, response_switch,left_target,right_target,left_attribute,right_attribute,trial_target,target_color,target_role,attribute_valence,correct_response,response_first_response,correct_first_response,time_assignments_show,time_target_show,time_first_response,response_time_first_response,response_force_correct,correct_force_correct,time_force_correct,response_time_force_correct,time_logger
50,new,melody_first,incompatible_first,incompatible_first,ES_purple,first_IAT_first_block,melody,incompatible,0,NA,target_practice,target_practice,target_practice,Grüne Wesen,Gelbe Wesen,target_practice,target_practice,IAT_green4.bmp,green,starting_melody,target_practice,c,c,1,858742,859132,859132,1598,none,none,none,none,860752
50,new,melody_first,incompatible_first,incompatible_first,ES_purple,first_IAT_first_block,melody,incompatible,1,repetition,target_practice,target_practice,target_practice,Grüne Wesen,Gelbe Wesen,target_practice,target_practice,IAT_green2.bmp,green,starting_melody,target_practice,c,c,1,861432,861822,861822,674,none,none,none,none,862522
50,new,melody_first,incompatible_first,incompatible_first,ES_purple,first_IAT_first_block,melody,incompatible,2,repetition,target_practice,target_practice,target_practice,Grüne Wesen,Gelbe Wesen,target_practice,target_practice,IAT_green3.bmp,green,starting_melody,target_practice,c,c,1,863151,863541,863542,429,none,none,none,none,863992
50,new,melody_first,incompatible_first,incompatible_first,ES_purple,first_IAT_first_block,melody,incompatible,3,change,target_practice,target_practice,target_practice,Grüne Wesen,Gelbe Wesen,target_practice,target_practice,IAT_yellow2.bmp,yellow,ending_melody,target_practice,m,m,1,864611,865001,865002,338,none,none,none,none,865361
50,new,melody_first,incompatible_first,incompatible_first,ES_purple,first_IAT_first_block,melody,incompatible,4,repetition,target_practice,target_practice,target_practice,Grüne Wesen,Gelbe Wesen,target_practice,target_practice,IAT_yellow3.bmp,yellow,ending_melody,target_practice,m,m,1,866111,866501,866502,357,none,none,none,none,866881
50,new,melody_first,incompatible_first,incompatible_first,ES_purple,first_IAT_first_block,melody,incompatible,5,repetition,target_practice,target_practice,target_practice,Grüne Wesen,Gelbe Wesen,target_practice,target_practice,IAT_yellow2.bmp,yellow,ending_melody,target_practice,m,m,1,867491,867881,867881,318,none,none,none,none,868221
50,new,melody_first,incompatible_first,incompatible_first,ES_purple,first_IAT_first_block,melody,incompatible,6,change,target_practice,target_practice,target_practice,Grüne Wesen,Gelbe Wesen,target_practice,target_practice,IAT_green4.bmp,green,starting_melody,target_practice,c,c,1,868831,869221,869221,362,none,none,none,none,869611
50,new,melody_first,incompatible_first,incompatible_first,ES_purple,first_IAT_first_block,melody,incompatible,7,change,target_practice,target_practice,target_practice,Grüne Wesen,Gelbe Wesen,target_practice,target_practice,IAT_yellow1.bmp,yellow,ending_melody,target_practice,m,m,1,870221,870611,870611,357,none,none,none,none,870991
50,new,melody_first,incompatible_first,incompatible_first,ES_purple,first_IAT_first_block,melody,incompatible,8,change,target_practice,target_practice,target_practice,Grüne Wesen,Gelbe Wesen,target_practice,target_practice,IAT_green1.bmp,green,starting_melody,target_practice,c,c,1,871602,871992,871992,362,none,none,none,none,872382
50,new,melody_first,incompatible_first,incompatible_first,ES_purple,first_IAT_first_block,melody,incompatible,9,change,target_practice,target_practice,target_practice,Grüne Wesen,Gelbe Wesen,target_practice,target_practice,IAT_yellow4.bmp,yellow,ending_melody,target_practice,m,m,1,873002,873392,873392,275,none,none,none,none,873692
50,new,melody_first,incompatible_first,incompatible_first,ES_purple,first_IAT_first_block,melody,incompatible,10,repetition,target_practice,target_practice,target_practice,Grüne Wesen,Gelbe Wesen,target_practice,target_practice,IAT_yellow1.bmp,yellow,ending_melody,target_practice,m,m,1,874292,874682,874682,332,none,none,none,none,875042
50,new,melody_first,incompatible_first,incompatible_first,ES_purple,first_IAT_first_block,melody,incompatible,11,change,target_practice,target_practice,target_practice,Grüne Wesen,Gelbe Wesen,target_practice,target_practice,IAT_green2.bmp,green,starting_melody,target_practice,c,c,1,875684,876071,876072,405,none,none,none,none,876502
50,new,melody_first,incompatible_first,incompatible_first,ES_purple,first_IAT_first_block,melody,incompatible,12,change,target_practice,target_practice,target_practice,Grüne Wesen,Gelbe Wesen,target_practice,target_practice,IAT_yellow3.bmp,yellow,ending_melody,target_practice,m,m,1,877071,877461,877462,370,none,none,none,none,877851
50,new,melody_first,incompatible_first,incompatible_first,ES_purple,first_IAT_first_block,melody,incompatible,13,change,target_practice,target_practice,target_practice,Grüne Wesen,Gelbe Wesen,target_practice,target_practice,IAT_green3.bmp,green,starting_melody,target_practice,c,c,1,878421,878811,878812,381,none,none,none,none,879211
50,new,melody_first,incompatible_first,incompatible_first,ES_purple,first_IAT_first_block,melody,incompatible,14,repetition,target_practice,target_practice,target_practice,Grüne Wesen,Gelbe Wesen,target_practice,target_practice,IAT_green4.bmp,green,starting_melody,target_practice,c,c,1,879791,880181,880181,231,none,none,none,none,880431
50,new,melody_first,incompatible_first,incompatible_first,ES_purple,first_IAT_first_block,melody,incompatible,15,repetition,target_practice,target_practice,target_practice,Grüne Wesen,Gelbe Wesen,target_practice,target_practice,IAT_green1.bmp,green,starting_melody,target_practice,c,c,1,881001,881391,881391,240,none,none,none,none,881651
50,new,melody_first,incompatible_first,incompatible_first,ES_purple,first_IAT_first_block,melody,incompatible,16,change,target_practice,target_practice,target_practice,Grüne Wesen,Gelbe Wesen,target_practice,target_practice,IAT_yellow4.bmp,yellow,ending_melody,target_practice,m,m,1,882211,882601,882601,245,none,none,none,none,882871
50,new,melody_first,incompatible_first,incompatible_first,ES_purple,first_IAT_first_block,melody,incompatible,17,repetition,target_practice,target_practice,target_practice,Grüne Wesen,Gelbe Wesen,target_practice,target_practice,IAT_yellow3.bmp,yellow,ending_melody,target_practice,m,m,1,883431,883821,883821,277,none,none,none,none,884121
50,new,melody_first,incompatible_first,incompatible_first,ES_purple,first_IAT_first_block,melody,incompatible,18,repetition,target_practice,target_practice,target_practice,Grüne Wesen,Gelbe Wesen,target_practice,target_practice,IAT_yellow2.bmp,yellow,ending_melody,target_practice,m,m,1,884681,885071,885071,347,none,none,none,none,885441
50,new,melody_first,incompatible_first,incompatible_first,ES_purple,first_IAT_first_block,melody,incompatible,19,change,target_practice,target_practice,target_practice,Grüne Wesen,Gelbe Wesen,target_practice,target_practice,IAT_green3.bmp,green,starting_melody,target_practice,c,c,1,886011,886401,886401,358,none,none,none,none,886781
50,new,melody_first,incompatible_first,incompatible_first,ES_purple,first_IAT_first_block,melody,incompatible,20,repetition,target_practice,target_practice,target_practice,Grüne Wesen,Gelbe Wesen,target_practice,target_practice,IAT_green1.bmp,green,starting_melody,target_practice,c,c,1,887341,887731,887731,325,none,none,none,none,888081
