subject_nr,contrast_group,iat_order,block_order_1,block_order_2,color_counter,which_IAT_which_block,current_contrast,current_comp,trialnr,trial_type,target_type,task_switch, response_switch,left_target,right_target,left_attribute,right_attribute,trial_target,target_color,target_role,attribute_valence,correct_response,response_first_response,correct_first_response,time_assignments_show,time_target_show,time_first_response,response_time_first_response,response_force_correct,correct_force_correct,time_force_correct,response_time_force_correct,time_logger
19,old,starting_first,incompatible_first,incompatible_first,ES_green,second_IAT_first_block,ending,incompatible,0,none,attribute,NA,NA,Grüne Wesen,Rote Wesen,Negativ,Positiv,Böse,NA,NA,negative,c,c,1,1266326,1266716,1266717,692,none,none,none,none,1267436
19,old,starting_first,incompatible_first,incompatible_first,ES_green,second_IAT_first_block,ending,incompatible,1,none,attribute,task_repetition,response_repetition,Grüne Wesen,Rote Wesen,Negativ,Positiv,Trauer,NA,NA,negative,c,c,1,1268156,1268546,1268546,381,none,none,none,none,1268946
19,old,starting_first,incompatible_first,incompatible_first,ES_green,second_IAT_first_block,ending,incompatible,2,none,target,task_switch,response_switch,Grüne Wesen,Rote Wesen,Negativ,Positiv,IAT_red4.bmp,red,ending_melody,NA,m,m,1,1269636,1270026,1270026,355,none,none,none,none,1270406
19,old,starting_first,incompatible_first,incompatible_first,ES_green,second_IAT_first_block,ending,incompatible,3,none,target,task_repetition,response_repetition,Grüne Wesen,Rote Wesen,Negativ,Positiv,IAT_red1.bmp,red,ending_melody,NA,m,m,1,1271096,1271486,1271486,308,none,none,none,none,1271816
19,old,starting_first,incompatible_first,incompatible_first,ES_green,second_IAT_first_block,ending,incompatible,4,none,target,task_repetition,response_switch,Grüne Wesen,Rote Wesen,Negativ,Positiv,IAT_green4.bmp,green,ending_scream,NA,c,c,1,1272506,1272896,1272896,316,none,none,none,none,1273236
19,old,starting_first,incompatible_first,incompatible_first,ES_green,second_IAT_first_block,ending,incompatible,5,none,attribute,task_switch,response_repetition,Grüne Wesen,Rote Wesen,Negativ,Positiv,Schmerz,NA,NA,negative,c,c,1,1274017,1274407,1274407,397,none,none,none,none,1274827
19,old,starting_first,incompatible_first,incompatible_first,ES_green,second_IAT_first_block,ending,incompatible,6,none,target,task_switch,response_repetition,Grüne Wesen,Rote Wesen,Negativ,Positiv,IAT_green3.bmp,green,ending_scream,NA,c,c,1,1275600,1275997,1275997,405,none,none,none,none,1276427
19,old,starting_first,incompatible_first,incompatible_first,ES_green,second_IAT_first_block,ending,incompatible,7,none,target,task_repetition,response_switch,Grüne Wesen,Rote Wesen,Negativ,Positiv,IAT_red3.bmp,red,ending_melody,NA,m,m,1,1277137,1277527,1277527,377,none,none,none,none,1277927
19,old,starting_first,incompatible_first,incompatible_first,ES_green,second_IAT_first_block,ending,incompatible,8,none,attribute,task_switch,response_switch,Grüne Wesen,Rote Wesen,Negativ,Positiv,Schlecht,NA,NA,negative,c,c,1,1278656,1279046,1279047,488,none,none,none,none,1279556
19,old,starting_first,incompatible_first,incompatible_first,ES_green,second_IAT_first_block,ending,incompatible,9,none,attribute,task_repetition,response_repetition,Grüne Wesen,Rote Wesen,Negativ,Positiv,Böse,NA,NA,negative,c,c,1,1280286,1280676,1280677,302,none,none,none,none,1281006
19,old,starting_first,incompatible_first,incompatible_first,ES_green,second_IAT_first_block,ending,incompatible,10,none,target,task_switch,response_repetition,Grüne Wesen,Rote Wesen,Negativ,Positiv,IAT_green2.bmp,green,ending_scream,NA,c,m,0,1281706,1282096,1282096,301,c,1,1282406,317,1282746
19,old,starting_first,incompatible_first,incompatible_first,ES_green,second_IAT_first_block,ending,incompatible,11,none,attribute,task_switch,response_switch,Grüne Wesen,Rote Wesen,Negativ,Positiv,Wundervoll,NA,NA,positive,m,m,1,1283466,1283856,1283856,576,none,none,none,none,1284456
19,old,starting_first,incompatible_first,incompatible_first,ES_green,second_IAT_first_block,ending,incompatible,12,none,target,task_switch,response_switch,Grüne Wesen,Rote Wesen,Negativ,Positiv,IAT_green1.bmp,green,ending_scream,NA,c,c,1,1285146,1285536,1285536,380,none,none,none,none,1285936
19,old,starting_first,incompatible_first,incompatible_first,ES_green,second_IAT_first_block,ending,incompatible,13,none,attribute,task_switch,response_switch,Grüne Wesen,Rote Wesen,Negativ,Positiv,Liebe,NA,NA,positive,m,m,1,1286656,1287046,1287046,468,none,none,none,none,1287536
19,old,starting_first,incompatible_first,incompatible_first,ES_green,second_IAT_first_block,ending,incompatible,14,none,attribute,task_repetition,response_switch,Grüne Wesen,Rote Wesen,Negativ,Positiv,Versagen,NA,NA,negative,c,c,1,1288266,1288656,1288656,506,none,none,none,none,1289186
19,old,starting_first,incompatible_first,incompatible_first,ES_green,second_IAT_first_block,ending,incompatible,15,none,target,task_switch,response_repetition,Grüne Wesen,Rote Wesen,Negativ,Positiv,IAT_green3.bmp,green,ending_scream,NA,c,c,1,1289886,1290276,1290276,357,none,none,none,none,1290656
19,old,starting_first,incompatible_first,incompatible_first,ES_green,second_IAT_first_block,ending,incompatible,16,none,attribute,task_switch,response_repetition,Grüne Wesen,Rote Wesen,Negativ,Positiv,Bedrohung,NA,NA,negative,c,c,1,1291387,1291777,1291777,564,none,none,none,none,1292367
19,old,starting_first,incompatible_first,incompatible_first,ES_green,second_IAT_first_block,ending,incompatible,17,none,target,task_switch,response_switch,Grüne Wesen,Rote Wesen,Negativ,Positiv,IAT_red2.bmp,red,ending_melody,NA,m,m,1,1293087,1293476,1293477,348,none,none,none,none,1293846
19,old,starting_first,incompatible_first,incompatible_first,ES_green,second_IAT_first_block,ending,incompatible,18,none,target,task_repetition,response_repetition,Grüne Wesen,Rote Wesen,Negativ,Positiv,IAT_red2.bmp,red,ending_melody,NA,m,m,1,1294606,1294996,1294997,273,none,none,none,none,1295296
19,old,starting_first,incompatible_first,incompatible_first,ES_green,second_IAT_first_block,ending,incompatible,19,none,attribute,task_switch,response_repetition,Grüne Wesen,Rote Wesen,Negativ,Positiv,Freude,NA,NA,positive,m,c,0,1296076,1296466,1296467,489,m,1,1296966,294,1297286
19,old,starting_first,incompatible_first,incompatible_first,ES_green,second_IAT_first_block,ending,incompatible,20,none,target,task_switch,response_switch,Grüne Wesen,Rote Wesen,Negativ,Positiv,IAT_green1.bmp,green,ending_scream,NA,c,c,1,1298049,1298446,1298446,372,none,none,none,none,1298846
19,old,starting_first,incompatible_first,incompatible_first,ES_green,second_IAT_first_block,ending,incompatible,21,none,target,task_repetition,response_repetition,Grüne Wesen,Rote Wesen,Negativ,Positiv,IAT_green2.bmp,green,ending_scream,NA,c,c,1,1299537,1299926,1299926,301,none,none,none,none,1300246
19,old,starting_first,incompatible_first,incompatible_first,ES_green,second_IAT_first_block,ending,incompatible,22,none,attribute,task_switch,response_switch,Grüne Wesen,Rote Wesen,Negativ,Positiv,Frieden,NA,NA,positive,m,m,1,1300966,1301356,1301356,432,none,none,none,none,1301816
19,old,starting_first,incompatible_first,incompatible_first,ES_green,second_IAT_first_block,ending,incompatible,23,none,target,task_switch,response_repetition,Grüne Wesen,Rote Wesen,Negativ,Positiv,IAT_red4.bmp,red,ending_melody,NA,m,m,1,1302516,1302906,1302906,441,none,none,none,none,1303366
19,old,starting_first,incompatible_first,incompatible_first,ES_green,second_IAT_first_block,ending,incompatible,24,none,target,task_repetition,response_switch,Grüne Wesen,Rote Wesen,Negativ,Positiv,IAT_green4.bmp,green,ending_scream,NA,c,c,1,1304056,1304446,1304446,369,none,none,none,none,1304836
19,old,starting_first,incompatible_first,incompatible_first,ES_green,second_IAT_first_block,ending,incompatible,25,none,target,task_repetition,response_repetition,Grüne Wesen,Rote Wesen,Negativ,Positiv,IAT_green3.bmp,green,ending_scream,NA,c,c,1,1305536,1305926,1305926,315,none,none,none,none,1306266
19,old,starting_first,incompatible_first,incompatible_first,ES_green,second_IAT_first_block,ending,incompatible,26,none,target,task_repetition,response_repetition,Grüne Wesen,Rote Wesen,Negativ,Positiv,IAT_green4.bmp,green,ending_scream,NA,c,c,1,1306965,1307355,1307356,214,none,none,none,none,1307596
19,old,starting_first,incompatible_first,incompatible_first,ES_green,second_IAT_first_block,ending,incompatible,27,none,target,task_repetition,response_switch,Grüne Wesen,Rote Wesen,Negativ,Positiv,IAT_red1.bmp,red,ending_melody,NA,m,m,1,1308297,1308686,1308687,313,none,none,none,none,1309026
19,old,starting_first,incompatible_first,incompatible_first,ES_green,second_IAT_first_block,ending,incompatible,28,none,target,task_repetition,response_repetition,Grüne Wesen,Rote Wesen,Negativ,Positiv,IAT_red3.bmp,red,ending_melody,NA,m,m,1,1309726,1310116,1310117,328,none,none,none,none,1310466
19,old,starting_first,incompatible_first,incompatible_first,ES_green,second_IAT_first_block,ending,incompatible,29,none,attribute,task_switch,response_repetition,Grüne Wesen,Rote Wesen,Negativ,Positiv,Glücklich,NA,NA,positive,m,m,1,1311196,1311586,1311587,391,none,none,none,none,1312006
19,old,starting_first,incompatible_first,incompatible_first,ES_green,second_IAT_first_block,ending,incompatible,30,none,attribute,task_repetition,response_repetition,Grüne Wesen,Rote Wesen,Negativ,Positiv,Spaß,NA,NA,positive,m,m,1,1312736,1313126,1313126,328,none,none,none,none,1313476
19,old,starting_first,incompatible_first,incompatible_first,ES_green,second_IAT_first_block,ending,incompatible,31,none,target,task_switch,response_switch,Grüne Wesen,Rote Wesen,Negativ,Positiv,IAT_green1.bmp,green,ending_scream,NA,c,c,1,1314196,1314586,1314586,466,none,none,none,none,1315076
19,old,starting_first,incompatible_first,incompatible_first,ES_green,second_IAT_first_block,ending,incompatible,32,none,target,task_repetition,response_switch,Grüne Wesen,Rote Wesen,Negativ,Positiv,IAT_red1.bmp,red,ending_melody,NA,m,m,1,1315776,1316166,1316166,435,none,none,none,none,1316626
19,old,starting_first,incompatible_first,incompatible_first,ES_green,second_IAT_first_block,ending,incompatible,33,none,attribute,task_switch,response_repetition,Grüne Wesen,Rote Wesen,Negativ,Positiv,Glücklich,NA,NA,positive,m,m,1,1317396,1317786,1317786,463,none,none,none,none,1318276
19,old,starting_first,incompatible_first,incompatible_first,ES_green,second_IAT_first_block,ending,incompatible,34,none,attribute,task_repetition,response_switch,Grüne Wesen,Rote Wesen,Negativ,Positiv,Böse,NA,NA,negative,c,m,0,1319057,1319446,1319446,305,c,1,1319766,313,1320106
19,old,starting_first,incompatible_first,incompatible_first,ES_green,second_IAT_first_block,ending,incompatible,35,none,attribute,task_repetition,response_switch,Grüne Wesen,Rote Wesen,Negativ,Positiv,Wundervoll,NA,NA,positive,m,m,1,1320846,1321236,1321236,386,none,none,none,none,1321646
19,old,starting_first,incompatible_first,incompatible_first,ES_green,second_IAT_first_block,ending,incompatible,36,none,attribute,task_repetition,response_switch,Grüne Wesen,Rote Wesen,Negativ,Positiv,Trauer,NA,NA,negative,c,c,1,1322366,1322755,1322756,331,none,none,none,none,1323116
19,old,starting_first,incompatible_first,incompatible_first,ES_green,second_IAT_first_block,ending,incompatible,37,none,attribute,task_repetition,response_switch,Grüne Wesen,Rote Wesen,Negativ,Positiv,Spaß,NA,NA,positive,m,c,0,1323845,1324235,1324236,390,m,1,1324659,249,1324935
19,old,starting_first,incompatible_first,incompatible_first,ES_green,second_IAT_first_block,ending,incompatible,38,none,attribute,task_repetition,response_repetition,Grüne Wesen,Rote Wesen,Negativ,Positiv,Freude,NA,NA,positive,m,m,1,1325655,1326046,1326047,456,none,none,none,none,1326526
19,old,starting_first,incompatible_first,incompatible_first,ES_green,second_IAT_first_block,ending,incompatible,39,none,target,task_switch,response_repetition,Grüne Wesen,Rote Wesen,Negativ,Positiv,IAT_red4.bmp,red,ending_melody,NA,m,m,1,1327236,1327626,1327626,424,none,none,none,none,1328076
19,old,starting_first,incompatible_first,incompatible_first,ES_green,second_IAT_first_block,ending,incompatible,40,none,target,task_repetition,response_switch,Grüne Wesen,Rote Wesen,Negativ,Positiv,IAT_green2.bmp,green,ending_scream,NA,c,c,1,1328776,1329166,1329166,239,none,none,none,none,1329426
19,old,starting_first,incompatible_first,incompatible_first,ES_green,second_IAT_first_block,ending,incompatible,41,none,attribute,task_switch,response_repetition,Grüne Wesen,Rote Wesen,Negativ,Positiv,Versagen,NA,NA,negative,c,m,0,1330156,1330546,1330546,439,c,1,1330996,312,1331336
19,old,starting_first,incompatible_first,incompatible_first,ES_green,second_IAT_first_block,ending,incompatible,42,none,attribute,task_repetition,response_repetition,Grüne Wesen,Rote Wesen,Negativ,Positiv,Schmerz,NA,NA,negative,c,c,1,1332056,1332446,1332446,451,none,none,none,none,1332916
19,old,starting_first,incompatible_first,incompatible_first,ES_green,second_IAT_first_block,ending,incompatible,43,none,target,task_switch,response_switch,Grüne Wesen,Rote Wesen,Negativ,Positiv,IAT_red2.bmp,red,ending_melody,NA,m,m,1,1333616,1334006,1334006,355,none,none,none,none,1334386
19,old,starting_first,incompatible_first,incompatible_first,ES_green,second_IAT_first_block,ending,incompatible,44,none,attribute,task_switch,response_switch,Grüne Wesen,Rote Wesen,Negativ,Positiv,Bedrohung,NA,NA,negative,c,c,1,1335126,1335516,1335516,505,none,none,none,none,1336046
19,old,starting_first,incompatible_first,incompatible_first,ES_green,second_IAT_first_block,ending,incompatible,45,none,attribute,task_repetition,response_switch,Grüne Wesen,Rote Wesen,Negativ,Positiv,Frieden,NA,NA,positive,m,m,1,1336765,1337155,1337156,408,none,none,none,none,1337586
19,old,starting_first,incompatible_first,incompatible_first,ES_green,second_IAT_first_block,ending,incompatible,46,none,attribute,task_repetition,response_repetition,Grüne Wesen,Rote Wesen,Negativ,Positiv,Liebe,NA,NA,positive,m,m,1,1338315,1338705,1338706,376,none,none,none,none,1339105
19,old,starting_first,incompatible_first,incompatible_first,ES_green,second_IAT_first_block,ending,incompatible,47,none,target,task_switch,response_repetition,Grüne Wesen,Rote Wesen,Negativ,Positiv,IAT_red3.bmp,red,ending_melody,NA,m,m,1,1339845,1340235,1340236,419,none,none,none,none,1340675
19,old,starting_first,incompatible_first,incompatible_first,ES_green,second_IAT_first_block,ending,incompatible,48,none,attribute,task_switch,response_switch,Grüne Wesen,Rote Wesen,Negativ,Positiv,Schlecht,NA,NA,negative,c,c,1,1341459,1341855,1341855,329,none,none,none,none,1342205
