subject_nr,contrast_group,iat_order,block_order_1,block_order_2,color_counter,which_IAT_which_block,current_contrast,current_comp,trialnr,trial_type,target_type,task_switch, response_switch,left_target,right_target,left_attribute,right_attribute,trial_target,target_color,target_role,attribute_valence,correct_response,response_first_response,correct_first_response,time_assignments_show,time_target_show,time_first_response,response_time_first_response,response_force_correct,correct_force_correct,time_force_correct,response_time_force_correct,time_logger
16,new,melody_first,compatible_first,incompatible_first,ES_yellow,second_IAT_first_block,scream,incompatible,0,NA,target_practice,target_practice,target_practice,Gelbe Wesen,Grüne Wesen,target_practice,target_practice,IAT_yellow2.bmp,yellow,ending_scream,target_practice,c,c,1,1249776,1250166,1250166,538,none,none,none,none,1250726
16,new,melody_first,compatible_first,incompatible_first,ES_yellow,second_IAT_first_block,scream,incompatible,1,repetition,target_practice,target_practice,target_practice,Gelbe Wesen,Grüne Wesen,target_practice,target_practice,IAT_yellow3.bmp,yellow,ending_scream,target_practice,c,c,1,1251296,1251686,1251686,415,none,none,none,none,1252126
16,new,melody_first,compatible_first,incompatible_first,ES_yellow,second_IAT_first_block,scream,incompatible,2,repetition,target_practice,target_practice,target_practice,Gelbe Wesen,Grüne Wesen,target_practice,target_practice,IAT_yellow3.bmp,yellow,ending_scream,target_practice,c,c,1,1252686,1253076,1253076,345,none,none,none,none,1253446
16,new,melody_first,compatible_first,incompatible_first,ES_yellow,second_IAT_first_block,scream,incompatible,3,repetition,target_practice,target_practice,target_practice,Gelbe Wesen,Grüne Wesen,target_practice,target_practice,IAT_yellow2.bmp,yellow,ending_scream,target_practice,c,c,1,1254006,1254396,1254396,353,none,none,none,none,1254776
16,new,melody_first,compatible_first,incompatible_first,ES_yellow,second_IAT_first_block,scream,incompatible,4,change,target_practice,target_practice,target_practice,Gelbe Wesen,Grüne Wesen,target_practice,target_practice,IAT_green3.bmp,green,starting_scream,target_practice,m,m,1,1255336,1255726,1255726,234,none,none,none,none,1255987
16,new,melody_first,compatible_first,incompatible_first,ES_yellow,second_IAT_first_block,scream,incompatible,5,repetition,target_practice,target_practice,target_practice,Gelbe Wesen,Grüne Wesen,target_practice,target_practice,IAT_green2.bmp,green,starting_scream,target_practice,m,m,1,1256547,1256937,1256937,225,none,none,none,none,1257187
16,new,melody_first,compatible_first,incompatible_first,ES_yellow,second_IAT_first_block,scream,incompatible,6,change,target_practice,target_practice,target_practice,Gelbe Wesen,Grüne Wesen,target_practice,target_practice,IAT_yellow4.bmp,yellow,ending_scream,target_practice,c,c,1,1257767,1258157,1258157,241,none,none,none,none,1258417
16,new,melody_first,compatible_first,incompatible_first,ES_yellow,second_IAT_first_block,scream,incompatible,7,change,target_practice,target_practice,target_practice,Gelbe Wesen,Grüne Wesen,target_practice,target_practice,IAT_green3.bmp,green,starting_scream,target_practice,m,c,0,1258986,1259376,1259377,315,m,1,1259707,284,1260016
16,new,melody_first,compatible_first,incompatible_first,ES_yellow,second_IAT_first_block,scream,incompatible,8,repetition,target_practice,target_practice,target_practice,Gelbe Wesen,Grüne Wesen,target_practice,target_practice,IAT_green4.bmp,green,starting_scream,target_practice,m,m,1,1260576,1260966,1260967,446,none,none,none,none,1261436
16,new,melody_first,compatible_first,incompatible_first,ES_yellow,second_IAT_first_block,scream,incompatible,9,change,target_practice,target_practice,target_practice,Gelbe Wesen,Grüne Wesen,target_practice,target_practice,IAT_yellow1.bmp,yellow,ending_scream,target_practice,c,c,1,1261996,1262386,1262386,350,none,none,none,none,1262756
16,new,melody_first,compatible_first,incompatible_first,ES_yellow,second_IAT_first_block,scream,incompatible,10,change,target_practice,target_practice,target_practice,Gelbe Wesen,Grüne Wesen,target_practice,target_practice,IAT_green2.bmp,green,starting_scream,target_practice,m,m,1,1263317,1263706,1263706,371,none,none,none,none,1264096
16,new,melody_first,compatible_first,incompatible_first,ES_yellow,second_IAT_first_block,scream,incompatible,11,repetition,target_practice,target_practice,target_practice,Gelbe Wesen,Grüne Wesen,target_practice,target_practice,IAT_green4.bmp,green,starting_scream,target_practice,m,m,1,1264696,1265086,1265086,389,none,none,none,none,1265496
16,new,melody_first,compatible_first,incompatible_first,ES_yellow,second_IAT_first_block,scream,incompatible,12,repetition,target_practice,target_practice,target_practice,Gelbe Wesen,Grüne Wesen,target_practice,target_practice,IAT_green3.bmp,green,starting_scream,target_practice,m,m,1,1266089,1266486,1266486,426,none,none,none,none,1266936
16,new,melody_first,compatible_first,incompatible_first,ES_yellow,second_IAT_first_block,scream,incompatible,13,change,target_practice,target_practice,target_practice,Gelbe Wesen,Grüne Wesen,target_practice,target_practice,IAT_yellow4.bmp,yellow,ending_scream,target_practice,c,c,1,1267486,1267876,1267876,358,none,none,none,none,1268256
16,new,melody_first,compatible_first,incompatible_first,ES_yellow,second_IAT_first_block,scream,incompatible,14,change,target_practice,target_practice,target_practice,Gelbe Wesen,Grüne Wesen,target_practice,target_practice,IAT_green2.bmp,green,starting_scream,target_practice,m,m,1,1268816,1269206,1269206,365,none,none,none,none,1269596
16,new,melody_first,compatible_first,incompatible_first,ES_yellow,second_IAT_first_block,scream,incompatible,15,change,target_practice,target_practice,target_practice,Gelbe Wesen,Grüne Wesen,target_practice,target_practice,IAT_yellow3.bmp,yellow,ending_scream,target_practice,c,c,1,1270166,1270556,1270556,285,none,none,none,none,1270866
16,new,melody_first,compatible_first,incompatible_first,ES_yellow,second_IAT_first_block,scream,incompatible,16,repetition,target_practice,target_practice,target_practice,Gelbe Wesen,Grüne Wesen,target_practice,target_practice,IAT_yellow1.bmp,yellow,ending_scream,target_practice,c,c,1,1271436,1271826,1271826,449,none,none,none,none,1272296
16,new,melody_first,compatible_first,incompatible_first,ES_yellow,second_IAT_first_block,scream,incompatible,17,change,target_practice,target_practice,target_practice,Gelbe Wesen,Grüne Wesen,target_practice,target_practice,IAT_green1.bmp,green,starting_scream,target_practice,m,m,1,1272875,1273265,1273266,405,none,none,none,none,1273697
16,new,melody_first,compatible_first,incompatible_first,ES_yellow,second_IAT_first_block,scream,incompatible,18,repetition,target_practice,target_practice,target_practice,Gelbe Wesen,Grüne Wesen,target_practice,target_practice,IAT_green1.bmp,green,starting_scream,target_practice,m,m,1,1274266,1274656,1274657,424,none,none,none,none,1275106
16,new,melody_first,compatible_first,incompatible_first,ES_yellow,second_IAT_first_block,scream,incompatible,19,change,target_practice,target_practice,target_practice,Gelbe Wesen,Grüne Wesen,target_practice,target_practice,IAT_yellow4.bmp,yellow,ending_scream,target_practice,c,c,1,1275666,1276056,1276056,824,none,none,none,none,1276906
16,new,melody_first,compatible_first,incompatible_first,ES_yellow,second_IAT_first_block,scream,incompatible,20,repetition,target_practice,target_practice,target_practice,Gelbe Wesen,Grüne Wesen,target_practice,target_practice,IAT_yellow2.bmp,yellow,ending_scream,target_practice,c,c,1,1277466,1277856,1277856,379,none,none,none,none,1278256
