subject_nr,contrast_group,iat_order,block_order_1,block_order_2,color_counter,which_IAT_which_block,current_contrast,current_comp,trialnr,trial_type,target_type,task_switch, response_switch,left_target,right_target,left_attribute,right_attribute,trial_target,target_color,target_role,attribute_valence,correct_response,response_first_response,correct_first_response,time_assignments_show,time_target_show,time_first_response,response_time_first_response,response_force_correct,correct_force_correct,time_force_correct,response_time_force_correct,time_logger
17,new,scream_first,incompatible_first,compatible_first,ES_green,second_IAT_first_block,melody,compatible,0,none,attribute,NA,NA,Rote Wesen,Gelbe Wesen,Negativ,Positiv,Wundervoll,NA,NA,positive,m,m,1,1449999,1450389,1450389,656,none,none,none,none,1451069
17,new,scream_first,incompatible_first,compatible_first,ES_green,second_IAT_first_block,melody,compatible,1,none,attribute,task_repetition,response_repetition,Rote Wesen,Gelbe Wesen,Negativ,Positiv,Freude,NA,NA,positive,m,m,1,1451799,1452188,1452189,459,none,none,none,none,1452669
17,new,scream_first,incompatible_first,compatible_first,ES_green,second_IAT_first_block,melody,compatible,2,none,attribute,task_repetition,response_switch,Rote Wesen,Gelbe Wesen,Negativ,Positiv,Versagen,NA,NA,negative,c,c,1,1453408,1453798,1453799,523,none,none,none,none,1454348
17,new,scream_first,incompatible_first,compatible_first,ES_green,second_IAT_first_block,melody,compatible,3,none,target,task_switch,response_switch,Rote Wesen,Gelbe Wesen,Negativ,Positiv,IAT_yellow2.bmp,yellow,starting_melody,NA,m,m,1,1455078,1455468,1455469,474,none,none,none,none,1455968
17,new,scream_first,incompatible_first,compatible_first,ES_green,second_IAT_first_block,melody,compatible,4,none,target,task_repetition,response_repetition,Rote Wesen,Gelbe Wesen,Negativ,Positiv,IAT_yellow4.bmp,yellow,starting_melody,NA,m,m,1,1456708,1457098,1457099,433,none,none,none,none,1457558
17,new,scream_first,incompatible_first,compatible_first,ES_green,second_IAT_first_block,melody,compatible,5,none,attribute,task_switch,response_repetition,Rote Wesen,Gelbe Wesen,Negativ,Positiv,Frieden,NA,NA,positive,m,m,1,1458348,1458738,1458738,523,none,none,none,none,1459288
17,new,scream_first,incompatible_first,compatible_first,ES_green,second_IAT_first_block,melody,compatible,6,none,attribute,task_repetition,response_repetition,Rote Wesen,Gelbe Wesen,Negativ,Positiv,Wundervoll,NA,NA,positive,m,m,1,1460058,1460448,1460448,448,none,none,none,none,1460918
17,new,scream_first,incompatible_first,compatible_first,ES_green,second_IAT_first_block,melody,compatible,7,none,target,task_switch,response_repetition,Rote Wesen,Gelbe Wesen,Negativ,Positiv,IAT_yellow1.bmp,yellow,starting_melody,NA,m,m,1,1461669,1462058,1462058,388,none,none,none,none,1462468
17,new,scream_first,incompatible_first,compatible_first,ES_green,second_IAT_first_block,melody,compatible,8,none,attribute,task_switch,response_switch,Rote Wesen,Gelbe Wesen,Negativ,Positiv,Böse,NA,NA,negative,c,c,1,1463198,1463588,1463588,504,none,none,none,none,1464118
17,new,scream_first,incompatible_first,compatible_first,ES_green,second_IAT_first_block,melody,compatible,9,none,attribute,task_repetition,response_switch,Rote Wesen,Gelbe Wesen,Negativ,Positiv,Spaß,NA,NA,positive,m,m,1,1464908,1465298,1465298,490,none,none,none,none,1465809
17,new,scream_first,incompatible_first,compatible_first,ES_green,second_IAT_first_block,melody,compatible,10,none,attribute,task_repetition,response_repetition,Rote Wesen,Gelbe Wesen,Negativ,Positiv,Liebe,NA,NA,positive,m,m,1,1466528,1466918,1466919,494,none,none,none,none,1467439
17,new,scream_first,incompatible_first,compatible_first,ES_green,second_IAT_first_block,melody,compatible,11,none,target,task_switch,response_repetition,Rote Wesen,Gelbe Wesen,Negativ,Positiv,IAT_yellow3.bmp,yellow,starting_melody,NA,m,m,1,1468158,1468548,1468549,396,none,none,none,none,1468968
17,new,scream_first,incompatible_first,compatible_first,ES_green,second_IAT_first_block,melody,compatible,12,none,target,task_repetition,response_repetition,Rote Wesen,Gelbe Wesen,Negativ,Positiv,IAT_yellow2.bmp,yellow,starting_melody,NA,m,m,1,1469678,1470068,1470069,296,none,none,none,none,1470388
17,new,scream_first,incompatible_first,compatible_first,ES_green,second_IAT_first_block,melody,compatible,13,none,attribute,task_switch,response_switch,Rote Wesen,Gelbe Wesen,Negativ,Positiv,Trauer,NA,NA,negative,c,m,0,1471108,1471498,1471498,484,c,1,1471998,256,1472278
17,new,scream_first,incompatible_first,compatible_first,ES_green,second_IAT_first_block,melody,compatible,14,none,target,task_switch,response_repetition,Rote Wesen,Gelbe Wesen,Negativ,Positiv,IAT_red4.bmp,red,ending_melody,NA,c,c,1,1472988,1473378,1473378,565,none,none,none,none,1473968
17,new,scream_first,incompatible_first,compatible_first,ES_green,second_IAT_first_block,melody,compatible,15,none,attribute,task_switch,response_switch,Rote Wesen,Gelbe Wesen,Negativ,Positiv,Glücklich,NA,NA,positive,m,m,1,1474698,1475088,1475088,484,none,none,none,none,1475598
17,new,scream_first,incompatible_first,compatible_first,ES_green,second_IAT_first_block,melody,compatible,16,none,attribute,task_repetition,response_switch,Rote Wesen,Gelbe Wesen,Negativ,Positiv,Schlecht,NA,NA,negative,c,c,1,1476318,1476708,1476708,521,none,none,none,none,1477248
17,new,scream_first,incompatible_first,compatible_first,ES_green,second_IAT_first_block,melody,compatible,17,none,target,task_switch,response_repetition,Rote Wesen,Gelbe Wesen,Negativ,Positiv,IAT_red1.bmp,red,ending_melody,NA,c,c,1,1477958,1478348,1478348,479,none,none,none,none,1478848
17,new,scream_first,incompatible_first,compatible_first,ES_green,second_IAT_first_block,melody,compatible,18,none,target,task_repetition,response_repetition,Rote Wesen,Gelbe Wesen,Negativ,Positiv,IAT_red3.bmp,red,ending_melody,NA,c,c,1,1479628,1480018,1480019,365,none,none,none,none,1480408
17,new,scream_first,incompatible_first,compatible_first,ES_green,second_IAT_first_block,melody,compatible,19,none,attribute,task_switch,response_repetition,Rote Wesen,Gelbe Wesen,Negativ,Positiv,Bedrohung,NA,NA,negative,c,c,1,1481167,1481557,1481558,456,none,none,none,none,1482038
17,new,scream_first,incompatible_first,compatible_first,ES_green,second_IAT_first_block,melody,compatible,20,none,attribute,task_repetition,response_switch,Rote Wesen,Gelbe Wesen,Negativ,Positiv,Wundervoll,NA,NA,positive,m,m,1,1482901,1483298,1483299,501,none,none,none,none,1483828
17,new,scream_first,incompatible_first,compatible_first,ES_green,second_IAT_first_block,melody,compatible,21,none,target,task_switch,response_switch,Rote Wesen,Gelbe Wesen,Negativ,Positiv,IAT_red2.bmp,red,ending_melody,NA,c,c,1,1484538,1484928,1484928,510,none,none,none,none,1485458
17,new,scream_first,incompatible_first,compatible_first,ES_green,second_IAT_first_block,melody,compatible,22,none,attribute,task_switch,response_repetition,Rote Wesen,Gelbe Wesen,Negativ,Positiv,Schmerz,NA,NA,negative,c,c,1,1486188,1486578,1486578,506,none,none,none,none,1487108
17,new,scream_first,incompatible_first,compatible_first,ES_green,second_IAT_first_block,melody,compatible,23,none,target,task_switch,response_switch,Rote Wesen,Gelbe Wesen,Negativ,Positiv,IAT_yellow1.bmp,yellow,starting_melody,NA,m,m,1,1487808,1488198,1488198,473,none,none,none,none,1488698
17,new,scream_first,incompatible_first,compatible_first,ES_green,second_IAT_first_block,melody,compatible,24,none,attribute,task_switch,response_repetition,Rote Wesen,Gelbe Wesen,Negativ,Positiv,Glücklich,NA,NA,positive,m,m,1,1489418,1489808,1489808,506,none,none,none,none,1490338
17,new,scream_first,incompatible_first,compatible_first,ES_green,second_IAT_first_block,melody,compatible,25,none,target,task_switch,response_switch,Rote Wesen,Gelbe Wesen,Negativ,Positiv,IAT_red2.bmp,red,ending_melody,NA,c,c,1,1491028,1491418,1491418,424,none,none,none,none,1491868
17,new,scream_first,incompatible_first,compatible_first,ES_green,second_IAT_first_block,melody,compatible,26,none,attribute,task_switch,response_repetition,Rote Wesen,Gelbe Wesen,Negativ,Positiv,Böse,NA,NA,negative,c,c,1,1492588,1492978,1492978,397,none,none,none,none,1493398
17,new,scream_first,incompatible_first,compatible_first,ES_green,second_IAT_first_block,melody,compatible,27,none,attribute,task_repetition,response_repetition,Rote Wesen,Gelbe Wesen,Negativ,Positiv,Bedrohung,NA,NA,negative,c,c,1,1494138,1494527,1494528,390,none,none,none,none,1494938
17,new,scream_first,incompatible_first,compatible_first,ES_green,second_IAT_first_block,melody,compatible,28,none,attribute,task_repetition,response_repetition,Rote Wesen,Gelbe Wesen,Negativ,Positiv,Schlecht,NA,NA,negative,c,c,1,1495657,1496047,1496048,887,none,none,none,none,1496957
17,new,scream_first,incompatible_first,compatible_first,ES_green,second_IAT_first_block,melody,compatible,29,none,target,task_switch,response_switch,Rote Wesen,Gelbe Wesen,Negativ,Positiv,IAT_yellow3.bmp,yellow,starting_melody,NA,m,m,1,1497667,1498057,1498058,405,none,none,none,none,1498487
17,new,scream_first,incompatible_first,compatible_first,ES_green,second_IAT_first_block,melody,compatible,30,none,target,task_repetition,response_switch,Rote Wesen,Gelbe Wesen,Negativ,Positiv,IAT_red1.bmp,red,ending_melody,NA,c,c,1,1499187,1499577,1499577,434,none,none,none,none,1500037
17,new,scream_first,incompatible_first,compatible_first,ES_green,second_IAT_first_block,melody,compatible,31,none,target,task_repetition,response_switch,Rote Wesen,Gelbe Wesen,Negativ,Positiv,IAT_yellow4.bmp,yellow,starting_melody,NA,m,m,1,1500848,1501238,1501238,496,none,none,none,none,1501758
17,new,scream_first,incompatible_first,compatible_first,ES_green,second_IAT_first_block,melody,compatible,32,none,target,task_repetition,response_switch,Rote Wesen,Gelbe Wesen,Negativ,Positiv,IAT_red4.bmp,red,ending_melody,NA,c,c,1,1502448,1502838,1502838,439,none,none,none,none,1503298
17,new,scream_first,incompatible_first,compatible_first,ES_green,second_IAT_first_block,melody,compatible,33,none,target,task_repetition,response_repetition,Rote Wesen,Gelbe Wesen,Negativ,Positiv,IAT_red3.bmp,red,ending_melody,NA,c,c,1,1504008,1504398,1504398,392,none,none,none,none,1504818
17,new,scream_first,incompatible_first,compatible_first,ES_green,second_IAT_first_block,melody,compatible,34,none,attribute,task_switch,response_switch,Rote Wesen,Gelbe Wesen,Negativ,Positiv,Liebe,NA,NA,positive,m,m,1,1505591,1505988,1505988,428,none,none,none,none,1506438
17,new,scream_first,incompatible_first,compatible_first,ES_green,second_IAT_first_block,melody,compatible,35,none,target,task_switch,response_switch,Rote Wesen,Gelbe Wesen,Negativ,Positiv,IAT_red4.bmp,red,ending_melody,NA,c,c,1,1507138,1507528,1507528,465,none,none,none,none,1508018
17,new,scream_first,incompatible_first,compatible_first,ES_green,second_IAT_first_block,melody,compatible,36,none,target,task_repetition,response_switch,Rote Wesen,Gelbe Wesen,Negativ,Positiv,IAT_yellow2.bmp,yellow,starting_melody,NA,m,m,1,1508748,1509137,1509138,473,none,none,none,none,1509638
17,new,scream_first,incompatible_first,compatible_first,ES_green,second_IAT_first_block,melody,compatible,37,none,target,task_repetition,response_repetition,Rote Wesen,Gelbe Wesen,Negativ,Positiv,IAT_yellow3.bmp,yellow,starting_melody,NA,m,m,1,1510337,1510727,1510728,299,none,none,none,none,1511047
17,new,scream_first,incompatible_first,compatible_first,ES_green,second_IAT_first_block,melody,compatible,38,none,attribute,task_switch,response_switch,Rote Wesen,Gelbe Wesen,Negativ,Positiv,Trauer,NA,NA,negative,c,c,1,1511757,1512147,1512148,408,none,none,none,none,1512577
17,new,scream_first,incompatible_first,compatible_first,ES_green,second_IAT_first_block,melody,compatible,39,none,attribute,task_repetition,response_switch,Rote Wesen,Gelbe Wesen,Negativ,Positiv,Freude,NA,NA,positive,m,m,1,1513297,1513687,1513687,474,none,none,none,none,1514187
17,new,scream_first,incompatible_first,compatible_first,ES_green,second_IAT_first_block,melody,compatible,40,none,target,task_switch,response_repetition,Rote Wesen,Gelbe Wesen,Negativ,Positiv,IAT_yellow1.bmp,yellow,starting_melody,NA,m,m,1,1514887,1515277,1515277,385,none,none,none,none,1515687
17,new,scream_first,incompatible_first,compatible_first,ES_green,second_IAT_first_block,melody,compatible,41,none,attribute,task_switch,response_repetition,Rote Wesen,Gelbe Wesen,Negativ,Positiv,Frieden,NA,NA,positive,m,m,1,1516417,1516807,1516807,891,none,none,none,none,1517717
17,new,scream_first,incompatible_first,compatible_first,ES_green,second_IAT_first_block,melody,compatible,42,none,attribute,task_repetition,response_switch,Rote Wesen,Gelbe Wesen,Negativ,Positiv,Versagen,NA,NA,negative,c,c,1,1518438,1518828,1518828,646,none,none,none,none,1519498
17,new,scream_first,incompatible_first,compatible_first,ES_green,second_IAT_first_block,melody,compatible,43,none,attribute,task_repetition,response_repetition,Rote Wesen,Gelbe Wesen,Negativ,Positiv,Schmerz,NA,NA,negative,c,c,1,1520218,1520608,1520608,472,none,none,none,none,1521108
17,new,scream_first,incompatible_first,compatible_first,ES_green,second_IAT_first_block,melody,compatible,44,none,target,task_switch,response_repetition,Rote Wesen,Gelbe Wesen,Negativ,Positiv,IAT_red2.bmp,red,ending_melody,NA,c,c,1,1521808,1522198,1522198,392,none,none,none,none,1522618
17,new,scream_first,incompatible_first,compatible_first,ES_green,second_IAT_first_block,melody,compatible,45,none,target,task_repetition,response_switch,Rote Wesen,Gelbe Wesen,Negativ,Positiv,IAT_yellow4.bmp,yellow,starting_melody,NA,m,m,1,1523317,1523707,1523708,382,none,none,none,none,1524117
17,new,scream_first,incompatible_first,compatible_first,ES_green,second_IAT_first_block,melody,compatible,46,none,target,task_repetition,response_switch,Rote Wesen,Gelbe Wesen,Negativ,Positiv,IAT_red3.bmp,red,ending_melody,NA,c,c,1,1524827,1525217,1525218,452,none,none,none,none,1525697
17,new,scream_first,incompatible_first,compatible_first,ES_green,second_IAT_first_block,melody,compatible,47,none,target,task_repetition,response_repetition,Rote Wesen,Gelbe Wesen,Negativ,Positiv,IAT_red1.bmp,red,ending_melody,NA,c,c,1,1526477,1526867,1526868,330,none,none,none,none,1527217
17,new,scream_first,incompatible_first,compatible_first,ES_green,second_IAT_first_block,melody,compatible,48,none,attribute,task_switch,response_switch,Rote Wesen,Gelbe Wesen,Negativ,Positiv,Spaß,NA,NA,positive,m,m,1,1527999,1528387,1528387,458,none,none,none,none,1528867
