subject_nr,contrast_group,iat_order,block_order_1,block_order_2,color_counter,which_IAT_which_block,current_contrast,current_comp,trialnr,trial_type,target_type,task_switch, response_switch,left_target,right_target,left_attribute,right_attribute,trial_target,target_color,target_role,attribute_valence,correct_response,response_first_response,correct_first_response,time_assignments_show,time_target_show,time_first_response,response_time_first_response,response_force_correct,correct_force_correct,time_force_correct,response_time_force_correct,time_logger
35,old,ending_first,incompatible_first,compatible_first,ES_red,first_IAT_second_block,ending,compatible,0,none,attribute,NA,NA,Grüne Wesen,Rote Wesen,Negativ,Positiv,Freude,NA,NA,positive,m,m,1,1126819,1127209,1127209,1336,none,none,none,none,1128569
35,old,ending_first,incompatible_first,compatible_first,ES_red,first_IAT_second_block,ending,compatible,1,none,attribute,task_repetition,response_switch,Grüne Wesen,Rote Wesen,Negativ,Positiv,Schlecht,NA,NA,negative,c,c,1,1129299,1129688,1129689,558,none,none,none,none,1130269
35,old,ending_first,incompatible_first,compatible_first,ES_red,first_IAT_second_block,ending,compatible,2,none,target,task_switch,response_switch,Grüne Wesen,Rote Wesen,Negativ,Positiv,IAT_red2.bmp,red,ending_scream,NA,m,m,1,1130968,1131358,1131359,496,none,none,none,none,1131878
35,old,ending_first,incompatible_first,compatible_first,ES_red,first_IAT_second_block,ending,compatible,3,none,attribute,task_switch,response_switch,Grüne Wesen,Rote Wesen,Negativ,Positiv,Böse,NA,NA,negative,c,c,1,1132628,1133018,1133018,682,none,none,none,none,1133719
35,old,ending_first,incompatible_first,compatible_first,ES_red,first_IAT_second_block,ending,compatible,4,none,attribute,task_repetition,response_switch,Grüne Wesen,Rote Wesen,Negativ,Positiv,Freude,NA,NA,positive,m,m,1,1134499,1134889,1134889,543,none,none,none,none,1135459
35,old,ending_first,incompatible_first,compatible_first,ES_red,first_IAT_second_block,ending,compatible,5,none,attribute,task_repetition,response_switch,Grüne Wesen,Rote Wesen,Negativ,Positiv,Schmerz,NA,NA,negative,c,c,1,1136259,1136649,1136649,560,none,none,none,none,1137229
35,old,ending_first,incompatible_first,compatible_first,ES_red,first_IAT_second_block,ending,compatible,6,none,attribute,task_repetition,response_repetition,Grüne Wesen,Rote Wesen,Negativ,Positiv,Bedrohung,NA,NA,negative,c,c,1,1138051,1138439,1138439,428,none,none,none,none,1138889
35,old,ending_first,incompatible_first,compatible_first,ES_red,first_IAT_second_block,ending,compatible,7,none,target,task_switch,response_switch,Grüne Wesen,Rote Wesen,Negativ,Positiv,IAT_red4.bmp,red,ending_scream,NA,m,m,1,1139599,1139989,1139989,1414,none,none,none,none,1141429
35,old,ending_first,incompatible_first,compatible_first,ES_red,first_IAT_second_block,ending,compatible,8,none,attribute,task_switch,response_switch,Grüne Wesen,Rote Wesen,Negativ,Positiv,Versagen,NA,NA,negative,c,c,1,1142169,1142559,1142559,728,none,none,none,none,1143309
35,old,ending_first,incompatible_first,compatible_first,ES_red,first_IAT_second_block,ending,compatible,9,none,target,task_switch,response_switch,Grüne Wesen,Rote Wesen,Negativ,Positiv,IAT_red1.bmp,red,ending_scream,NA,m,m,1,1144018,1144408,1144409,456,none,none,none,none,1144889
35,old,ending_first,incompatible_first,compatible_first,ES_red,first_IAT_second_block,ending,compatible,10,none,target,task_repetition,response_repetition,Grüne Wesen,Rote Wesen,Negativ,Positiv,IAT_red3.bmp,red,ending_scream,NA,m,m,1,1145588,1145978,1145979,315,none,none,none,none,1146318
35,old,ending_first,incompatible_first,compatible_first,ES_red,first_IAT_second_block,ending,compatible,11,none,target,task_repetition,response_repetition,Grüne Wesen,Rote Wesen,Negativ,Positiv,IAT_red1.bmp,red,ending_scream,NA,m,m,1,1147028,1147418,1147419,308,none,none,none,none,1147748
35,old,ending_first,incompatible_first,compatible_first,ES_red,first_IAT_second_block,ending,compatible,12,none,target,task_repetition,response_switch,Grüne Wesen,Rote Wesen,Negativ,Positiv,IAT_green2.bmp,green,ending_melody,NA,c,c,1,1148448,1148838,1148838,314,none,none,none,none,1149178
35,old,ending_first,incompatible_first,compatible_first,ES_red,first_IAT_second_block,ending,compatible,13,none,attribute,task_switch,response_repetition,Grüne Wesen,Rote Wesen,Negativ,Positiv,Trauer,NA,NA,negative,c,c,1,1149908,1150298,1150298,590,none,none,none,none,1150909
35,old,ending_first,incompatible_first,compatible_first,ES_red,first_IAT_second_block,ending,compatible,14,none,attribute,task_repetition,response_switch,Grüne Wesen,Rote Wesen,Negativ,Positiv,Glücklich,NA,NA,positive,m,m,1,1151649,1152039,1152039,614,none,none,none,none,1152679
35,old,ending_first,incompatible_first,compatible_first,ES_red,first_IAT_second_block,ending,compatible,15,none,target,task_switch,response_switch,Grüne Wesen,Rote Wesen,Negativ,Positiv,IAT_green3.bmp,green,ending_melody,NA,c,c,1,1153379,1153769,1153769,485,none,none,none,none,1154279
35,old,ending_first,incompatible_first,compatible_first,ES_red,first_IAT_second_block,ending,compatible,16,none,target,task_repetition,response_repetition,Grüne Wesen,Rote Wesen,Negativ,Positiv,IAT_green4.bmp,green,ending_melody,NA,c,c,1,1155009,1155399,1155399,316,none,none,none,none,1155739
35,old,ending_first,incompatible_first,compatible_first,ES_red,first_IAT_second_block,ending,compatible,17,none,attribute,task_switch,response_repetition,Grüne Wesen,Rote Wesen,Negativ,Positiv,Bedrohung,NA,NA,negative,c,c,1,1156499,1156889,1156889,501,none,none,none,none,1157409
35,old,ending_first,incompatible_first,compatible_first,ES_red,first_IAT_second_block,ending,compatible,18,none,target,task_switch,response_repetition,Grüne Wesen,Rote Wesen,Negativ,Positiv,IAT_green1.bmp,green,ending_melody,NA,c,c,1,1158219,1158608,1158609,327,none,none,none,none,1158959
35,old,ending_first,incompatible_first,compatible_first,ES_red,first_IAT_second_block,ending,compatible,19,none,attribute,task_switch,response_repetition,Grüne Wesen,Rote Wesen,Negativ,Positiv,Versagen,NA,NA,negative,c,c,1,1159728,1160118,1160119,493,none,none,none,none,1160638
35,old,ending_first,incompatible_first,compatible_first,ES_red,first_IAT_second_block,ending,compatible,20,none,attribute,task_repetition,response_switch,Grüne Wesen,Rote Wesen,Negativ,Positiv,Frieden,NA,NA,positive,m,m,1,1161420,1161808,1161809,555,none,none,none,none,1162388
35,old,ending_first,incompatible_first,compatible_first,ES_red,first_IAT_second_block,ending,compatible,21,none,target,task_switch,response_switch,Grüne Wesen,Rote Wesen,Negativ,Positiv,IAT_green3.bmp,green,ending_melody,NA,c,c,1,1163099,1163488,1163488,433,none,none,none,none,1163948
35,old,ending_first,incompatible_first,compatible_first,ES_red,first_IAT_second_block,ending,compatible,22,none,target,task_repetition,response_repetition,Grüne Wesen,Rote Wesen,Negativ,Positiv,IAT_green2.bmp,green,ending_melody,NA,c,c,1,1164658,1165048,1165048,381,none,none,none,none,1165448
35,old,ending_first,incompatible_first,compatible_first,ES_red,first_IAT_second_block,ending,compatible,23,none,target,task_repetition,response_repetition,Grüne Wesen,Rote Wesen,Negativ,Positiv,IAT_green1.bmp,green,ending_melody,NA,c,c,1,1166198,1166588,1166588,324,none,none,none,none,1166938
35,old,ending_first,incompatible_first,compatible_first,ES_red,first_IAT_second_block,ending,compatible,24,none,target,task_repetition,response_switch,Grüne Wesen,Rote Wesen,Negativ,Positiv,IAT_red3.bmp,red,ending_scream,NA,m,m,1,1167648,1168038,1168038,411,none,none,none,none,1168469
35,old,ending_first,incompatible_first,compatible_first,ES_red,first_IAT_second_block,ending,compatible,25,none,attribute,task_switch,response_repetition,Grüne Wesen,Rote Wesen,Negativ,Positiv,Spaß,NA,NA,positive,m,m,1,1169199,1169589,1169589,430,none,none,none,none,1170039
35,old,ending_first,incompatible_first,compatible_first,ES_red,first_IAT_second_block,ending,compatible,26,none,attribute,task_repetition,response_switch,Grüne Wesen,Rote Wesen,Negativ,Positiv,Schmerz,NA,NA,negative,c,c,1,1170779,1171169,1171169,447,none,none,none,none,1171639
35,old,ending_first,incompatible_first,compatible_first,ES_red,first_IAT_second_block,ending,compatible,27,none,attribute,task_repetition,response_repetition,Grüne Wesen,Rote Wesen,Negativ,Positiv,Schlecht,NA,NA,negative,c,c,1,1172389,1172779,1172779,612,none,none,none,none,1173419
35,old,ending_first,incompatible_first,compatible_first,ES_red,first_IAT_second_block,ending,compatible,28,none,target,task_switch,response_repetition,Grüne Wesen,Rote Wesen,Negativ,Positiv,IAT_green4.bmp,green,ending_melody,NA,c,c,1,1174178,1174568,1174569,482,none,none,none,none,1175078
35,old,ending_first,incompatible_first,compatible_first,ES_red,first_IAT_second_block,ending,compatible,29,none,target,task_repetition,response_switch,Grüne Wesen,Rote Wesen,Negativ,Positiv,IAT_red2.bmp,red,ending_scream,NA,m,m,1,1175778,1176168,1176169,355,none,none,none,none,1176548
35,old,ending_first,incompatible_first,compatible_first,ES_red,first_IAT_second_block,ending,compatible,30,none,target,task_repetition,response_repetition,Grüne Wesen,Rote Wesen,Negativ,Positiv,IAT_red4.bmp,red,ending_scream,NA,m,m,1,1177248,1177638,1177638,349,none,none,none,none,1178008
35,old,ending_first,incompatible_first,compatible_first,ES_red,first_IAT_second_block,ending,compatible,31,none,attribute,task_switch,response_repetition,Grüne Wesen,Rote Wesen,Negativ,Positiv,Liebe,NA,NA,positive,m,m,1,1178738,1179128,1179128,655,none,none,none,none,1179808
35,old,ending_first,incompatible_first,compatible_first,ES_red,first_IAT_second_block,ending,compatible,32,none,target,task_switch,response_repetition,Grüne Wesen,Rote Wesen,Negativ,Positiv,IAT_red2.bmp,red,ending_scream,NA,m,m,1,1180528,1180918,1180918,471,none,none,none,none,1181408
35,old,ending_first,incompatible_first,compatible_first,ES_red,first_IAT_second_block,ending,compatible,33,none,attribute,task_switch,response_repetition,Grüne Wesen,Rote Wesen,Negativ,Positiv,Wundervoll,NA,NA,positive,m,m,1,1182268,1182658,1182658,538,none,none,none,none,1183218
35,old,ending_first,incompatible_first,compatible_first,ES_red,first_IAT_second_block,ending,compatible,34,none,target,task_switch,response_repetition,Grüne Wesen,Rote Wesen,Negativ,Positiv,IAT_red1.bmp,red,ending_scream,NA,m,m,1,1183969,1184358,1184358,385,none,none,none,none,1184768
35,old,ending_first,incompatible_first,compatible_first,ES_red,first_IAT_second_block,ending,compatible,35,none,attribute,task_switch,response_switch,Grüne Wesen,Rote Wesen,Negativ,Positiv,Böse,NA,NA,negative,c,c,1,1185488,1185879,1185879,550,none,none,none,none,1186449
35,old,ending_first,incompatible_first,compatible_first,ES_red,first_IAT_second_block,ending,compatible,36,none,attribute,task_repetition,response_repetition,Grüne Wesen,Rote Wesen,Negativ,Positiv,Trauer,NA,NA,negative,c,c,1,1187179,1187569,1187569,473,none,none,none,none,1188069
35,old,ending_first,incompatible_first,compatible_first,ES_red,first_IAT_second_block,ending,compatible,37,none,target,task_switch,response_repetition,Grüne Wesen,Rote Wesen,Negativ,Positiv,IAT_green4.bmp,green,ending_melody,NA,c,c,1,1188768,1189158,1189159,433,none,none,none,none,1189618
35,old,ending_first,incompatible_first,compatible_first,ES_red,first_IAT_second_block,ending,compatible,38,none,target,task_repetition,response_switch,Grüne Wesen,Rote Wesen,Negativ,Positiv,IAT_red3.bmp,red,ending_scream,NA,m,m,1,1190318,1190708,1190709,254,none,none,none,none,1190988
35,old,ending_first,incompatible_first,compatible_first,ES_red,first_IAT_second_block,ending,compatible,39,none,target,task_repetition,response_switch,Grüne Wesen,Rote Wesen,Negativ,Positiv,IAT_green1.bmp,green,ending_melody,NA,c,c,1,1191688,1192078,1192078,368,none,none,none,none,1192468
35,old,ending_first,incompatible_first,compatible_first,ES_red,first_IAT_second_block,ending,compatible,40,none,attribute,task_switch,response_switch,Grüne Wesen,Rote Wesen,Negativ,Positiv,Glücklich,NA,NA,positive,m,c,0,1193208,1193598,1193598,491,m,1,1194098,444,1194568
35,old,ending_first,incompatible_first,compatible_first,ES_red,first_IAT_second_block,ending,compatible,41,none,attribute,task_repetition,response_repetition,Grüne Wesen,Rote Wesen,Negativ,Positiv,Wundervoll,NA,NA,positive,m,m,1,1195298,1195688,1195688,444,none,none,none,none,1196158
35,old,ending_first,incompatible_first,compatible_first,ES_red,first_IAT_second_block,ending,compatible,42,none,target,task_switch,response_repetition,Grüne Wesen,Rote Wesen,Negativ,Positiv,IAT_red4.bmp,red,ending_scream,NA,m,m,1,1196878,1197268,1197268,471,none,none,none,none,1197758
35,old,ending_first,incompatible_first,compatible_first,ES_red,first_IAT_second_block,ending,compatible,43,none,target,task_repetition,response_switch,Grüne Wesen,Rote Wesen,Negativ,Positiv,IAT_green3.bmp,green,ending_melody,NA,c,c,1,1198478,1198868,1198868,414,none,none,none,none,1199308
35,old,ending_first,incompatible_first,compatible_first,ES_red,first_IAT_second_block,ending,compatible,44,none,attribute,task_switch,response_switch,Grüne Wesen,Rote Wesen,Negativ,Positiv,Liebe,NA,NA,positive,m,m,1,1200038,1200428,1200428,559,none,none,none,none,1201008
35,old,ending_first,incompatible_first,compatible_first,ES_red,first_IAT_second_block,ending,compatible,45,none,attribute,task_repetition,response_repetition,Grüne Wesen,Rote Wesen,Negativ,Positiv,Frieden,NA,NA,positive,m,m,1,1201738,1202128,1202128,398,none,none,none,none,1202548
35,old,ending_first,incompatible_first,compatible_first,ES_red,first_IAT_second_block,ending,compatible,46,none,attribute,task_repetition,response_repetition,Grüne Wesen,Rote Wesen,Negativ,Positiv,Freude,NA,NA,positive,m,m,1,1203319,1203708,1203709,448,none,none,none,none,1204178
35,old,ending_first,incompatible_first,compatible_first,ES_red,first_IAT_second_block,ending,compatible,47,none,target,task_switch,response_switch,Grüne Wesen,Rote Wesen,Negativ,Positiv,IAT_green2.bmp,green,ending_melody,NA,c,c,1,1204961,1205348,1205349,405,none,none,none,none,1205778
35,old,ending_first,incompatible_first,compatible_first,ES_red,first_IAT_second_block,ending,compatible,48,none,attribute,task_switch,response_switch,Grüne Wesen,Rote Wesen,Negativ,Positiv,Spaß,NA,NA,positive,m,m,1,1206508,1206898,1206898,481,none,none,none,none,1207398
