subject_nr,contrast_group,iat_order,block_order_1,block_order_2,color_counter,which_IAT_which_block,current_contrast,current_comp,trialnr,trial_type,target_type,task_switch, response_switch,left_target,right_target,left_attribute,right_attribute,trial_target,target_color,target_role,attribute_valence,correct_response,response_first_response,correct_first_response,time_assignments_show,time_target_show,time_first_response,response_time_first_response,response_force_correct,correct_force_correct,time_force_correct,response_time_force_correct,time_logger
37,old,starting_first,incompatible_first,incompatible_first,ES_yellow,first_IAT_first_block,starting,incompatible,0,NA,target_practice,target_practice,target_practice,Rote Wesen,Grüne Wesen,target_practice,target_practice,IAT_green1.bmp,green,starting_scream,target_practice,m,m,1,822016,822406,822407,754,none,none,none,none,823186
37,old,starting_first,incompatible_first,incompatible_first,ES_yellow,first_IAT_first_block,starting,incompatible,1,change,target_practice,target_practice,target_practice,Rote Wesen,Grüne Wesen,target_practice,target_practice,IAT_red2.bmp,red,starting_melody,target_practice,c,c,1,823806,824196,824197,319,none,none,none,none,824536
37,old,starting_first,incompatible_first,incompatible_first,ES_yellow,first_IAT_first_block,starting,incompatible,2,change,target_practice,target_practice,target_practice,Rote Wesen,Grüne Wesen,target_practice,target_practice,IAT_green3.bmp,green,starting_scream,target_practice,m,m,1,825146,825536,825537,336,none,none,none,none,825896
37,old,starting_first,incompatible_first,incompatible_first,ES_yellow,first_IAT_first_block,starting,incompatible,3,repetition,target_practice,target_practice,target_practice,Rote Wesen,Grüne Wesen,target_practice,target_practice,IAT_green1.bmp,green,starting_scream,target_practice,m,m,1,826506,826896,826896,261,none,none,none,none,827176
37,old,starting_first,incompatible_first,incompatible_first,ES_yellow,first_IAT_first_block,starting,incompatible,4,repetition,target_practice,target_practice,target_practice,Rote Wesen,Grüne Wesen,target_practice,target_practice,IAT_green2.bmp,green,starting_scream,target_practice,m,m,1,827786,828176,828176,291,none,none,none,none,828486
37,old,starting_first,incompatible_first,incompatible_first,ES_yellow,first_IAT_first_block,starting,incompatible,5,change,target_practice,target_practice,target_practice,Rote Wesen,Grüne Wesen,target_practice,target_practice,IAT_red1.bmp,red,starting_melody,target_practice,c,c,1,829116,829506,829506,266,none,none,none,none,829796
37,old,starting_first,incompatible_first,incompatible_first,ES_yellow,first_IAT_first_block,starting,incompatible,6,change,target_practice,target_practice,target_practice,Rote Wesen,Grüne Wesen,target_practice,target_practice,IAT_green1.bmp,green,starting_scream,target_practice,m,m,1,830416,830806,830806,321,none,none,none,none,831146
37,old,starting_first,incompatible_first,incompatible_first,ES_yellow,first_IAT_first_block,starting,incompatible,7,change,target_practice,target_practice,target_practice,Rote Wesen,Grüne Wesen,target_practice,target_practice,IAT_red1.bmp,red,starting_melody,target_practice,c,m,0,831756,832146,832146,371,c,1,832536,62,832616
37,old,starting_first,incompatible_first,incompatible_first,ES_yellow,first_IAT_first_block,starting,incompatible,8,repetition,target_practice,target_practice,target_practice,Rote Wesen,Grüne Wesen,target_practice,target_practice,IAT_red2.bmp,red,starting_melody,target_practice,c,c,1,833236,833626,833626,335,none,none,none,none,833986
37,old,starting_first,incompatible_first,incompatible_first,ES_yellow,first_IAT_first_block,starting,incompatible,9,change,target_practice,target_practice,target_practice,Rote Wesen,Grüne Wesen,target_practice,target_practice,IAT_green2.bmp,green,starting_scream,target_practice,m,m,1,834596,834986,834986,283,none,none,none,none,835296
37,old,starting_first,incompatible_first,incompatible_first,ES_yellow,first_IAT_first_block,starting,incompatible,10,repetition,target_practice,target_practice,target_practice,Rote Wesen,Grüne Wesen,target_practice,target_practice,IAT_green4.bmp,green,starting_scream,target_practice,m,m,1,835906,836297,836297,290,none,none,none,none,836607
37,old,starting_first,incompatible_first,incompatible_first,ES_yellow,first_IAT_first_block,starting,incompatible,11,repetition,target_practice,target_practice,target_practice,Rote Wesen,Grüne Wesen,target_practice,target_practice,IAT_green3.bmp,green,starting_scream,target_practice,m,m,1,837239,837626,837627,329,none,none,none,none,837977
37,old,starting_first,incompatible_first,incompatible_first,ES_yellow,first_IAT_first_block,starting,incompatible,12,repetition,target_practice,target_practice,target_practice,Rote Wesen,Grüne Wesen,target_practice,target_practice,IAT_green2.bmp,green,starting_scream,target_practice,m,m,1,838536,838926,838927,284,none,none,none,none,839236
37,old,starting_first,incompatible_first,incompatible_first,ES_yellow,first_IAT_first_block,starting,incompatible,13,change,target_practice,target_practice,target_practice,Rote Wesen,Grüne Wesen,target_practice,target_practice,IAT_red4.bmp,red,starting_melody,target_practice,c,c,1,839807,840196,840197,339,none,none,none,none,840556
37,old,starting_first,incompatible_first,incompatible_first,ES_yellow,first_IAT_first_block,starting,incompatible,14,repetition,target_practice,target_practice,target_practice,Rote Wesen,Grüne Wesen,target_practice,target_practice,IAT_red1.bmp,red,starting_melody,target_practice,c,c,1,841126,841516,841517,264,none,none,none,none,841806
37,old,starting_first,incompatible_first,incompatible_first,ES_yellow,first_IAT_first_block,starting,incompatible,15,repetition,target_practice,target_practice,target_practice,Rote Wesen,Grüne Wesen,target_practice,target_practice,IAT_red4.bmp,red,starting_melody,target_practice,c,c,1,842376,842766,842767,228,none,none,none,none,843016
37,old,starting_first,incompatible_first,incompatible_first,ES_yellow,first_IAT_first_block,starting,incompatible,16,repetition,target_practice,target_practice,target_practice,Rote Wesen,Grüne Wesen,target_practice,target_practice,IAT_red2.bmp,red,starting_melody,target_practice,c,c,1,843576,843966,843966,237,none,none,none,none,844226
37,old,starting_first,incompatible_first,incompatible_first,ES_yellow,first_IAT_first_block,starting,incompatible,17,repetition,target_practice,target_practice,target_practice,Rote Wesen,Grüne Wesen,target_practice,target_practice,IAT_red3.bmp,red,starting_melody,target_practice,c,c,1,844806,845196,845196,227,none,none,none,none,845446
37,old,starting_first,incompatible_first,incompatible_first,ES_yellow,first_IAT_first_block,starting,incompatible,18,change,target_practice,target_practice,target_practice,Rote Wesen,Grüne Wesen,target_practice,target_practice,IAT_green3.bmp,green,starting_scream,target_practice,m,m,1,846016,846406,846406,314,none,none,none,none,846746
37,old,starting_first,incompatible_first,incompatible_first,ES_yellow,first_IAT_first_block,starting,incompatible,19,change,target_practice,target_practice,target_practice,Rote Wesen,Grüne Wesen,target_practice,target_practice,IAT_red3.bmp,red,starting_melody,target_practice,c,c,1,847306,847696,847696,278,none,none,none,none,847996
37,old,starting_first,incompatible_first,incompatible_first,ES_yellow,first_IAT_first_block,starting,incompatible,20,change,target_practice,target_practice,target_practice,Rote Wesen,Grüne Wesen,target_practice,target_practice,IAT_green4.bmp,green,starting_scream,target_practice,m,c,0,848556,848946,848946,262,m,1,849226,814,850066
