subject_nr,contrast_group,iat_order,block_order_1,block_order_2,color_counter,which_IAT_which_block,current_contrast,current_comp,trialnr,trial_type,target_type,task_switch, response_switch,left_target,right_target,left_attribute,right_attribute,trial_target,target_color,target_role,attribute_valence,correct_response,response_first_response,correct_first_response,time_assignments_show,time_target_show,time_first_response,response_time_first_response,response_force_correct,correct_force_correct,time_force_correct,response_time_force_correct,time_logger
58,new,melody_first,incompatible_first,compatible_first,ES_green,second_IAT_first_block,scream,compatible,0,none,attribute,NA,NA,Lila Wesen,Grüne Wesen,Negativ,Positiv,Liebe,NA,NA,positive,m,m,1,1314224,1314614,1314614,1554,none,none,none,none,1316194
58,new,melody_first,incompatible_first,compatible_first,ES_green,second_IAT_first_block,scream,compatible,1,none,attribute,task_repetition,response_switch,Lila Wesen,Grüne Wesen,Negativ,Positiv,Versagen,NA,NA,negative,c,c,1,1316914,1317304,1317304,566,none,none,none,none,1317894
58,new,melody_first,incompatible_first,compatible_first,ES_green,second_IAT_first_block,scream,compatible,2,none,attribute,task_repetition,response_repetition,Lila Wesen,Grüne Wesen,Negativ,Positiv,Trauer,NA,NA,negative,c,c,1,1318634,1319024,1319024,558,none,none,none,none,1319604
58,new,melody_first,incompatible_first,compatible_first,ES_green,second_IAT_first_block,scream,compatible,3,none,target,task_switch,response_repetition,Lila Wesen,Grüne Wesen,Negativ,Positiv,IAT_purple2.bmp,purple,starting_scream,NA,c,c,1,1320334,1320724,1320724,696,none,none,none,none,1321444
58,new,melody_first,incompatible_first,compatible_first,ES_green,second_IAT_first_block,scream,compatible,4,none,target,task_repetition,response_repetition,Lila Wesen,Grüne Wesen,Negativ,Positiv,IAT_purple3.bmp,purple,starting_scream,NA,c,c,1,1322154,1322544,1322544,379,none,none,none,none,1322944
58,new,melody_first,incompatible_first,compatible_first,ES_green,second_IAT_first_block,scream,compatible,5,none,target,task_repetition,response_repetition,Lila Wesen,Grüne Wesen,Negativ,Positiv,IAT_purple1.bmp,purple,starting_scream,NA,c,c,1,1323753,1324143,1324144,393,none,none,none,none,1324563
58,new,melody_first,incompatible_first,compatible_first,ES_green,second_IAT_first_block,scream,compatible,6,none,attribute,task_switch,response_repetition,Lila Wesen,Grüne Wesen,Negativ,Positiv,Böse,NA,NA,negative,c,m,0,1325333,1325723,1325724,370,c,1,1326104,282,1326404
58,new,melody_first,incompatible_first,compatible_first,ES_green,second_IAT_first_block,scream,compatible,7,none,target,task_switch,response_repetition,Lila Wesen,Grüne Wesen,Negativ,Positiv,IAT_purple4.bmp,purple,starting_scream,NA,c,c,1,1327146,1327534,1327534,421,none,none,none,none,1327974
58,new,melody_first,incompatible_first,compatible_first,ES_green,second_IAT_first_block,scream,compatible,8,none,target,task_repetition,response_repetition,Lila Wesen,Grüne Wesen,Negativ,Positiv,IAT_purple2.bmp,purple,starting_scream,NA,c,c,1,1328674,1329064,1329064,336,none,none,none,none,1329424
58,new,melody_first,incompatible_first,compatible_first,ES_green,second_IAT_first_block,scream,compatible,9,none,attribute,task_switch,response_switch,Lila Wesen,Grüne Wesen,Negativ,Positiv,Freude,NA,NA,positive,m,m,1,1330164,1330554,1330554,458,none,none,none,none,1331034
58,new,melody_first,incompatible_first,compatible_first,ES_green,second_IAT_first_block,scream,compatible,10,none,target,task_switch,response_switch,Lila Wesen,Grüne Wesen,Negativ,Positiv,IAT_purple1.bmp,purple,starting_scream,NA,c,c,1,1331734,1332124,1332124,594,none,none,none,none,1332744
58,new,melody_first,incompatible_first,compatible_first,ES_green,second_IAT_first_block,scream,compatible,11,none,attribute,task_switch,response_repetition,Lila Wesen,Grüne Wesen,Negativ,Positiv,Schlecht,NA,NA,negative,c,c,1,1333464,1333854,1333854,516,none,none,none,none,1334394
58,new,melody_first,incompatible_first,compatible_first,ES_green,second_IAT_first_block,scream,compatible,12,none,attribute,task_repetition,response_switch,Lila Wesen,Grüne Wesen,Negativ,Positiv,Frieden,NA,NA,positive,m,m,1,1335134,1335523,1335524,559,none,none,none,none,1336104
58,new,melody_first,incompatible_first,compatible_first,ES_green,second_IAT_first_block,scream,compatible,13,none,target,task_switch,response_switch,Lila Wesen,Grüne Wesen,Negativ,Positiv,IAT_purple4.bmp,purple,starting_scream,NA,c,c,1,1336803,1337193,1337194,500,none,none,none,none,1337713
58,new,melody_first,incompatible_first,compatible_first,ES_green,second_IAT_first_block,scream,compatible,14,none,target,task_repetition,response_switch,Lila Wesen,Grüne Wesen,Negativ,Positiv,IAT_green3.bmp,green,ending_scream,NA,m,m,1,1338433,1338823,1338824,474,none,none,none,none,1339323
58,new,melody_first,incompatible_first,compatible_first,ES_green,second_IAT_first_block,scream,compatible,15,none,target,task_repetition,response_repetition,Lila Wesen,Grüne Wesen,Negativ,Positiv,IAT_green1.bmp,green,ending_scream,NA,m,m,1,1340043,1340433,1340433,406,none,none,none,none,1340863
58,new,melody_first,incompatible_first,compatible_first,ES_green,second_IAT_first_block,scream,compatible,16,none,attribute,task_switch,response_switch,Lila Wesen,Grüne Wesen,Negativ,Positiv,Bedrohung,NA,NA,negative,c,c,1,1341593,1341983,1341983,468,none,none,none,none,1342473
58,new,melody_first,incompatible_first,compatible_first,ES_green,second_IAT_first_block,scream,compatible,17,none,target,task_switch,response_switch,Lila Wesen,Grüne Wesen,Negativ,Positiv,IAT_green2.bmp,green,ending_scream,NA,m,m,1,1343173,1343564,1343564,532,none,none,none,none,1344124
58,new,melody_first,incompatible_first,compatible_first,ES_green,second_IAT_first_block,scream,compatible,18,none,attribute,task_switch,response_switch,Lila Wesen,Grüne Wesen,Negativ,Positiv,Schmerz,NA,NA,negative,c,c,1,1344914,1345304,1345304,409,none,none,none,none,1345734
58,new,melody_first,incompatible_first,compatible_first,ES_green,second_IAT_first_block,scream,compatible,19,none,attribute,task_repetition,response_switch,Lila Wesen,Grüne Wesen,Negativ,Positiv,Glücklich,NA,NA,positive,m,c,0,1346504,1346894,1346894,292,m,1,1347204,353,1347584
58,new,melody_first,incompatible_first,compatible_first,ES_green,second_IAT_first_block,scream,compatible,20,none,target,task_switch,response_repetition,Lila Wesen,Grüne Wesen,Negativ,Positiv,IAT_green4.bmp,green,ending_scream,NA,m,m,1,1348365,1348753,1348754,434,none,none,none,none,1349214
58,new,melody_first,incompatible_first,compatible_first,ES_green,second_IAT_first_block,scream,compatible,21,none,target,task_repetition,response_repetition,Lila Wesen,Grüne Wesen,Negativ,Positiv,IAT_green1.bmp,green,ending_scream,NA,m,m,1,1349913,1350303,1350304,341,none,none,none,none,1350673
58,new,melody_first,incompatible_first,compatible_first,ES_green,second_IAT_first_block,scream,compatible,22,none,target,task_repetition,response_switch,Lila Wesen,Grüne Wesen,Negativ,Positiv,IAT_purple3.bmp,purple,starting_scream,NA,c,c,1,1351383,1351773,1351774,428,none,none,none,none,1352223
58,new,melody_first,incompatible_first,compatible_first,ES_green,second_IAT_first_block,scream,compatible,23,none,attribute,task_switch,response_repetition,Lila Wesen,Grüne Wesen,Negativ,Positiv,Böse,NA,NA,negative,c,c,1,1352983,1353373,1353373,342,none,none,none,none,1353743
58,new,melody_first,incompatible_first,compatible_first,ES_green,second_IAT_first_block,scream,compatible,24,none,target,task_switch,response_switch,Lila Wesen,Grüne Wesen,Negativ,Positiv,IAT_green2.bmp,green,ending_scream,NA,m,m,1,1354443,1354833,1354833,253,none,none,none,none,1355113
58,new,melody_first,incompatible_first,compatible_first,ES_green,second_IAT_first_block,scream,compatible,25,none,attribute,task_switch,response_repetition,Lila Wesen,Grüne Wesen,Negativ,Positiv,Liebe,NA,NA,positive,m,m,1,1355843,1356233,1356233,248,none,none,none,none,1356503
58,new,melody_first,incompatible_first,compatible_first,ES_green,second_IAT_first_block,scream,compatible,26,none,attribute,task_repetition,response_repetition,Lila Wesen,Grüne Wesen,Negativ,Positiv,Spaß,NA,NA,positive,m,m,1,1357243,1357633,1357633,410,none,none,none,none,1358063
58,new,melody_first,incompatible_first,compatible_first,ES_green,second_IAT_first_block,scream,compatible,27,none,target,task_switch,response_switch,Lila Wesen,Grüne Wesen,Negativ,Positiv,IAT_purple1.bmp,purple,starting_scream,NA,c,c,1,1358773,1359163,1359163,836,none,none,none,none,1360023
58,new,melody_first,incompatible_first,compatible_first,ES_green,second_IAT_first_block,scream,compatible,28,none,attribute,task_switch,response_switch,Lila Wesen,Grüne Wesen,Negativ,Positiv,Wundervoll,NA,NA,positive,m,m,1,1360763,1361153,1361154,299,none,none,none,none,1361474
58,new,melody_first,incompatible_first,compatible_first,ES_green,second_IAT_first_block,scream,compatible,29,none,attribute,task_repetition,response_repetition,Lila Wesen,Grüne Wesen,Negativ,Positiv,Liebe,NA,NA,positive,m,m,1,1362213,1362603,1362604,572,none,none,none,none,1363203
58,new,melody_first,incompatible_first,compatible_first,ES_green,second_IAT_first_block,scream,compatible,30,none,attribute,task_repetition,response_switch,Lila Wesen,Grüne Wesen,Negativ,Positiv,Bedrohung,NA,NA,negative,c,c,1,1363933,1364323,1364324,606,none,none,none,none,1364953
58,new,melody_first,incompatible_first,compatible_first,ES_green,second_IAT_first_block,scream,compatible,31,none,target,task_switch,response_switch,Lila Wesen,Grüne Wesen,Negativ,Positiv,IAT_green4.bmp,green,ending_scream,NA,m,m,1,1365653,1366043,1366043,515,none,none,none,none,1366583
58,new,melody_first,incompatible_first,compatible_first,ES_green,second_IAT_first_block,scream,compatible,32,none,attribute,task_switch,response_repetition,Lila Wesen,Grüne Wesen,Negativ,Positiv,Wundervoll,NA,NA,positive,m,m,1,1367313,1367703,1367703,393,none,none,none,none,1368123
58,new,melody_first,incompatible_first,compatible_first,ES_green,second_IAT_first_block,scream,compatible,33,none,target,task_switch,response_repetition,Lila Wesen,Grüne Wesen,Negativ,Positiv,IAT_green3.bmp,green,ending_scream,NA,m,m,1,1368853,1369243,1369243,307,none,none,none,none,1369573
58,new,melody_first,incompatible_first,compatible_first,ES_green,second_IAT_first_block,scream,compatible,34,none,target,task_repetition,response_repetition,Lila Wesen,Grüne Wesen,Negativ,Positiv,IAT_green4.bmp,green,ending_scream,NA,m,m,1,1370365,1370753,1370753,371,none,none,none,none,1371143
58,new,melody_first,incompatible_first,compatible_first,ES_green,second_IAT_first_block,scream,compatible,35,none,target,task_repetition,response_switch,Lila Wesen,Grüne Wesen,Negativ,Positiv,IAT_purple3.bmp,purple,starting_scream,NA,c,c,1,1371853,1372243,1372243,471,none,none,none,none,1372733
58,new,melody_first,incompatible_first,compatible_first,ES_green,second_IAT_first_block,scream,compatible,36,none,target,task_repetition,response_switch,Lila Wesen,Grüne Wesen,Negativ,Positiv,IAT_green3.bmp,green,ending_scream,NA,m,m,1,1373433,1373822,1373823,790,none,none,none,none,1374632
58,new,melody_first,incompatible_first,compatible_first,ES_green,second_IAT_first_block,scream,compatible,37,none,target,task_repetition,response_switch,Lila Wesen,Grüne Wesen,Negativ,Positiv,IAT_purple4.bmp,purple,starting_scream,NA,c,m,0,1375322,1375712,1375713,397,c,1,1376123,431,1376572
58,new,melody_first,incompatible_first,compatible_first,ES_green,second_IAT_first_block,scream,compatible,38,none,attribute,task_switch,response_switch,Lila Wesen,Grüne Wesen,Negativ,Positiv,Frieden,NA,NA,positive,m,m,1,1377332,1377722,1377723,646,none,none,none,none,1378393
58,new,melody_first,incompatible_first,compatible_first,ES_green,second_IAT_first_block,scream,compatible,39,none,attribute,task_repetition,response_switch,Lila Wesen,Grüne Wesen,Negativ,Positiv,Trauer,NA,NA,negative,c,c,1,1379133,1379523,1379523,501,none,none,none,none,1380043
58,new,melody_first,incompatible_first,compatible_first,ES_green,second_IAT_first_block,scream,compatible,40,none,attribute,task_repetition,response_repetition,Lila Wesen,Grüne Wesen,Negativ,Positiv,Versagen,NA,NA,negative,c,c,1,1380773,1381163,1381163,474,none,none,none,none,1381663
58,new,melody_first,incompatible_first,compatible_first,ES_green,second_IAT_first_block,scream,compatible,41,none,attribute,task_repetition,response_repetition,Lila Wesen,Grüne Wesen,Negativ,Positiv,Schmerz,NA,NA,negative,c,c,1,1382413,1382803,1382803,405,none,none,none,none,1383233
58,new,melody_first,incompatible_first,compatible_first,ES_green,second_IAT_first_block,scream,compatible,42,none,attribute,task_repetition,response_switch,Lila Wesen,Grüne Wesen,Negativ,Positiv,Spaß,NA,NA,positive,m,m,1,1383983,1384373,1384373,502,none,none,none,none,1384903
58,new,melody_first,incompatible_first,compatible_first,ES_green,second_IAT_first_block,scream,compatible,43,none,attribute,task_repetition,response_repetition,Lila Wesen,Grüne Wesen,Negativ,Positiv,Freude,NA,NA,positive,m,m,1,1385633,1386022,1386023,511,none,none,none,none,1386553
58,new,melody_first,incompatible_first,compatible_first,ES_green,second_IAT_first_block,scream,compatible,44,none,target,task_switch,response_repetition,Lila Wesen,Grüne Wesen,Negativ,Positiv,IAT_green2.bmp,green,ending_scream,NA,m,m,1,1387252,1387642,1387643,600,none,none,none,none,1388262
58,new,melody_first,incompatible_first,compatible_first,ES_green,second_IAT_first_block,scream,compatible,45,none,attribute,task_switch,response_switch,Lila Wesen,Grüne Wesen,Negativ,Positiv,Schlecht,NA,NA,negative,c,c,1,1389022,1389412,1389413,510,none,none,none,none,1389942
58,new,melody_first,incompatible_first,compatible_first,ES_green,second_IAT_first_block,scream,compatible,46,none,target,task_switch,response_repetition,Lila Wesen,Grüne Wesen,Negativ,Positiv,IAT_purple2.bmp,purple,starting_scream,NA,c,m,0,1390642,1391032,1391032,464,c,1,1391512,478,1392012
58,new,melody_first,incompatible_first,compatible_first,ES_green,second_IAT_first_block,scream,compatible,47,none,target,task_repetition,response_switch,Lila Wesen,Grüne Wesen,Negativ,Positiv,IAT_green1.bmp,green,ending_scream,NA,m,m,1,1392782,1393172,1393172,331,none,none,none,none,1393522
58,new,melody_first,incompatible_first,compatible_first,ES_green,second_IAT_first_block,scream,compatible,48,none,attribute,task_switch,response_repetition,Lila Wesen,Grüne Wesen,Negativ,Positiv,Glücklich,NA,NA,positive,m,m,1,1394323,1394712,1394712,464,none,none,none,none,1395202
