subject_nr,contrast_group,iat_order,block_order_1,block_order_2,color_counter,which_IAT_which_block,current_contrast,current_comp,trialnr,trial_type,target_type,task_switch, response_switch,left_target,right_target,left_attribute,right_attribute,trial_target,target_color,target_role,attribute_valence,correct_response,response_first_response,correct_first_response,time_assignments_show,time_target_show,time_first_response,response_time_first_response,response_force_correct,correct_force_correct,time_force_correct,response_time_force_correct,time_logger
37,old,starting_first,incompatible_first,incompatible_first,ES_yellow,second_IAT_second_block,ending,compatible,0,none,attribute,NA,NA,Lila Wesen,Gelbe Wesen,Negativ,Positiv,Bedrohung,NA,NA,negative,c,c,1,1452535,1452925,1452925,600,none,none,none,none,1453545
37,old,starting_first,incompatible_first,incompatible_first,ES_yellow,second_IAT_second_block,ending,compatible,1,none,attribute,task_repetition,response_switch,Lila Wesen,Gelbe Wesen,Negativ,Positiv,Glücklich,NA,NA,positive,m,m,1,1454275,1454664,1454665,437,none,none,none,none,1455125
37,old,starting_first,incompatible_first,incompatible_first,ES_yellow,second_IAT_second_block,ending,compatible,2,none,target,task_switch,response_switch,Lila Wesen,Gelbe Wesen,Negativ,Positiv,IAT_purple4.bmp,purple,ending_melody,NA,c,c,1,1455834,1456224,1456225,402,none,none,none,none,1456654
37,old,starting_first,incompatible_first,incompatible_first,ES_yellow,second_IAT_second_block,ending,compatible,3,none,attribute,task_switch,response_switch,Lila Wesen,Gelbe Wesen,Negativ,Positiv,Freude,NA,NA,positive,m,m,1,1457384,1457774,1457775,556,none,none,none,none,1458354
37,old,starting_first,incompatible_first,incompatible_first,ES_yellow,second_IAT_second_block,ending,compatible,4,none,attribute,task_repetition,response_repetition,Lila Wesen,Gelbe Wesen,Negativ,Positiv,Spaß,NA,NA,positive,m,c,0,1459074,1459464,1459464,384,m,1,1459864,439,1460324
37,old,starting_first,incompatible_first,incompatible_first,ES_yellow,second_IAT_second_block,ending,compatible,5,none,attribute,task_repetition,response_repetition,Lila Wesen,Gelbe Wesen,Negativ,Positiv,Wundervoll,NA,NA,positive,m,m,1,1461124,1461514,1461514,548,none,none,none,none,1462084
37,old,starting_first,incompatible_first,incompatible_first,ES_yellow,second_IAT_second_block,ending,compatible,6,none,target,task_switch,response_repetition,Lila Wesen,Gelbe Wesen,Negativ,Positiv,IAT_yellow1.bmp,yellow,ending_scream,NA,m,m,1,1462804,1463194,1463194,384,none,none,none,none,1463604
37,old,starting_first,incompatible_first,incompatible_first,ES_yellow,second_IAT_second_block,ending,compatible,7,none,attribute,task_switch,response_switch,Lila Wesen,Gelbe Wesen,Negativ,Positiv,Versagen,NA,NA,negative,c,m,0,1464374,1464764,1464764,587,c,1,1465364,12,1465394
37,old,starting_first,incompatible_first,incompatible_first,ES_yellow,second_IAT_second_block,ending,compatible,8,none,attribute,task_repetition,response_repetition,Lila Wesen,Gelbe Wesen,Negativ,Positiv,Schlecht,NA,NA,negative,c,c,1,1466115,1466505,1466505,444,none,none,none,none,1466975
37,old,starting_first,incompatible_first,incompatible_first,ES_yellow,second_IAT_second_block,ending,compatible,9,none,target,task_switch,response_switch,Lila Wesen,Gelbe Wesen,Negativ,Positiv,IAT_yellow3.bmp,yellow,ending_scream,NA,m,m,1,1467675,1468065,1468065,430,none,none,none,none,1468515
37,old,starting_first,incompatible_first,incompatible_first,ES_yellow,second_IAT_second_block,ending,compatible,10,none,target,task_repetition,response_switch,Lila Wesen,Gelbe Wesen,Negativ,Positiv,IAT_purple1.bmp,purple,ending_melody,NA,c,c,1,1469205,1469595,1469595,425,none,none,none,none,1470045
37,old,starting_first,incompatible_first,incompatible_first,ES_yellow,second_IAT_second_block,ending,compatible,11,none,target,task_repetition,response_switch,Lila Wesen,Gelbe Wesen,Negativ,Positiv,IAT_yellow2.bmp,yellow,ending_scream,NA,m,c,0,1470786,1471174,1471175,308,m,1,1471495,403,1471925
37,old,starting_first,incompatible_first,incompatible_first,ES_yellow,second_IAT_second_block,ending,compatible,12,none,attribute,task_switch,response_switch,Lila Wesen,Gelbe Wesen,Negativ,Positiv,Schmerz,NA,NA,negative,c,c,1,1472634,1473024,1473025,486,none,none,none,none,1473534
37,old,starting_first,incompatible_first,incompatible_first,ES_yellow,second_IAT_second_block,ending,compatible,13,none,attribute,task_repetition,response_switch,Lila Wesen,Gelbe Wesen,Negativ,Positiv,Liebe,NA,NA,positive,m,m,1,1474264,1474654,1474655,459,none,none,none,none,1475134
37,old,starting_first,incompatible_first,incompatible_first,ES_yellow,second_IAT_second_block,ending,compatible,14,none,target,task_switch,response_switch,Lila Wesen,Gelbe Wesen,Negativ,Positiv,IAT_purple2.bmp,purple,ending_melody,NA,c,c,1,1475834,1476224,1476224,425,none,none,none,none,1476674
37,old,starting_first,incompatible_first,incompatible_first,ES_yellow,second_IAT_second_block,ending,compatible,15,none,attribute,task_switch,response_repetition,Lila Wesen,Gelbe Wesen,Negativ,Positiv,Böse,NA,NA,negative,c,c,1,1477394,1477784,1477784,482,none,none,none,none,1478294
37,old,starting_first,incompatible_first,incompatible_first,ES_yellow,second_IAT_second_block,ending,compatible,16,none,attribute,task_repetition,response_switch,Lila Wesen,Gelbe Wesen,Negativ,Positiv,Frieden,NA,NA,positive,m,m,1,1479014,1479404,1479404,425,none,none,none,none,1479854
37,old,starting_first,incompatible_first,incompatible_first,ES_yellow,second_IAT_second_block,ending,compatible,17,none,target,task_switch,response_repetition,Lila Wesen,Gelbe Wesen,Negativ,Positiv,IAT_yellow4.bmp,yellow,ending_scream,NA,m,m,1,1480554,1480944,1480944,540,none,none,none,none,1481504
37,old,starting_first,incompatible_first,incompatible_first,ES_yellow,second_IAT_second_block,ending,compatible,18,none,target,task_repetition,response_repetition,Lila Wesen,Gelbe Wesen,Negativ,Positiv,IAT_yellow3.bmp,yellow,ending_scream,NA,m,m,1,1482204,1482594,1482594,349,none,none,none,none,1482964
37,old,starting_first,incompatible_first,incompatible_first,ES_yellow,second_IAT_second_block,ending,compatible,19,none,target,task_repetition,response_repetition,Lila Wesen,Gelbe Wesen,Negativ,Positiv,IAT_yellow4.bmp,yellow,ending_scream,NA,m,m,1,1483675,1484065,1484065,323,none,none,none,none,1484415
37,old,starting_first,incompatible_first,incompatible_first,ES_yellow,second_IAT_second_block,ending,compatible,20,none,target,task_repetition,response_switch,Lila Wesen,Gelbe Wesen,Negativ,Positiv,IAT_purple3.bmp,purple,ending_melody,NA,c,c,1,1485115,1485505,1485505,339,none,none,none,none,1485865
37,old,starting_first,incompatible_first,incompatible_first,ES_yellow,second_IAT_second_block,ending,compatible,21,none,target,task_repetition,response_repetition,Lila Wesen,Gelbe Wesen,Negativ,Positiv,IAT_purple3.bmp,purple,ending_melody,NA,c,c,1,1486565,1486955,1486955,341,none,none,none,none,1487325
37,old,starting_first,incompatible_first,incompatible_first,ES_yellow,second_IAT_second_block,ending,compatible,22,none,attribute,task_switch,response_switch,Lila Wesen,Gelbe Wesen,Negativ,Positiv,Liebe,NA,NA,positive,m,m,1,1488054,1488444,1488445,458,none,none,none,none,1488925
37,old,starting_first,incompatible_first,incompatible_first,ES_yellow,second_IAT_second_block,ending,compatible,23,none,target,task_switch,response_repetition,Lila Wesen,Gelbe Wesen,Negativ,Positiv,IAT_yellow2.bmp,yellow,ending_scream,NA,m,m,1,1489634,1490024,1490025,386,none,none,none,none,1490434
37,old,starting_first,incompatible_first,incompatible_first,ES_yellow,second_IAT_second_block,ending,compatible,24,none,attribute,task_switch,response_repetition,Lila Wesen,Gelbe Wesen,Negativ,Positiv,Frieden,NA,NA,positive,m,m,1,1491187,1491574,1491574,433,none,none,none,none,1492034
37,old,starting_first,incompatible_first,incompatible_first,ES_yellow,second_IAT_second_block,ending,compatible,25,none,attribute,task_repetition,response_repetition,Lila Wesen,Gelbe Wesen,Negativ,Positiv,Glücklich,NA,NA,positive,m,m,1,1492764,1493154,1493154,389,none,none,none,none,1493564
37,old,starting_first,incompatible_first,incompatible_first,ES_yellow,second_IAT_second_block,ending,compatible,26,none,attribute,task_repetition,response_switch,Lila Wesen,Gelbe Wesen,Negativ,Positiv,Bedrohung,NA,NA,negative,c,c,1,1494284,1494674,1494674,482,none,none,none,none,1495184
37,old,starting_first,incompatible_first,incompatible_first,ES_yellow,second_IAT_second_block,ending,compatible,27,none,attribute,task_repetition,response_repetition,Lila Wesen,Gelbe Wesen,Negativ,Positiv,Trauer,NA,NA,negative,c,c,1,1495914,1496305,1496305,649,none,none,none,none,1496975
37,old,starting_first,incompatible_first,incompatible_first,ES_yellow,second_IAT_second_block,ending,compatible,28,none,attribute,task_repetition,response_repetition,Lila Wesen,Gelbe Wesen,Negativ,Positiv,Schmerz,NA,NA,negative,c,c,1,1497714,1498104,1498104,488,none,none,none,none,1498614
37,old,starting_first,incompatible_first,incompatible_first,ES_yellow,second_IAT_second_block,ending,compatible,29,none,target,task_switch,response_switch,Lila Wesen,Gelbe Wesen,Negativ,Positiv,IAT_yellow1.bmp,yellow,ending_scream,NA,m,m,1,1499324,1499714,1499714,435,none,none,none,none,1500174
37,old,starting_first,incompatible_first,incompatible_first,ES_yellow,second_IAT_second_block,ending,compatible,30,none,attribute,task_switch,response_repetition,Lila Wesen,Gelbe Wesen,Negativ,Positiv,Spaß,NA,NA,positive,m,m,1,1500905,1501295,1501295,456,none,none,none,none,1501775
37,old,starting_first,incompatible_first,incompatible_first,ES_yellow,second_IAT_second_block,ending,compatible,31,none,attribute,task_repetition,response_switch,Lila Wesen,Gelbe Wesen,Negativ,Positiv,Schlecht,NA,NA,negative,c,c,1,1502505,1502895,1502895,488,none,none,none,none,1503405
37,old,starting_first,incompatible_first,incompatible_first,ES_yellow,second_IAT_second_block,ending,compatible,32,none,target,task_switch,response_repetition,Lila Wesen,Gelbe Wesen,Negativ,Positiv,IAT_purple2.bmp,purple,ending_melody,NA,c,c,1,1504104,1504494,1504495,382,none,none,none,none,1504905
37,old,starting_first,incompatible_first,incompatible_first,ES_yellow,second_IAT_second_block,ending,compatible,33,none,attribute,task_switch,response_repetition,Lila Wesen,Gelbe Wesen,Negativ,Positiv,Böse,NA,NA,negative,c,c,1,1505634,1506024,1506025,404,none,none,none,none,1506454
37,old,starting_first,incompatible_first,incompatible_first,ES_yellow,second_IAT_second_block,ending,compatible,34,none,target,task_switch,response_repetition,Lila Wesen,Gelbe Wesen,Negativ,Positiv,IAT_purple4.bmp,purple,ending_melody,NA,c,c,1,1507154,1507544,1507545,419,none,none,none,none,1507984
37,old,starting_first,incompatible_first,incompatible_first,ES_yellow,second_IAT_second_block,ending,compatible,35,none,attribute,task_switch,response_switch,Lila Wesen,Gelbe Wesen,Negativ,Positiv,Freude,NA,NA,positive,m,c,0,1508704,1509094,1509094,410,m,1,1509514,402,1509944
37,old,starting_first,incompatible_first,incompatible_first,ES_yellow,second_IAT_second_block,ending,compatible,36,none,attribute,task_repetition,response_switch,Lila Wesen,Gelbe Wesen,Negativ,Positiv,Versagen,NA,NA,negative,c,c,1,1510684,1511074,1511074,565,none,none,none,none,1511664
37,old,starting_first,incompatible_first,incompatible_first,ES_yellow,second_IAT_second_block,ending,compatible,37,none,target,task_switch,response_repetition,Lila Wesen,Gelbe Wesen,Negativ,Positiv,IAT_purple1.bmp,purple,ending_melody,NA,c,c,1,1512374,1512764,1512764,462,none,none,none,none,1513254
37,old,starting_first,incompatible_first,incompatible_first,ES_yellow,second_IAT_second_block,ending,compatible,38,none,target,task_repetition,response_repetition,Lila Wesen,Gelbe Wesen,Negativ,Positiv,IAT_purple3.bmp,purple,ending_melody,NA,c,c,1,1513986,1514374,1514374,370,none,none,none,none,1514764
37,old,starting_first,incompatible_first,incompatible_first,ES_yellow,second_IAT_second_block,ending,compatible,39,none,target,task_repetition,response_repetition,Lila Wesen,Gelbe Wesen,Negativ,Positiv,IAT_purple4.bmp,purple,ending_melody,NA,c,c,1,1515454,1515844,1515844,402,none,none,none,none,1516274
37,old,starting_first,incompatible_first,incompatible_first,ES_yellow,second_IAT_second_block,ending,compatible,40,none,target,task_repetition,response_switch,Lila Wesen,Gelbe Wesen,Negativ,Positiv,IAT_yellow4.bmp,yellow,ending_scream,NA,m,m,1,1516994,1517384,1517384,363,none,none,none,none,1517774
37,old,starting_first,incompatible_first,incompatible_first,ES_yellow,second_IAT_second_block,ending,compatible,41,none,target,task_repetition,response_repetition,Lila Wesen,Gelbe Wesen,Negativ,Positiv,IAT_yellow1.bmp,yellow,ending_scream,NA,m,m,1,1518465,1518855,1518855,513,none,none,none,none,1519395
37,old,starting_first,incompatible_first,incompatible_first,ES_yellow,second_IAT_second_block,ending,compatible,42,none,attribute,task_switch,response_switch,Lila Wesen,Gelbe Wesen,Negativ,Positiv,Bedrohung,NA,NA,negative,c,c,1,1520115,1520505,1520505,413,none,none,none,none,1520945
37,old,starting_first,incompatible_first,incompatible_first,ES_yellow,second_IAT_second_block,ending,compatible,43,none,target,task_switch,response_switch,Lila Wesen,Gelbe Wesen,Negativ,Positiv,IAT_yellow3.bmp,yellow,ending_scream,NA,m,c,0,1521644,1522034,1522035,378,m,1,1522425,464,1522914
37,old,starting_first,incompatible_first,incompatible_first,ES_yellow,second_IAT_second_block,ending,compatible,44,none,attribute,task_switch,response_repetition,Lila Wesen,Gelbe Wesen,Negativ,Positiv,Wundervoll,NA,NA,positive,m,m,1,1523634,1524024,1524025,504,none,none,none,none,1524554
37,old,starting_first,incompatible_first,incompatible_first,ES_yellow,second_IAT_second_block,ending,compatible,45,none,target,task_switch,response_switch,Lila Wesen,Gelbe Wesen,Negativ,Positiv,IAT_purple1.bmp,purple,ending_melody,NA,c,c,1,1525254,1525644,1525644,398,none,none,none,none,1526064
37,old,starting_first,incompatible_first,incompatible_first,ES_yellow,second_IAT_second_block,ending,compatible,46,none,target,task_repetition,response_switch,Lila Wesen,Gelbe Wesen,Negativ,Positiv,IAT_yellow2.bmp,yellow,ending_scream,NA,m,m,1,1526774,1527164,1527164,453,none,none,none,none,1527644
37,old,starting_first,incompatible_first,incompatible_first,ES_yellow,second_IAT_second_block,ending,compatible,47,none,target,task_repetition,response_switch,Lila Wesen,Gelbe Wesen,Negativ,Positiv,IAT_purple2.bmp,purple,ending_melody,NA,c,c,1,1528364,1528754,1528754,454,none,none,none,none,1529234
37,old,starting_first,incompatible_first,incompatible_first,ES_yellow,second_IAT_second_block,ending,compatible,48,none,attribute,task_switch,response_repetition,Lila Wesen,Gelbe Wesen,Negativ,Positiv,Trauer,NA,NA,negative,c,c,1,1529954,1530344,1530344,502,none,none,none,none,1530874
