subject_nr,contrast_group,iat_order,block_order_1,block_order_2,color_counter,which_IAT_which_block,current_contrast,current_comp,trialnr,trial_type,target_type,task_switch, response_switch,left_target,right_target,left_attribute,right_attribute,trial_target,target_color,target_role,attribute_valence,correct_response,response_first_response,correct_first_response,time_assignments_show,time_target_show,time_first_response,response_time_first_response,response_force_correct,correct_force_correct,time_force_correct,response_time_force_correct,time_logger
62,new,scream_first,incompatible_first,incompatible_first,ES_purple,second_IAT_first_block,melody,incompatible,0,none,attribute,NA,NA,Grüne Wesen,Gelbe Wesen,Negativ,Positiv,Glücklich,NA,NA,positive,m,m,1,1443197,1443588,1443589,850,none,none,none,none,1444458
62,new,scream_first,incompatible_first,incompatible_first,ES_purple,second_IAT_first_block,melody,incompatible,1,none,attribute,task_repetition,response_repetition,Grüne Wesen,Gelbe Wesen,Negativ,Positiv,Wundervoll,NA,NA,positive,m,m,1,1445198,1445588,1445588,529,none,none,none,none,1446138
62,new,scream_first,incompatible_first,incompatible_first,ES_purple,second_IAT_first_block,melody,incompatible,2,none,attribute,task_repetition,response_switch,Grüne Wesen,Gelbe Wesen,Negativ,Positiv,Schmerz,NA,NA,negative,c,c,1,1446868,1447258,1447258,438,none,none,none,none,1447718
62,new,scream_first,incompatible_first,incompatible_first,ES_purple,second_IAT_first_block,melody,incompatible,3,none,attribute,task_repetition,response_repetition,Grüne Wesen,Gelbe Wesen,Negativ,Positiv,Schlecht,NA,NA,negative,c,c,1,1448448,1448838,1448838,571,none,none,none,none,1449428
62,new,scream_first,incompatible_first,incompatible_first,ES_purple,second_IAT_first_block,melody,incompatible,4,none,target,task_switch,response_repetition,Grüne Wesen,Gelbe Wesen,Negativ,Positiv,IAT_green3.bmp,green,starting_melody,NA,c,c,1,1450128,1450518,1450518,457,none,none,none,none,1450998
62,new,scream_first,incompatible_first,incompatible_first,ES_purple,second_IAT_first_block,melody,incompatible,5,none,target,task_repetition,response_switch,Grüne Wesen,Gelbe Wesen,Negativ,Positiv,IAT_yellow1.bmp,yellow,ending_melody,NA,m,m,1,1451768,1452158,1452158,322,none,none,none,none,1452508
62,new,scream_first,incompatible_first,incompatible_first,ES_purple,second_IAT_first_block,melody,incompatible,6,none,target,task_repetition,response_switch,Grüne Wesen,Gelbe Wesen,Negativ,Positiv,IAT_green1.bmp,green,starting_melody,NA,c,c,1,1453291,1453688,1453688,491,none,none,none,none,1454208
62,new,scream_first,incompatible_first,incompatible_first,ES_purple,second_IAT_first_block,melody,incompatible,7,none,attribute,task_switch,response_repetition,Grüne Wesen,Gelbe Wesen,Negativ,Positiv,Versagen,NA,NA,negative,c,c,1,1454947,1455337,1455338,529,none,none,none,none,1455887
62,new,scream_first,incompatible_first,incompatible_first,ES_purple,second_IAT_first_block,melody,incompatible,8,none,attribute,task_repetition,response_switch,Grüne Wesen,Gelbe Wesen,Negativ,Positiv,Spaß,NA,NA,positive,m,m,1,1456607,1456997,1456998,341,none,none,none,none,1457367
62,new,scream_first,incompatible_first,incompatible_first,ES_purple,second_IAT_first_block,melody,incompatible,9,none,attribute,task_repetition,response_repetition,Grüne Wesen,Gelbe Wesen,Negativ,Positiv,Liebe,NA,NA,positive,m,m,1,1458087,1458477,1458477,404,none,none,none,none,1458907
62,new,scream_first,incompatible_first,incompatible_first,ES_purple,second_IAT_first_block,melody,incompatible,10,none,target,task_switch,response_repetition,Grüne Wesen,Gelbe Wesen,Negativ,Positiv,IAT_yellow2.bmp,yellow,ending_melody,NA,m,m,1,1459617,1460007,1460007,443,none,none,none,none,1460477
62,new,scream_first,incompatible_first,incompatible_first,ES_purple,second_IAT_first_block,melody,incompatible,11,none,target,task_repetition,response_repetition,Grüne Wesen,Gelbe Wesen,Negativ,Positiv,IAT_yellow4.bmp,yellow,ending_melody,NA,m,m,1,1461178,1461568,1461568,663,none,none,none,none,1462258
62,new,scream_first,incompatible_first,incompatible_first,ES_purple,second_IAT_first_block,melody,incompatible,12,none,attribute,task_switch,response_switch,Grüne Wesen,Gelbe Wesen,Negativ,Positiv,Bedrohung,NA,NA,negative,c,m,0,1462988,1463378,1463378,192,c,1,1463588,349,1463958
62,new,scream_first,incompatible_first,incompatible_first,ES_purple,second_IAT_first_block,melody,incompatible,13,none,attribute,task_repetition,response_repetition,Grüne Wesen,Gelbe Wesen,Negativ,Positiv,Böse,NA,NA,negative,c,m,0,1464678,1465068,1465068,338,c,1,1465418,308,1465748
62,new,scream_first,incompatible_first,incompatible_first,ES_purple,second_IAT_first_block,melody,incompatible,14,none,target,task_switch,response_repetition,Grüne Wesen,Gelbe Wesen,Negativ,Positiv,IAT_green2.bmp,green,starting_melody,NA,c,c,1,1466448,1466837,1466838,539,none,none,none,none,1467398
62,new,scream_first,incompatible_first,incompatible_first,ES_purple,second_IAT_first_block,melody,incompatible,15,none,target,task_repetition,response_repetition,Grüne Wesen,Gelbe Wesen,Negativ,Positiv,IAT_green4.bmp,green,starting_melody,NA,c,c,1,1468097,1468487,1468488,367,none,none,none,none,1468877
62,new,scream_first,incompatible_first,incompatible_first,ES_purple,second_IAT_first_block,melody,incompatible,16,none,attribute,task_switch,response_repetition,Grüne Wesen,Gelbe Wesen,Negativ,Positiv,Trauer,NA,NA,negative,c,c,1,1469617,1470007,1470008,546,none,none,none,none,1470577
62,new,scream_first,incompatible_first,incompatible_first,ES_purple,second_IAT_first_block,melody,incompatible,17,none,attribute,task_repetition,response_repetition,Grüne Wesen,Gelbe Wesen,Negativ,Positiv,Trauer,NA,NA,negative,c,c,1,1471307,1471697,1471697,484,none,none,none,none,1472207
62,new,scream_first,incompatible_first,incompatible_first,ES_purple,second_IAT_first_block,melody,incompatible,18,none,target,task_switch,response_switch,Grüne Wesen,Gelbe Wesen,Negativ,Positiv,IAT_yellow3.bmp,yellow,ending_melody,NA,m,m,1,1472977,1473367,1473367,380,none,none,none,none,1473767
62,new,scream_first,incompatible_first,incompatible_first,ES_purple,second_IAT_first_block,melody,incompatible,19,none,attribute,task_switch,response_repetition,Grüne Wesen,Gelbe Wesen,Negativ,Positiv,Freude,NA,NA,positive,m,m,1,1474587,1474977,1474977,461,none,none,none,none,1475457
62,new,scream_first,incompatible_first,incompatible_first,ES_purple,second_IAT_first_block,melody,incompatible,20,none,attribute,task_repetition,response_repetition,Grüne Wesen,Gelbe Wesen,Negativ,Positiv,Glücklich,NA,NA,positive,m,m,1,1476248,1476637,1476637,353,none,none,none,none,1477017
62,new,scream_first,incompatible_first,incompatible_first,ES_purple,second_IAT_first_block,melody,incompatible,21,none,target,task_switch,response_repetition,Grüne Wesen,Gelbe Wesen,Negativ,Positiv,IAT_yellow1.bmp,yellow,ending_melody,NA,m,m,1,1477717,1478107,1478107,343,none,none,none,none,1478478
62,new,scream_first,incompatible_first,incompatible_first,ES_purple,second_IAT_first_block,melody,incompatible,22,none,target,task_repetition,response_repetition,Grüne Wesen,Gelbe Wesen,Negativ,Positiv,IAT_yellow4.bmp,yellow,ending_melody,NA,m,m,1,1479177,1479567,1479568,325,none,none,none,none,1479918
62,new,scream_first,incompatible_first,incompatible_first,ES_purple,second_IAT_first_block,melody,incompatible,23,none,attribute,task_switch,response_repetition,Grüne Wesen,Gelbe Wesen,Negativ,Positiv,Frieden,NA,NA,positive,m,m,1,1480647,1481037,1481038,426,none,none,none,none,1481487
62,new,scream_first,incompatible_first,incompatible_first,ES_purple,second_IAT_first_block,melody,incompatible,24,none,target,task_switch,response_repetition,Grüne Wesen,Gelbe Wesen,Negativ,Positiv,IAT_yellow2.bmp,yellow,ending_melody,NA,m,m,1,1482197,1482587,1482588,337,none,none,none,none,1482947
62,new,scream_first,incompatible_first,incompatible_first,ES_purple,second_IAT_first_block,melody,incompatible,25,none,target,task_repetition,response_switch,Grüne Wesen,Gelbe Wesen,Negativ,Positiv,IAT_green3.bmp,green,starting_melody,NA,c,m,0,1483647,1484037,1484037,366,c,1,1484417,311,1484747
62,new,scream_first,incompatible_first,incompatible_first,ES_purple,second_IAT_first_block,melody,incompatible,26,none,target,task_repetition,response_switch,Grüne Wesen,Gelbe Wesen,Negativ,Positiv,IAT_yellow3.bmp,yellow,ending_melody,NA,m,m,1,1485457,1485847,1485847,493,none,none,none,none,1486367
62,new,scream_first,incompatible_first,incompatible_first,ES_purple,second_IAT_first_block,melody,incompatible,27,none,attribute,task_switch,response_switch,Grüne Wesen,Gelbe Wesen,Negativ,Positiv,Schmerz,NA,NA,negative,c,c,1,1487137,1487527,1487527,775,none,none,none,none,1488327
62,new,scream_first,incompatible_first,incompatible_first,ES_purple,second_IAT_first_block,melody,incompatible,28,none,attribute,task_repetition,response_switch,Grüne Wesen,Gelbe Wesen,Negativ,Positiv,Liebe,NA,NA,positive,m,m,1,1489047,1489437,1489437,509,none,none,none,none,1489967
62,new,scream_first,incompatible_first,incompatible_first,ES_purple,second_IAT_first_block,melody,incompatible,29,none,attribute,task_repetition,response_switch,Grüne Wesen,Gelbe Wesen,Negativ,Positiv,Schlecht,NA,NA,negative,c,c,1,1490687,1491077,1491077,327,none,none,none,none,1491427
62,new,scream_first,incompatible_first,incompatible_first,ES_purple,second_IAT_first_block,melody,incompatible,30,none,attribute,task_repetition,response_switch,Grüne Wesen,Gelbe Wesen,Negativ,Positiv,Frieden,NA,NA,positive,m,m,1,1492156,1492546,1492547,432,none,none,none,none,1493006
62,new,scream_first,incompatible_first,incompatible_first,ES_purple,second_IAT_first_block,melody,incompatible,31,none,target,task_switch,response_switch,Grüne Wesen,Gelbe Wesen,Negativ,Positiv,IAT_green2.bmp,green,starting_melody,NA,c,c,1,1493706,1494096,1494097,453,none,none,none,none,1494576
62,new,scream_first,incompatible_first,incompatible_first,ES_purple,second_IAT_first_block,melody,incompatible,32,none,attribute,task_switch,response_switch,Grüne Wesen,Gelbe Wesen,Negativ,Positiv,Freude,NA,NA,positive,m,m,1,1495306,1495696,1495697,534,none,none,none,none,1496257
62,new,scream_first,incompatible_first,incompatible_first,ES_purple,second_IAT_first_block,melody,incompatible,33,none,target,task_switch,response_switch,Grüne Wesen,Gelbe Wesen,Negativ,Positiv,IAT_green1.bmp,green,starting_melody,NA,c,c,1,1497007,1497397,1497397,565,none,none,none,none,1497987
62,new,scream_first,incompatible_first,incompatible_first,ES_purple,second_IAT_first_block,melody,incompatible,34,none,attribute,task_switch,response_switch,Grüne Wesen,Gelbe Wesen,Negativ,Positiv,Glücklich,NA,NA,positive,m,m,1,1498779,1499167,1499167,427,none,none,none,none,1499617
62,new,scream_first,incompatible_first,incompatible_first,ES_purple,second_IAT_first_block,melody,incompatible,35,none,attribute,task_repetition,response_switch,Grüne Wesen,Gelbe Wesen,Negativ,Positiv,Bedrohung,NA,NA,negative,c,c,1,1500347,1500737,1500737,446,none,none,none,none,1501207
62,new,scream_first,incompatible_first,incompatible_first,ES_purple,second_IAT_first_block,melody,incompatible,36,none,target,task_switch,response_switch,Grüne Wesen,Gelbe Wesen,Negativ,Positiv,IAT_yellow2.bmp,yellow,ending_melody,NA,m,m,1,1501897,1502287,1502287,515,none,none,none,none,1502827
62,new,scream_first,incompatible_first,incompatible_first,ES_purple,second_IAT_first_block,melody,incompatible,37,none,target,task_repetition,response_repetition,Grüne Wesen,Gelbe Wesen,Negativ,Positiv,IAT_yellow4.bmp,yellow,ending_melody,NA,m,m,1,1503527,1503917,1503917,374,none,none,none,none,1504317
62,new,scream_first,incompatible_first,incompatible_first,ES_purple,second_IAT_first_block,melody,incompatible,38,none,attribute,task_switch,response_switch,Grüne Wesen,Gelbe Wesen,Negativ,Positiv,Versagen,NA,NA,negative,c,c,1,1505046,1505436,1505437,317,none,none,none,none,1505777
62,new,scream_first,incompatible_first,incompatible_first,ES_purple,second_IAT_first_block,melody,incompatible,39,none,target,task_switch,response_repetition,Grüne Wesen,Gelbe Wesen,Negativ,Positiv,IAT_green4.bmp,green,starting_melody,NA,c,c,1,1506476,1506866,1506867,474,none,none,none,none,1507366
62,new,scream_first,incompatible_first,incompatible_first,ES_purple,second_IAT_first_block,melody,incompatible,40,none,attribute,task_switch,response_switch,Grüne Wesen,Gelbe Wesen,Negativ,Positiv,Spaß,NA,NA,positive,m,m,1,1508086,1508476,1508477,313,none,none,none,none,1508816
62,new,scream_first,incompatible_first,incompatible_first,ES_purple,second_IAT_first_block,melody,incompatible,41,none,target,task_switch,response_switch,Grüne Wesen,Gelbe Wesen,Negativ,Positiv,IAT_green3.bmp,green,starting_melody,NA,c,c,1,1509526,1509916,1509916,486,none,none,none,none,1510426
62,new,scream_first,incompatible_first,incompatible_first,ES_purple,second_IAT_first_block,melody,incompatible,42,none,target,task_repetition,response_switch,Grüne Wesen,Gelbe Wesen,Negativ,Positiv,IAT_yellow1.bmp,yellow,ending_melody,NA,m,m,1,1511166,1511556,1511556,471,none,none,none,none,1512046
62,new,scream_first,incompatible_first,incompatible_first,ES_purple,second_IAT_first_block,melody,incompatible,43,none,target,task_repetition,response_switch,Grüne Wesen,Gelbe Wesen,Negativ,Positiv,IAT_green1.bmp,green,starting_melody,NA,c,c,1,1512746,1513136,1513136,767,none,none,none,none,1513927
62,new,scream_first,incompatible_first,incompatible_first,ES_purple,second_IAT_first_block,melody,incompatible,44,none,target,task_repetition,response_repetition,Grüne Wesen,Gelbe Wesen,Negativ,Positiv,IAT_green4.bmp,green,starting_melody,NA,c,c,1,1514627,1515017,1515017,351,none,none,none,none,1515387
62,new,scream_first,incompatible_first,incompatible_first,ES_purple,second_IAT_first_block,melody,incompatible,45,none,target,task_repetition,response_repetition,Grüne Wesen,Gelbe Wesen,Negativ,Positiv,IAT_green2.bmp,green,starting_melody,NA,c,c,1,1516097,1516487,1516487,271,none,none,none,none,1516777
62,new,scream_first,incompatible_first,incompatible_first,ES_purple,second_IAT_first_block,melody,incompatible,46,none,attribute,task_switch,response_repetition,Grüne Wesen,Gelbe Wesen,Negativ,Positiv,Böse,NA,NA,negative,c,c,1,1517506,1517896,1517897,333,none,none,none,none,1518257
62,new,scream_first,incompatible_first,incompatible_first,ES_purple,second_IAT_first_block,melody,incompatible,47,none,target,task_switch,response_switch,Grüne Wesen,Gelbe Wesen,Negativ,Positiv,IAT_yellow3.bmp,yellow,ending_melody,NA,m,m,1,1518986,1519376,1519377,749,none,none,none,none,1520146
62,new,scream_first,incompatible_first,incompatible_first,ES_purple,second_IAT_first_block,melody,incompatible,48,none,attribute,task_switch,response_repetition,Grüne Wesen,Gelbe Wesen,Negativ,Positiv,Wundervoll,NA,NA,positive,m,m,1,1520948,1521336,1521336,442,none,none,none,none,1521806
