subject_nr,contrast_group,iat_order,block_order_1,block_order_2,color_counter,which_IAT_which_block,current_contrast,current_comp,trialnr,trial_type,target_type,task_switch, response_switch,left_target,right_target,left_attribute,right_attribute,trial_target,target_color,target_role,attribute_valence,correct_response,response_first_response,correct_first_response,time_assignments_show,time_target_show,time_first_response,response_time_first_response,response_force_correct,correct_force_correct,time_force_correct,response_time_force_correct,time_logger
7,old,ending_first,incompatible_first,incompatible_first,ES_yellow,first_IAT_first_block,ending,incompatible,0,NA,target_practice,target_practice,target_practice,Gelbe Wesen,Lila Wesen,target_practice,target_practice,IAT_purple3.bmp,purple,ending_melody,target_practice,m,m,1,820322,820712,820712,782,none,none,none,none,821522
7,old,ending_first,incompatible_first,incompatible_first,ES_yellow,first_IAT_first_block,ending,incompatible,1,change,target_practice,target_practice,target_practice,Gelbe Wesen,Lila Wesen,target_practice,target_practice,IAT_yellow2.bmp,yellow,ending_scream,target_practice,c,c,1,822142,822532,822532,373,none,none,none,none,822932
7,old,ending_first,incompatible_first,incompatible_first,ES_yellow,first_IAT_first_block,ending,incompatible,2,change,target_practice,target_practice,target_practice,Gelbe Wesen,Lila Wesen,target_practice,target_practice,IAT_purple2.bmp,purple,ending_melody,target_practice,m,m,1,823542,823932,823932,366,none,none,none,none,824322
7,old,ending_first,incompatible_first,incompatible_first,ES_yellow,first_IAT_first_block,ending,incompatible,3,repetition,target_practice,target_practice,target_practice,Gelbe Wesen,Lila Wesen,target_practice,target_practice,IAT_purple4.bmp,purple,ending_melody,target_practice,m,c,0,824922,825312,825312,205,m,1,825532,454,826012
7,old,ending_first,incompatible_first,incompatible_first,ES_yellow,first_IAT_first_block,ending,incompatible,4,repetition,target_practice,target_practice,target_practice,Gelbe Wesen,Lila Wesen,target_practice,target_practice,IAT_purple1.bmp,purple,ending_melody,target_practice,m,m,1,826612,827002,827002,341,none,none,none,none,827372
7,old,ending_first,incompatible_first,incompatible_first,ES_yellow,first_IAT_first_block,ending,incompatible,5,change,target_practice,target_practice,target_practice,Gelbe Wesen,Lila Wesen,target_practice,target_practice,IAT_yellow3.bmp,yellow,ending_scream,target_practice,c,c,1,828052,828442,828442,227,none,none,none,none,828692
7,old,ending_first,incompatible_first,incompatible_first,ES_yellow,first_IAT_first_block,ending,incompatible,6,change,target_practice,target_practice,target_practice,Gelbe Wesen,Lila Wesen,target_practice,target_practice,IAT_purple1.bmp,purple,ending_melody,target_practice,m,m,1,829301,829691,829692,311,none,none,none,none,830022
7,old,ending_first,incompatible_first,incompatible_first,ES_yellow,first_IAT_first_block,ending,incompatible,7,repetition,target_practice,target_practice,target_practice,Gelbe Wesen,Lila Wesen,target_practice,target_practice,IAT_purple4.bmp,purple,ending_melody,target_practice,m,m,1,830631,831021,831022,371,none,none,none,none,831421
7,old,ending_first,incompatible_first,incompatible_first,ES_yellow,first_IAT_first_block,ending,incompatible,8,change,target_practice,target_practice,target_practice,Gelbe Wesen,Lila Wesen,target_practice,target_practice,IAT_yellow4.bmp,yellow,ending_scream,target_practice,c,c,1,832021,832411,832412,234,none,none,none,none,832671
7,old,ending_first,incompatible_first,incompatible_first,ES_yellow,first_IAT_first_block,ending,incompatible,9,repetition,target_practice,target_practice,target_practice,Gelbe Wesen,Lila Wesen,target_practice,target_practice,IAT_yellow4.bmp,yellow,ending_scream,target_practice,c,c,1,833261,833651,833652,275,none,none,none,none,833951
7,old,ending_first,incompatible_first,incompatible_first,ES_yellow,first_IAT_first_block,ending,incompatible,10,change,target_practice,target_practice,target_practice,Gelbe Wesen,Lila Wesen,target_practice,target_practice,IAT_purple2.bmp,purple,ending_melody,target_practice,m,m,1,834541,834931,834931,206,none,none,none,none,835161
7,old,ending_first,incompatible_first,incompatible_first,ES_yellow,first_IAT_first_block,ending,incompatible,11,repetition,target_practice,target_practice,target_practice,Gelbe Wesen,Lila Wesen,target_practice,target_practice,IAT_purple1.bmp,purple,ending_melody,target_practice,m,m,1,835783,836171,836171,351,none,none,none,none,836542
7,old,ending_first,incompatible_first,incompatible_first,ES_yellow,first_IAT_first_block,ending,incompatible,12,change,target_practice,target_practice,target_practice,Gelbe Wesen,Lila Wesen,target_practice,target_practice,IAT_yellow3.bmp,yellow,ending_scream,target_practice,c,m,0,837102,837492,837492,305,c,1,837812,83,837922
7,old,ending_first,incompatible_first,incompatible_first,ES_yellow,first_IAT_first_block,ending,incompatible,13,repetition,target_practice,target_practice,target_practice,Gelbe Wesen,Lila Wesen,target_practice,target_practice,IAT_yellow2.bmp,yellow,ending_scream,target_practice,c,c,1,838482,838872,838872,387,none,none,none,none,839282
7,old,ending_first,incompatible_first,incompatible_first,ES_yellow,first_IAT_first_block,ending,incompatible,14,change,target_practice,target_practice,target_practice,Gelbe Wesen,Lila Wesen,target_practice,target_practice,IAT_purple3.bmp,purple,ending_melody,target_practice,m,c,0,839862,840252,840252,358,m,1,840622,272,840922
7,old,ending_first,incompatible_first,incompatible_first,ES_yellow,first_IAT_first_block,ending,incompatible,15,repetition,target_practice,target_practice,target_practice,Gelbe Wesen,Lila Wesen,target_practice,target_practice,IAT_purple3.bmp,purple,ending_melody,target_practice,m,m,1,841482,841872,841872,420,none,none,none,none,842312
7,old,ending_first,incompatible_first,incompatible_first,ES_yellow,first_IAT_first_block,ending,incompatible,16,change,target_practice,target_practice,target_practice,Gelbe Wesen,Lila Wesen,target_practice,target_practice,IAT_yellow3.bmp,yellow,ending_scream,target_practice,c,c,1,842892,843282,843282,281,none,none,none,none,843592
7,old,ending_first,incompatible_first,incompatible_first,ES_yellow,first_IAT_first_block,ending,incompatible,17,repetition,target_practice,target_practice,target_practice,Gelbe Wesen,Lila Wesen,target_practice,target_practice,IAT_yellow1.bmp,yellow,ending_scream,target_practice,c,c,1,844161,844551,844552,299,none,none,none,none,844872
7,old,ending_first,incompatible_first,incompatible_first,ES_yellow,first_IAT_first_block,ending,incompatible,18,repetition,target_practice,target_practice,target_practice,Gelbe Wesen,Lila Wesen,target_practice,target_practice,IAT_yellow2.bmp,yellow,ending_scream,target_practice,c,c,1,845431,845821,845822,326,none,none,none,none,846171
7,old,ending_first,incompatible_first,incompatible_first,ES_yellow,first_IAT_first_block,ending,incompatible,19,repetition,target_practice,target_practice,target_practice,Gelbe Wesen,Lila Wesen,target_practice,target_practice,IAT_yellow1.bmp,yellow,ending_scream,target_practice,c,c,1,846731,847121,847122,311,none,none,none,none,847461
7,old,ending_first,incompatible_first,incompatible_first,ES_yellow,first_IAT_first_block,ending,incompatible,20,change,target_practice,target_practice,target_practice,Gelbe Wesen,Lila Wesen,target_practice,target_practice,IAT_purple2.bmp,purple,ending_melody,target_practice,m,m,1,848011,848401,848402,250,none,none,none,none,848671
