subject_nr,contrast_group,iat_order,block_order_1,block_order_2,color_counter,which_IAT_which_block,current_contrast,current_comp,trialnr,trial_type,target_type,task_switch, response_switch,left_target,right_target,left_attribute,right_attribute,trial_target,target_color,target_role,attribute_valence,correct_response,response_first_response,correct_first_response,time_assignments_show,time_target_show,time_first_response,response_time_first_response,response_force_correct,correct_force_correct,time_force_correct,response_time_force_correct,time_logger
35,old,ending_first,incompatible_first,compatible_first,ES_red,second_IAT_first_block,starting,compatible,0,none,attribute,NA,NA,Gelbe Wesen,Lila Wesen,Negativ,Positiv,Freude,NA,NA,positive,m,m,1,1339736,1340126,1340126,613,none,none,none,none,1340766
35,old,ending_first,incompatible_first,compatible_first,ES_red,second_IAT_first_block,starting,compatible,1,none,attribute,task_repetition,response_repetition,Gelbe Wesen,Lila Wesen,Negativ,Positiv,Glücklich,NA,NA,positive,m,m,1,1341496,1341886,1341886,459,none,none,none,none,1342366
35,old,ending_first,incompatible_first,compatible_first,ES_red,second_IAT_first_block,starting,compatible,2,none,attribute,task_repetition,response_switch,Gelbe Wesen,Lila Wesen,Negativ,Positiv,Versagen,NA,NA,negative,c,c,1,1343086,1343477,1343477,533,none,none,none,none,1344037
35,old,ending_first,incompatible_first,compatible_first,ES_red,second_IAT_first_block,starting,compatible,3,none,attribute,task_repetition,response_switch,Gelbe Wesen,Lila Wesen,Negativ,Positiv,Wundervoll,NA,NA,positive,m,m,1,1344767,1345157,1345157,496,none,none,none,none,1345677
35,old,ending_first,incompatible_first,compatible_first,ES_red,second_IAT_first_block,starting,compatible,4,none,target,task_switch,response_switch,Gelbe Wesen,Lila Wesen,Negativ,Positiv,IAT_yellow2.bmp,yellow,starting_scream,NA,c,c,1,1346377,1346767,1346767,1402,none,none,none,none,1348197
35,old,ending_first,incompatible_first,compatible_first,ES_red,second_IAT_first_block,starting,compatible,5,none,target,task_repetition,response_switch,Gelbe Wesen,Lila Wesen,Negativ,Positiv,IAT_purple2.bmp,purple,starting_melody,NA,m,m,1,1348967,1349357,1349357,399,none,none,none,none,1349777
35,old,ending_first,incompatible_first,compatible_first,ES_red,second_IAT_first_block,starting,compatible,6,none,attribute,task_switch,response_switch,Gelbe Wesen,Lila Wesen,Negativ,Positiv,Böse,NA,NA,negative,c,c,1,1350556,1350946,1350947,592,none,none,none,none,1351566
35,old,ending_first,incompatible_first,compatible_first,ES_red,second_IAT_first_block,starting,compatible,7,none,target,task_switch,response_repetition,Gelbe Wesen,Lila Wesen,Negativ,Positiv,IAT_yellow4.bmp,yellow,starting_scream,NA,c,c,1,1352308,1352696,1352697,442,none,none,none,none,1353166
35,old,ending_first,incompatible_first,compatible_first,ES_red,second_IAT_first_block,starting,compatible,8,none,target,task_repetition,response_repetition,Gelbe Wesen,Lila Wesen,Negativ,Positiv,IAT_yellow1.bmp,yellow,starting_scream,NA,c,c,1,1353866,1354256,1354256,401,none,none,none,none,1354676
35,old,ending_first,incompatible_first,compatible_first,ES_red,second_IAT_first_block,starting,compatible,9,none,target,task_repetition,response_repetition,Gelbe Wesen,Lila Wesen,Negativ,Positiv,IAT_yellow3.bmp,yellow,starting_scream,NA,c,c,1,1355386,1355776,1355776,369,none,none,none,none,1356166
35,old,ending_first,incompatible_first,compatible_first,ES_red,second_IAT_first_block,starting,compatible,10,none,attribute,task_switch,response_repetition,Gelbe Wesen,Lila Wesen,Negativ,Positiv,Bedrohung,NA,NA,negative,c,c,1,1356886,1357276,1357276,495,none,none,none,none,1357796
35,old,ending_first,incompatible_first,compatible_first,ES_red,second_IAT_first_block,starting,compatible,11,none,attribute,task_repetition,response_repetition,Gelbe Wesen,Lila Wesen,Negativ,Positiv,Schmerz,NA,NA,negative,c,c,1,1358546,1358936,1358936,734,none,none,none,none,1359696
35,old,ending_first,incompatible_first,compatible_first,ES_red,second_IAT_first_block,starting,compatible,12,none,target,task_switch,response_repetition,Gelbe Wesen,Lila Wesen,Negativ,Positiv,IAT_yellow4.bmp,yellow,starting_scream,NA,c,c,1,1360406,1360797,1360797,435,none,none,none,none,1361257
35,old,ending_first,incompatible_first,compatible_first,ES_red,second_IAT_first_block,starting,compatible,13,none,attribute,task_switch,response_switch,Gelbe Wesen,Lila Wesen,Negativ,Positiv,Liebe,NA,NA,positive,m,m,1,1361987,1362377,1362377,782,none,none,none,none,1363187
35,old,ending_first,incompatible_first,compatible_first,ES_red,second_IAT_first_block,starting,compatible,14,none,target,task_switch,response_switch,Gelbe Wesen,Lila Wesen,Negativ,Positiv,IAT_yellow3.bmp,yellow,starting_scream,NA,c,c,1,1363887,1364276,1364277,1103,none,none,none,none,1365407
35,old,ending_first,incompatible_first,compatible_first,ES_red,second_IAT_first_block,starting,compatible,15,none,attribute,task_switch,response_switch,Gelbe Wesen,Lila Wesen,Negativ,Positiv,Frieden,NA,NA,positive,m,m,1,1366196,1366586,1366587,592,none,none,none,none,1367206
35,old,ending_first,incompatible_first,compatible_first,ES_red,second_IAT_first_block,starting,compatible,16,none,target,task_switch,response_switch,Gelbe Wesen,Lila Wesen,Negativ,Positiv,IAT_yellow1.bmp,yellow,starting_scream,NA,c,c,1,1367916,1368306,1368307,633,none,none,none,none,1368966
35,old,ending_first,incompatible_first,compatible_first,ES_red,second_IAT_first_block,starting,compatible,17,none,attribute,task_switch,response_switch,Gelbe Wesen,Lila Wesen,Negativ,Positiv,Freude,NA,NA,positive,m,m,1,1369696,1370086,1370086,478,none,none,none,none,1370586
35,old,ending_first,incompatible_first,compatible_first,ES_red,second_IAT_first_block,starting,compatible,18,none,target,task_switch,response_repetition,Gelbe Wesen,Lila Wesen,Negativ,Positiv,IAT_purple3.bmp,purple,starting_melody,NA,m,m,1,1371346,1371736,1371736,587,none,none,none,none,1372346
35,old,ending_first,incompatible_first,compatible_first,ES_red,second_IAT_first_block,starting,compatible,19,none,attribute,task_switch,response_switch,Gelbe Wesen,Lila Wesen,Negativ,Positiv,Schlecht,NA,NA,negative,c,c,1,1373126,1373516,1373516,603,none,none,none,none,1374146
35,old,ending_first,incompatible_first,compatible_first,ES_red,second_IAT_first_block,starting,compatible,20,none,target,task_switch,response_switch,Gelbe Wesen,Lila Wesen,Negativ,Positiv,IAT_purple4.bmp,purple,starting_melody,NA,m,m,1,1374918,1375306,1375306,575,none,none,none,none,1375906
35,old,ending_first,incompatible_first,compatible_first,ES_red,second_IAT_first_block,starting,compatible,21,none,attribute,task_switch,response_repetition,Gelbe Wesen,Lila Wesen,Negativ,Positiv,Spaß,NA,NA,positive,m,m,1,1376636,1377026,1377026,442,none,none,none,none,1377496
35,old,ending_first,incompatible_first,compatible_first,ES_red,second_IAT_first_block,starting,compatible,22,none,attribute,task_repetition,response_switch,Gelbe Wesen,Lila Wesen,Negativ,Positiv,Trauer,NA,NA,negative,c,c,1,1378227,1378617,1378617,470,none,none,none,none,1379107
35,old,ending_first,incompatible_first,compatible_first,ES_red,second_IAT_first_block,starting,compatible,23,none,attribute,task_repetition,response_switch,Gelbe Wesen,Lila Wesen,Negativ,Positiv,Wundervoll,NA,NA,positive,m,m,1,1379836,1380226,1380227,528,none,none,none,none,1380776
35,old,ending_first,incompatible_first,compatible_first,ES_red,second_IAT_first_block,starting,compatible,24,none,attribute,task_repetition,response_switch,Gelbe Wesen,Lila Wesen,Negativ,Positiv,Schmerz,NA,NA,negative,c,c,1,1381516,1381906,1381907,542,none,none,none,none,1382476
35,old,ending_first,incompatible_first,compatible_first,ES_red,second_IAT_first_block,starting,compatible,25,none,target,task_switch,response_repetition,Gelbe Wesen,Lila Wesen,Negativ,Positiv,IAT_yellow2.bmp,yellow,starting_scream,NA,c,c,1,1383176,1383566,1383567,761,none,none,none,none,1384356
35,old,ending_first,incompatible_first,compatible_first,ES_red,second_IAT_first_block,starting,compatible,26,none,target,task_repetition,response_switch,Gelbe Wesen,Lila Wesen,Negativ,Positiv,IAT_purple1.bmp,purple,starting_melody,NA,m,m,1,1385056,1385446,1385446,356,none,none,none,none,1385826
35,old,ending_first,incompatible_first,compatible_first,ES_red,second_IAT_first_block,starting,compatible,27,none,target,task_repetition,response_repetition,Gelbe Wesen,Lila Wesen,Negativ,Positiv,IAT_purple3.bmp,purple,starting_melody,NA,m,m,1,1386537,1386926,1386926,403,none,none,none,none,1387356
35,old,ending_first,incompatible_first,compatible_first,ES_red,second_IAT_first_block,starting,compatible,28,none,target,task_repetition,response_switch,Gelbe Wesen,Lila Wesen,Negativ,Positiv,IAT_yellow4.bmp,yellow,starting_scream,NA,c,c,1,1388076,1388466,1388466,388,none,none,none,none,1388876
35,old,ending_first,incompatible_first,compatible_first,ES_red,second_IAT_first_block,starting,compatible,29,none,target,task_repetition,response_repetition,Gelbe Wesen,Lila Wesen,Negativ,Positiv,IAT_yellow1.bmp,yellow,starting_scream,NA,c,c,1,1389586,1389976,1389976,407,none,none,none,none,1390406
35,old,ending_first,incompatible_first,compatible_first,ES_red,second_IAT_first_block,starting,compatible,30,none,target,task_repetition,response_switch,Gelbe Wesen,Lila Wesen,Negativ,Positiv,IAT_purple2.bmp,purple,starting_melody,NA,m,m,1,1391106,1391496,1391496,374,none,none,none,none,1391896
35,old,ending_first,incompatible_first,compatible_first,ES_red,second_IAT_first_block,starting,compatible,31,none,target,task_repetition,response_repetition,Gelbe Wesen,Lila Wesen,Negativ,Positiv,IAT_purple4.bmp,purple,starting_melody,NA,m,m,1,1392606,1392996,1392996,355,none,none,none,none,1393376
35,old,ending_first,incompatible_first,compatible_first,ES_red,second_IAT_first_block,starting,compatible,32,none,target,task_repetition,response_repetition,Gelbe Wesen,Lila Wesen,Negativ,Positiv,IAT_purple1.bmp,purple,starting_melody,NA,m,m,1,1394095,1394485,1394486,337,none,none,none,none,1394846
35,old,ending_first,incompatible_first,compatible_first,ES_red,second_IAT_first_block,starting,compatible,33,none,attribute,task_switch,response_repetition,Gelbe Wesen,Lila Wesen,Negativ,Positiv,Freude,NA,NA,positive,m,m,1,1395615,1396006,1396007,550,none,none,none,none,1396576
35,old,ending_first,incompatible_first,compatible_first,ES_red,second_IAT_first_block,starting,compatible,34,none,target,task_switch,response_repetition,Gelbe Wesen,Lila Wesen,Negativ,Positiv,IAT_purple1.bmp,purple,starting_melody,NA,m,m,1,1397358,1397746,1397747,387,none,none,none,none,1398156
35,old,ending_first,incompatible_first,compatible_first,ES_red,second_IAT_first_block,starting,compatible,35,none,target,task_repetition,response_switch,Gelbe Wesen,Lila Wesen,Negativ,Positiv,IAT_yellow2.bmp,yellow,starting_scream,NA,c,c,1,1398856,1399246,1399246,402,none,none,none,none,1399676
35,old,ending_first,incompatible_first,compatible_first,ES_red,second_IAT_first_block,starting,compatible,36,none,attribute,task_switch,response_repetition,Gelbe Wesen,Lila Wesen,Negativ,Positiv,Böse,NA,NA,negative,c,c,1,1400407,1400796,1400796,464,none,none,none,none,1401286
35,old,ending_first,incompatible_first,compatible_first,ES_red,second_IAT_first_block,starting,compatible,37,none,attribute,task_repetition,response_repetition,Gelbe Wesen,Lila Wesen,Negativ,Positiv,Schlecht,NA,NA,negative,c,c,1,1402016,1402406,1402406,429,none,none,none,none,1402856
35,old,ending_first,incompatible_first,compatible_first,ES_red,second_IAT_first_block,starting,compatible,38,none,target,task_switch,response_switch,Gelbe Wesen,Lila Wesen,Negativ,Positiv,IAT_purple4.bmp,purple,starting_melody,NA,m,m,1,1403566,1403956,1403956,544,none,none,none,none,1404526
35,old,ending_first,incompatible_first,compatible_first,ES_red,second_IAT_first_block,starting,compatible,39,none,attribute,task_switch,response_repetition,Gelbe Wesen,Lila Wesen,Negativ,Positiv,Glücklich,NA,NA,positive,m,m,1,1405256,1405646,1405646,491,none,none,none,none,1406156
35,old,ending_first,incompatible_first,compatible_first,ES_red,second_IAT_first_block,starting,compatible,40,none,target,task_switch,response_repetition,Gelbe Wesen,Lila Wesen,Negativ,Positiv,IAT_purple3.bmp,purple,starting_melody,NA,m,m,1,1406866,1407256,1407256,372,none,none,none,none,1407656
35,old,ending_first,incompatible_first,compatible_first,ES_red,second_IAT_first_block,starting,compatible,41,none,target,task_repetition,response_switch,Gelbe Wesen,Lila Wesen,Negativ,Positiv,IAT_yellow3.bmp,yellow,starting_scream,NA,c,c,1,1408375,1408765,1408766,384,none,none,none,none,1409176
35,old,ending_first,incompatible_first,compatible_first,ES_red,second_IAT_first_block,starting,compatible,42,none,attribute,task_switch,response_repetition,Gelbe Wesen,Lila Wesen,Negativ,Positiv,Trauer,NA,NA,negative,c,c,1,1409895,1410285,1410286,500,none,none,none,none,1410806
35,old,ending_first,incompatible_first,compatible_first,ES_red,second_IAT_first_block,starting,compatible,43,none,target,task_switch,response_switch,Gelbe Wesen,Lila Wesen,Negativ,Positiv,IAT_purple2.bmp,purple,starting_melody,NA,m,m,1,1411545,1411935,1411936,509,none,none,none,none,1412465
35,old,ending_first,incompatible_first,compatible_first,ES_red,second_IAT_first_block,starting,compatible,44,none,attribute,task_switch,response_switch,Gelbe Wesen,Lila Wesen,Negativ,Positiv,Versagen,NA,NA,negative,c,c,1,1413196,1413586,1413586,607,none,none,none,none,1414216
35,old,ending_first,incompatible_first,compatible_first,ES_red,second_IAT_first_block,starting,compatible,45,none,attribute,task_repetition,response_repetition,Gelbe Wesen,Lila Wesen,Negativ,Positiv,Bedrohung,NA,NA,negative,c,c,1,1414946,1415336,1415336,473,none,none,none,none,1415836
35,old,ending_first,incompatible_first,compatible_first,ES_red,second_IAT_first_block,starting,compatible,46,none,attribute,task_repetition,response_switch,Gelbe Wesen,Lila Wesen,Negativ,Positiv,Liebe,NA,NA,positive,m,m,1,1416576,1416966,1416966,508,none,none,none,none,1417496
35,old,ending_first,incompatible_first,compatible_first,ES_red,second_IAT_first_block,starting,compatible,47,none,attribute,task_repetition,response_repetition,Gelbe Wesen,Lila Wesen,Negativ,Positiv,Spaß,NA,NA,positive,m,m,1,1418286,1418676,1418676,559,none,none,none,none,1419256
35,old,ending_first,incompatible_first,compatible_first,ES_red,second_IAT_first_block,starting,compatible,48,none,attribute,task_repetition,response_repetition,Gelbe Wesen,Lila Wesen,Negativ,Positiv,Frieden,NA,NA,positive,m,m,1,1420028,1420416,1420416,462,none,none,none,none,1420906
