subject_nr,contrast_group,iat_order,block_order_1,block_order_2,color_counter,which_IAT_which_block,current_contrast,current_comp,trialnr,trial_type,target_type,task_switch, response_switch,left_target,right_target,left_attribute,right_attribute,trial_target,target_color,target_role,attribute_valence,correct_response,response_first_response,correct_first_response,time_assignments_show,time_target_show,time_first_response,response_time_first_response,response_force_correct,correct_force_correct,time_force_correct,response_time_force_correct,time_logger
7,old,ending_first,incompatible_first,incompatible_first,ES_yellow,first_IAT_second_block,ending,compatible,0,none,attribute,NA,NA,Lila Wesen,Gelbe Wesen,Negativ,Positiv,Trauer,NA,NA,negative,c,C,1,1313686,1314076,1314076,272,none,none,none,none,1314376
7,old,ending_first,incompatible_first,incompatible_first,ES_yellow,first_IAT_second_block,ending,compatible,1,none,target,task_switch,response_switch,Lila Wesen,Gelbe Wesen,Negativ,Positiv,IAT_yellow3.bmp,yellow,ending_scream,NA,m,M,1,1315086,1315476,1315476,7,none,none,none,none,1315506
7,old,ending_first,incompatible_first,incompatible_first,ES_yellow,first_IAT_second_block,ending,compatible,2,none,target,task_repetition,response_repetition,Lila Wesen,Gelbe Wesen,Negativ,Positiv,IAT_yellow1.bmp,yellow,ending_scream,NA,m,M,1,1316206,1316596,1316596,262,none,none,none,none,1316886
7,old,ending_first,incompatible_first,incompatible_first,ES_yellow,first_IAT_second_block,ending,compatible,3,none,attribute,task_switch,response_switch,Lila Wesen,Gelbe Wesen,Negativ,Positiv,Trauer,NA,NA,negative,c,M,0,1317606,1317996,1317996,178,C,1,1318186,158,1318366
7,old,ending_first,incompatible_first,incompatible_first,ES_yellow,first_IAT_second_block,ending,compatible,4,none,attribute,task_repetition,response_switch,Lila Wesen,Gelbe Wesen,Negativ,Positiv,Wundervoll,NA,NA,positive,m,C,0,1319155,1319545,1319546,53,M,1,1319616,228,1319866
7,old,ending_first,incompatible_first,incompatible_first,ES_yellow,first_IAT_second_block,ending,compatible,5,none,attribute,task_repetition,response_repetition,Lila Wesen,Gelbe Wesen,Negativ,Positiv,Frieden,NA,NA,positive,m,C,0,1320635,1321025,1321026,276,M,1,1321316,273,1321615
7,old,ending_first,incompatible_first,incompatible_first,ES_yellow,first_IAT_second_block,ending,compatible,6,none,attribute,task_repetition,response_switch,Lila Wesen,Gelbe Wesen,Negativ,Positiv,Versagen,NA,NA,negative,c,M,0,1322418,1322815,1322816,178,C,1,1323006,120,1323145
7,old,ending_first,incompatible_first,incompatible_first,ES_yellow,first_IAT_second_block,ending,compatible,7,none,target,task_switch,response_switch,Lila Wesen,Gelbe Wesen,Negativ,Positiv,IAT_yellow2.bmp,yellow,ending_scream,NA,m,C,0,1323905,1324295,1324295,62,M,1,1324365,237,1324625
7,old,ending_first,incompatible_first,incompatible_first,ES_yellow,first_IAT_second_block,ending,compatible,8,none,attribute,task_switch,response_repetition,Lila Wesen,Gelbe Wesen,Negativ,Positiv,Glücklich,NA,NA,positive,m,M,1,1325345,1325736,1325736,161,none,none,none,none,1325916
7,old,ending_first,incompatible_first,incompatible_first,ES_yellow,first_IAT_second_block,ending,compatible,9,none,attribute,task_repetition,response_repetition,Lila Wesen,Gelbe Wesen,Negativ,Positiv,Liebe,NA,NA,positive,m,C,0,1326636,1327026,1327026,161,M,1,1327196,219,1327436
7,old,ending_first,incompatible_first,incompatible_first,ES_yellow,first_IAT_second_block,ending,compatible,10,none,target,task_switch,response_switch,Lila Wesen,Gelbe Wesen,Negativ,Positiv,IAT_purple1.bmp,purple,ending_melody,NA,c,M,0,1328136,1328526,1328526,256,C,1,1328796,26,1328846
7,old,ending_first,incompatible_first,incompatible_first,ES_yellow,first_IAT_second_block,ending,compatible,11,none,target,task_repetition,response_repetition,Lila Wesen,Gelbe Wesen,Negativ,Positiv,IAT_purple4.bmp,purple,ending_melody,NA,c,C,1,1329546,1329936,1329936,233,none,none,none,none,1330196
7,old,ending_first,incompatible_first,incompatible_first,ES_yellow,first_IAT_second_block,ending,compatible,12,none,attribute,task_switch,response_switch,Lila Wesen,Gelbe Wesen,Negativ,Positiv,Spaß,NA,NA,positive,m,M,1,1330916,1331306,1331306,201,none,none,none,none,1331536
7,old,ending_first,incompatible_first,incompatible_first,ES_yellow,first_IAT_second_block,ending,compatible,13,none,target,task_switch,response_repetition,Lila Wesen,Gelbe Wesen,Negativ,Positiv,IAT_yellow4.bmp,yellow,ending_scream,NA,m,M,1,1332246,1332636,1332636,1311,none,none,none,none,1333966
7,old,ending_first,incompatible_first,incompatible_first,ES_yellow,first_IAT_second_block,ending,compatible,14,none,target,task_repetition,response_switch,Lila Wesen,Gelbe Wesen,Negativ,Positiv,IAT_purple3.bmp,purple,ending_melody,NA,c,M,0,1334655,1335045,1335046,46,C,1,1335106,962,1336095
7,old,ending_first,incompatible_first,incompatible_first,ES_yellow,first_IAT_second_block,ending,compatible,15,none,attribute,task_switch,response_repetition,Lila Wesen,Gelbe Wesen,Negativ,Positiv,Böse,NA,NA,negative,c,M,0,1336805,1337195,1337195,61,C,1,1337266,23,1337315
7,old,ending_first,incompatible_first,incompatible_first,ES_yellow,first_IAT_second_block,ending,compatible,16,none,attribute,task_repetition,response_repetition,Lila Wesen,Gelbe Wesen,Negativ,Positiv,Schmerz,NA,NA,negative,c,C,1,1338025,1338415,1338415,24,none,none,none,none,1338465
7,old,ending_first,incompatible_first,incompatible_first,ES_yellow,first_IAT_second_block,ending,compatible,17,none,attribute,task_repetition,response_repetition,Lila Wesen,Gelbe Wesen,Negativ,Positiv,Bedrohung,NA,NA,negative,c,C,1,1339185,1339575,1339575,6,none,none,none,none,1339605
7,old,ending_first,incompatible_first,incompatible_first,ES_yellow,first_IAT_second_block,ending,compatible,18,none,target,task_switch,response_repetition,Lila Wesen,Gelbe Wesen,Negativ,Positiv,IAT_purple2.bmp,purple,ending_melody,NA,c,M,0,1340375,1340765,1340765,517,C,1,1341295,34,1341355
7,old,ending_first,incompatible_first,incompatible_first,ES_yellow,first_IAT_second_block,ending,compatible,19,none,target,task_repetition,response_switch,Lila Wesen,Gelbe Wesen,Negativ,Positiv,IAT_yellow2.bmp,yellow,ending_scream,NA,m,M,1,1342115,1342505,1342505,0,none,none,none,none,1342525
7,old,ending_first,incompatible_first,incompatible_first,ES_yellow,first_IAT_second_block,ending,compatible,20,none,attribute,task_switch,response_switch,Lila Wesen,Gelbe Wesen,Negativ,Positiv,Schlecht,NA,NA,negative,c,M,0,1343318,1343706,1343706,73,C,1,1343796,747,1344566
7,old,ending_first,incompatible_first,incompatible_first,ES_yellow,first_IAT_second_block,ending,compatible,21,none,attribute,task_repetition,response_switch,Lila Wesen,Gelbe Wesen,Negativ,Positiv,Freude,NA,NA,positive,m,C,0,1345286,1345676,1345676,89,M,1,1345776,9,1345806
7,old,ending_first,incompatible_first,incompatible_first,ES_yellow,first_IAT_second_block,ending,compatible,22,none,target,task_switch,response_repetition,Lila Wesen,Gelbe Wesen,Negativ,Positiv,IAT_yellow1.bmp,yellow,ending_scream,NA,m,M,1,1346506,1346896,1346896,20,none,none,none,none,1346936
7,old,ending_first,incompatible_first,incompatible_first,ES_yellow,first_IAT_second_block,ending,compatible,23,none,target,task_repetition,response_repetition,Lila Wesen,Gelbe Wesen,Negativ,Positiv,IAT_yellow4.bmp,yellow,ending_scream,NA,m,M,1,1347625,1348015,1348016,109,none,none,none,none,1348146
7,old,ending_first,incompatible_first,incompatible_first,ES_yellow,first_IAT_second_block,ending,compatible,24,none,target,task_repetition,response_repetition,Lila Wesen,Gelbe Wesen,Negativ,Positiv,IAT_yellow3.bmp,yellow,ending_scream,NA,m,C,0,1348835,1349225,1349226,194,M,1,1349436,1161,1350615
7,old,ending_first,incompatible_first,incompatible_first,ES_yellow,first_IAT_second_block,ending,compatible,25,none,attribute,task_switch,response_repetition,Lila Wesen,Gelbe Wesen,Negativ,Positiv,Spaß,NA,NA,positive,m,C,0,1351325,1351715,1351715,78,M,1,1351806,218,1352045
7,old,ending_first,incompatible_first,incompatible_first,ES_yellow,first_IAT_second_block,ending,compatible,26,none,attribute,task_repetition,response_switch,Lila Wesen,Gelbe Wesen,Negativ,Positiv,Versagen,NA,NA,negative,c,C,1,1352765,1353155,1353155,179,none,none,none,none,1353355
7,old,ending_first,incompatible_first,incompatible_first,ES_yellow,first_IAT_second_block,ending,compatible,27,none,target,task_switch,response_repetition,Lila Wesen,Gelbe Wesen,Negativ,Positiv,IAT_purple1.bmp,purple,ending_melody,NA,c,C,1,1354055,1354445,1354445,71,none,none,none,none,1354535
7,old,ending_first,incompatible_first,incompatible_first,ES_yellow,first_IAT_second_block,ending,compatible,28,none,attribute,task_switch,response_switch,Lila Wesen,Gelbe Wesen,Negativ,Positiv,Glücklich,NA,NA,positive,m,M,1,1355265,1355655,1355655,29,none,none,none,none,1355705
7,old,ending_first,incompatible_first,incompatible_first,ES_yellow,first_IAT_second_block,ending,compatible,29,none,attribute,task_repetition,response_repetition,Lila Wesen,Gelbe Wesen,Negativ,Positiv,Wundervoll,NA,NA,positive,m,C,0,1356435,1356825,1356825,163,M,1,1357005,154,1357185
7,old,ending_first,incompatible_first,incompatible_first,ES_yellow,first_IAT_second_block,ending,compatible,30,none,attribute,task_repetition,response_switch,Lila Wesen,Gelbe Wesen,Negativ,Positiv,Bedrohung,NA,NA,negative,c,C,1,1357935,1358325,1358325,121,none,none,none,none,1358465
7,old,ending_first,incompatible_first,incompatible_first,ES_yellow,first_IAT_second_block,ending,compatible,31,none,attribute,task_repetition,response_switch,Lila Wesen,Gelbe Wesen,Negativ,Positiv,Freude,NA,NA,positive,m,M,1,1359185,1359575,1359575,104,none,none,none,none,1359705
7,old,ending_first,incompatible_first,incompatible_first,ES_yellow,first_IAT_second_block,ending,compatible,32,none,target,task_switch,response_switch,Lila Wesen,Gelbe Wesen,Negativ,Positiv,IAT_purple4.bmp,purple,ending_melody,NA,c,C,1,1360405,1360796,1360796,174,none,none,none,none,1360996
7,old,ending_first,incompatible_first,incompatible_first,ES_yellow,first_IAT_second_block,ending,compatible,33,none,target,task_repetition,response_repetition,Lila Wesen,Gelbe Wesen,Negativ,Positiv,IAT_purple3.bmp,purple,ending_melody,NA,c,M,0,1361736,1362125,1362126,67,C,1,1362206,155,1362386
7,old,ending_first,incompatible_first,incompatible_first,ES_yellow,first_IAT_second_block,ending,compatible,34,none,target,task_repetition,response_repetition,Lila Wesen,Gelbe Wesen,Negativ,Positiv,IAT_purple2.bmp,purple,ending_melody,NA,c,M,0,1363127,1363525,1363526,30,C,1,1363566,176,1363765
7,old,ending_first,incompatible_first,incompatible_first,ES_yellow,first_IAT_second_block,ending,compatible,35,none,attribute,task_switch,response_repetition,Lila Wesen,Gelbe Wesen,Negativ,Positiv,Böse,NA,NA,negative,c,M,0,1364475,1364865,1364865,121,C,1,1364996,176,1365195
7,old,ending_first,incompatible_first,incompatible_first,ES_yellow,first_IAT_second_block,ending,compatible,36,none,target,task_switch,response_switch,Lila Wesen,Gelbe Wesen,Negativ,Positiv,IAT_yellow1.bmp,yellow,ending_scream,NA,m,M,1,1365895,1366285,1366285,97,none,none,none,none,1366405
7,old,ending_first,incompatible_first,incompatible_first,ES_yellow,first_IAT_second_block,ending,compatible,37,none,attribute,task_switch,response_repetition,Lila Wesen,Gelbe Wesen,Negativ,Positiv,Liebe,NA,NA,positive,m,C,0,1367125,1367515,1367515,130,M,1,1367655,116,1367795
7,old,ending_first,incompatible_first,incompatible_first,ES_yellow,first_IAT_second_block,ending,compatible,38,none,target,task_switch,response_switch,Lila Wesen,Gelbe Wesen,Negativ,Positiv,IAT_purple2.bmp,purple,ending_melody,NA,c,C,1,1368485,1368875,1368875,126,none,none,none,none,1369025
7,old,ending_first,incompatible_first,incompatible_first,ES_yellow,first_IAT_second_block,ending,compatible,39,none,attribute,task_switch,response_switch,Lila Wesen,Gelbe Wesen,Negativ,Positiv,Frieden,NA,NA,positive,m,M,1,1369745,1370135,1370135,44,none,none,none,none,1370205
7,old,ending_first,incompatible_first,incompatible_first,ES_yellow,first_IAT_second_block,ending,compatible,40,none,target,task_switch,response_repetition,Lila Wesen,Gelbe Wesen,Negativ,Positiv,IAT_yellow4.bmp,yellow,ending_scream,NA,m,C,0,1370895,1371285,1371285,34,M,1,1371335,200,1371555
7,old,ending_first,incompatible_first,incompatible_first,ES_yellow,first_IAT_second_block,ending,compatible,41,none,target,task_repetition,response_switch,Lila Wesen,Gelbe Wesen,Negativ,Positiv,IAT_purple1.bmp,purple,ending_melody,NA,c,C,1,1372245,1372635,1372635,73,none,none,none,none,1372735
7,old,ending_first,incompatible_first,incompatible_first,ES_yellow,first_IAT_second_block,ending,compatible,42,none,target,task_repetition,response_switch,Lila Wesen,Gelbe Wesen,Negativ,Positiv,IAT_yellow3.bmp,yellow,ending_scream,NA,m,C,0,1373435,1373825,1373825,240,M,1,1374075,2389,1376485
7,old,ending_first,incompatible_first,incompatible_first,ES_yellow,first_IAT_second_block,ending,compatible,43,none,target,task_repetition,response_switch,Lila Wesen,Gelbe Wesen,Negativ,Positiv,IAT_purple3.bmp,purple,ending_melody,NA,c,M,0,1377214,1377604,1377605,219,C,1,1377835,196,1378054
7,old,ending_first,incompatible_first,incompatible_first,ES_yellow,first_IAT_second_block,ending,compatible,44,none,target,task_repetition,response_switch,Lila Wesen,Gelbe Wesen,Negativ,Positiv,IAT_yellow2.bmp,yellow,ending_scream,NA,m,C,0,1378755,1379145,1379145,397,M,1,1379556,462,1380045
7,old,ending_first,incompatible_first,incompatible_first,ES_yellow,first_IAT_second_block,ending,compatible,45,none,attribute,task_switch,response_switch,Lila Wesen,Gelbe Wesen,Negativ,Positiv,Trauer,NA,NA,negative,c,M,0,1380765,1381155,1381155,159,C,1,1381325,107,1381455
7,old,ending_first,incompatible_first,incompatible_first,ES_yellow,first_IAT_second_block,ending,compatible,46,none,target,task_switch,response_repetition,Lila Wesen,Gelbe Wesen,Negativ,Positiv,IAT_purple4.bmp,purple,ending_melody,NA,c,C,1,1382215,1382605,1382605,160,none,none,none,none,1382785
7,old,ending_first,incompatible_first,incompatible_first,ES_yellow,first_IAT_second_block,ending,compatible,47,none,attribute,task_switch,response_repetition,Lila Wesen,Gelbe Wesen,Negativ,Positiv,Schlecht,NA,NA,negative,c,C,1,1383598,1383995,1383995,256,none,none,none,none,1384275
7,old,ending_first,incompatible_first,incompatible_first,ES_yellow,first_IAT_second_block,ending,compatible,48,none,attribute,task_repetition,response_repetition,Lila Wesen,Gelbe Wesen,Negativ,Positiv,Schmerz,NA,NA,negative,c,C,1,1385005,1385395,1385395,5,none,none,none,none,1385425
