subject_nr,block,trialnr,trial_target,trial_prime,prime_color,prime_role,prime_us,prime_relation,correct_response,target_valence,prime_valence,color_counter,correct_first_response,response_first_response,response_time_first_response,fixation_show,prime_show,target_show
4,first,0,gerecht,IAT_red4.bmp,red,ending_scream,scream,ending,m,positive,positive,ES_red,1,m,864,1400353,1400857,1401061
4,first,1,heiter,IAT_yellow1.bmp,yellow,starting_scream,scream,starting,m,positive,negative,ES_red,1,m,550,1403002,1403506,1403710
4,first,2,ehrlich,IAT_purple1.bmp,purple,starting_melody,melody,starting,m,positive,positive,ES_red,1,m,470,1405335,1405839,1406043
4,first,3,human,IAT_purple2.bmp,purple,starting_melody,melody,starting,m,positive,positive,ES_red,1,m,473,1407587,1408091,1408295
4,first,4,streng,IAT_green4.bmp,green,ending_melody,melody,ending,c,negative,negative,ES_red,1,c,387,1409843,1410348,1410553
4,first,5,brutal,IAT_yellow2.bmp,yellow,starting_scream,scream,starting,c,negative,negative,ES_red,1,c,474,1412016,1412521,1412725
4,first,6,lustig,IAT_purple4.bmp,purple,starting_melody,melody,starting,m,positive,positive,ES_red,1,m,409,1414274,1414778,1414982
4,first,7,schön,IAT_yellow4.bmp,yellow,starting_scream,scream,starting,m,positive,negative,ES_red,1,m,444,1416465,1416970,1417174
4,first,8,feige,IAT_red2.bmp,red,ending_scream,scream,ending,c,negative,positive,ES_red,1,c,580,1418694,1419198,1419402
4,first,9,kaputt,IAT_red4.bmp,red,ending_scream,scream,ending,c,negative,positive,ES_red,1,c,424,1421056,1421560,1421764
4,first,10,teuer,IAT_yellow2.bmp,yellow,starting_scream,scream,starting,c,negative,negative,ES_red,0,m,433,1423262,1423766,1423970
4,first,11,falsch,IAT_purple1.bmp,purple,starting_melody,melody,starting,c,negative,positive,ES_red,1,c,558,1425979,1426483,1426687
4,first,12,krank,IAT_red1.bmp,red,ending_scream,scream,ending,c,negative,positive,ES_red,1,c,395,1428319,1428823,1429027
4,first,13,gesund,IAT_red1.bmp,red,ending_scream,scream,ending,m,positive,positive,ES_red,1,m,742,1430496,1431001,1431205
4,first,14,sonnig,IAT_purple2.bmp,purple,starting_melody,melody,starting,m,positive,positive,ES_red,1,m,517,1433021,1433525,1433729
4,first,15,ehrlich,IAT_purple1.bmp,purple,starting_melody,melody,starting,m,positive,positive,ES_red,1,m,603,1435320,1435824,1436028
4,first,16,witzig,IAT_yellow1.bmp,yellow,starting_scream,scream,starting,m,positive,negative,ES_red,0,c,493,1437706,1438210,1438414
4,first,17,brutal,IAT_green3.bmp,green,ending_melody,melody,ending,c,negative,negative,ES_red,1,c,685,1440481,1440986,1441190
4,first,18,munter,IAT_green4.bmp,green,ending_melody,melody,ending,m,positive,negative,ES_red,1,m,576,1442948,1443453,1443658
4,first,19,teuer,IAT_red4.bmp,red,ending_scream,scream,ending,c,negative,positive,ES_red,1,c,634,1445308,1445813,1446017
4,first,20,kaputt,IAT_purple3.bmp,purple,starting_melody,melody,starting,c,negative,positive,ES_red,1,c,530,1447725,1448229,1448433
4,first,21,lustig,IAT_green3.bmp,green,ending_melody,melody,ending,m,positive,negative,ES_red,1,m,455,1450039,1450544,1450748
4,first,22,brutal,IAT_yellow4.bmp,yellow,starting_scream,scream,starting,c,negative,negative,ES_red,1,c,587,1452277,1452782,1452986
4,first,23,falsch,IAT_green4.bmp,green,ending_melody,melody,ending,c,negative,negative,ES_red,1,c,526,1454646,1455151,1455355
4,first,24,gesund,IAT_purple3.bmp,purple,starting_melody,melody,starting,m,positive,positive,ES_red,1,m,665,1456956,1457460,1457664
4,first,25,munter,IAT_green1.bmp,green,ending_melody,melody,ending,m,positive,negative,ES_red,1,m,758,1459404,1459908,1460112
4,first,26,morsch,IAT_yellow4.bmp,yellow,starting_scream,scream,starting,c,negative,negative,ES_red,1,c,566,1461945,1462450,1462654
4,first,27,geizig,IAT_yellow2.bmp,yellow,starting_scream,scream,starting,c,negative,negative,ES_red,1,c,661,1464296,1464800,1465004
4,first,28,feige,IAT_red4.bmp,red,ending_scream,scream,ending,c,negative,positive,ES_red,1,c,704,1466740,1467244,1467448
4,first,29,gesund,IAT_red2.bmp,red,ending_scream,scream,ending,m,positive,positive,ES_red,1,m,506,1469227,1469731,1469935
4,first,30,streng,IAT_yellow2.bmp,yellow,starting_scream,scream,starting,c,negative,negative,ES_red,1,c,524,1471516,1472020,1472224
4,first,31,geizig,IAT_yellow1.bmp,yellow,starting_scream,scream,starting,c,negative,negative,ES_red,1,c,748,1473824,1474328,1474532
4,first,32,gierig,IAT_yellow3.bmp,yellow,starting_scream,scream,starting,c,negative,negative,ES_red,1,c,561,1476355,1476860,1477064
4,first,33,sozial,IAT_red4.bmp,red,ending_scream,scream,ending,m,positive,positive,ES_red,1,m,546,1478700,1479205,1479409
4,first,34,human,IAT_green2.bmp,green,ending_melody,melody,ending,m,positive,negative,ES_red,1,m,632,1481028,1481533,1481738
4,first,35,ehrlich,IAT_purple3.bmp,purple,starting_melody,melody,starting,m,positive,positive,ES_red,1,m,655,1483444,1483949,1484153
4,first,36,schön,IAT_green2.bmp,green,ending_melody,melody,ending,m,positive,negative,ES_red,1,m,506,1485884,1486388,1486592
4,first,37,lustig,IAT_purple4.bmp,purple,starting_melody,melody,starting,m,positive,positive,ES_red,1,m,593,1488173,1488677,1488881
4,first,38,falsch,IAT_green2.bmp,green,ending_melody,melody,ending,c,negative,negative,ES_red,1,c,453,1490548,1491052,1491256
4,first,39,krank,IAT_green1.bmp,green,ending_melody,melody,ending,c,negative,negative,ES_red,1,c,542,1492784,1493288,1493492
4,first,40,sozial,IAT_red3.bmp,red,ending_scream,scream,ending,m,positive,positive,ES_red,1,m,578,1495108,1495612,1495816
4,first,41,munter,IAT_green1.bmp,green,ending_melody,melody,ending,m,positive,negative,ES_red,1,m,563,1497468,1497972,1498176
4,first,42,gierig,IAT_red4.bmp,red,ending_scream,scream,ending,c,negative,positive,ES_red,1,c,515,1499815,1500319,1500523
4,first,43,sanft,IAT_red1.bmp,red,ending_scream,scream,ending,m,positive,positive,ES_red,1,m,663,1502113,1502618,1502822
4,first,44,geizig,IAT_green2.bmp,green,ending_melody,melody,ending,c,negative,negative,ES_red,0,m,944,1504558,1505063,1505267
4,first,45,witzig,IAT_green4.bmp,green,ending_melody,melody,ending,m,positive,negative,ES_red,1,m,576,1507785,1508289,1508493
4,first,46,feige,IAT_red2.bmp,red,ending_scream,scream,ending,c,negative,positive,ES_red,1,c,656,1510145,1510649,1510853
4,first,47,morsch,IAT_purple2.bmp,purple,starting_melody,melody,starting,c,negative,positive,ES_red,1,c,505,1512584,1513088,1513292
4,first,48,krank,IAT_purple1.bmp,purple,starting_melody,melody,starting,c,negative,positive,ES_red,1,c,541,1514873,1515378,1515582
4,first,49,lästig,IAT_green2.bmp,green,ending_melody,melody,ending,c,negative,negative,ES_red,1,c,570,1517198,1517702,1517906
4,first,50,einsam,IAT_green4.bmp,green,ending_melody,melody,ending,c,negative,negative,ES_red,1,c,756,1519550,1520054,1520258
4,first,51,sanft,IAT_green3.bmp,green,ending_melody,melody,ending,m,positive,negative,ES_red,1,m,526,1522088,1522593,1522797
4,first,52,schön,IAT_yellow2.bmp,yellow,starting_scream,scream,starting,m,positive,negative,ES_red,1,m,497,1524398,1524903,1525107
4,first,53,lästig,IAT_green3.bmp,green,ending_melody,melody,ending,c,negative,negative,ES_red,1,c,499,1526679,1527184,1527388
4,first,54,sonnig,IAT_green1.bmp,green,ending_melody,melody,ending,m,positive,negative,ES_red,1,m,557,1528962,1529466,1529670
4,first,55,einsam,IAT_red3.bmp,red,ending_scream,scream,ending,c,negative,positive,ES_red,1,c,563,1531302,1531806,1532010
4,first,56,morsch,IAT_red3.bmp,red,ending_scream,scream,ending,c,negative,positive,ES_red,1,c,490,1533648,1534152,1534356
4,first,57,lustig,IAT_red3.bmp,red,ending_scream,scream,ending,m,positive,positive,ES_red,1,m,507,1535921,1536425,1536629
4,first,58,einsam,IAT_purple4.bmp,purple,starting_melody,melody,starting,c,negative,positive,ES_red,1,c,600,1538210,1538714,1538918
4,first,59,feige,IAT_green1.bmp,green,ending_melody,melody,ending,c,negative,negative,ES_red,1,c,600,1540593,1541097,1541301
4,first,60,kaputt,IAT_yellow1.bmp,yellow,starting_scream,scream,starting,c,negative,negative,ES_red,1,c,477,1542976,1543481,1543685
4,first,61,sanft,IAT_purple3.bmp,purple,starting_melody,melody,starting,m,positive,positive,ES_red,1,m,499,1545238,1545742,1545946
4,first,62,falsch,IAT_purple4.bmp,purple,starting_melody,melody,starting,c,negative,positive,ES_red,1,c,556,1547519,1548023,1548227
4,first,63,ehrlich,IAT_red3.bmp,red,ending_scream,scream,ending,m,positive,positive,ES_red,1,m,757,1549858,1550363,1550567
4,first,64,munter,IAT_yellow4.bmp,yellow,starting_scream,scream,starting,m,positive,negative,ES_red,1,m,1149,1552399,1552904,1553108
4,first,65,heiter,IAT_red1.bmp,red,ending_scream,scream,ending,m,positive,positive,ES_red,1,m,503,1555332,1555836,1556040
4,first,66,morsch,IAT_yellow4.bmp,yellow,starting_scream,scream,starting,c,negative,negative,ES_red,1,c,452,1557619,1558123,1558327
4,first,67,witzig,IAT_red3.bmp,red,ending_scream,scream,ending,m,positive,positive,ES_red,1,m,561,1559855,1560359,1560563
4,first,68,lästig,IAT_purple2.bmp,purple,starting_melody,melody,starting,c,negative,positive,ES_red,1,c,538,1562199,1562703,1562907
4,first,69,gerecht,IAT_yellow3.bmp,yellow,starting_scream,scream,starting,m,positive,negative,ES_red,1,m,794,1564520,1565024,1565228
4,first,70,geizig,IAT_yellow4.bmp,yellow,starting_scream,scream,starting,c,negative,negative,ES_red,1,c,549,1567097,1567601,1567805
4,first,71,gesund,IAT_purple3.bmp,purple,starting_melody,melody,starting,m,positive,positive,ES_red,1,m,547,1569428,1569932,1570136
4,first,72,sozial,IAT_purple1.bmp,purple,starting_melody,melody,starting,m,positive,positive,ES_red,1,m,590,1571758,1572263,1572468
4,first,73,krank,IAT_purple4.bmp,purple,starting_melody,melody,starting,c,negative,positive,ES_red,1,c,579,1574133,1574637,1574841
4,first,74,schön,IAT_yellow3.bmp,yellow,starting_scream,scream,starting,m,positive,negative,ES_red,1,m,495,1576495,1577000,1577204
4,first,75,heiter,IAT_green3.bmp,green,ending_melody,melody,ending,m,positive,negative,ES_red,1,m,686,1578775,1579279,1579483
4,first,76,gierig,IAT_yellow3.bmp,yellow,starting_scream,scream,starting,c,negative,negative,ES_red,1,c,774,1581244,1581748,1581952
4,first,77,sanft,IAT_yellow2.bmp,yellow,starting_scream,scream,starting,m,positive,negative,ES_red,1,m,874,1583801,1584305,1584509
4,first,78,heiter,IAT_green1.bmp,green,ending_melody,melody,ending,m,positive,negative,ES_red,1,m,599,1586457,1586962,1587166
4,first,79,gerecht,IAT_green3.bmp,green,ending_melody,melody,ending,m,positive,negative,ES_red,1,m,694,1588840,1589344,1589548
4,first,80,teuer,IAT_red2.bmp,red,ending_scream,scream,ending,c,negative,positive,ES_red,0,m,580,1591317,1591822,1592026
4,first,81,witzig,IAT_yellow1.bmp,yellow,starting_scream,scream,starting,m,positive,negative,ES_red,1,m,848,1594182,1594686,1594890
4,first,82,sonnig,IAT_yellow1.bmp,yellow,starting_scream,scream,starting,m,positive,negative,ES_red,1,m,528,1596813,1597318,1597522
4,first,83,human,IAT_yellow3.bmp,yellow,starting_scream,scream,starting,m,positive,negative,ES_red,1,m,627,1599125,1599629,1599833
4,first,84,sozial,IAT_red2.bmp,red,ending_scream,scream,ending,m,positive,positive,ES_red,1,m,560,1601535,1602040,1602244
4,first,85,einsam,IAT_purple3.bmp,purple,starting_melody,melody,starting,c,negative,positive,ES_red,1,c,826,1603878,1604382,1604586
4,first,86,human,IAT_yellow3.bmp,yellow,starting_scream,scream,starting,m,positive,negative,ES_red,1,m,651,1606487,1606991,1607195
4,first,87,gerecht,IAT_purple1.bmp,purple,starting_melody,melody,starting,m,positive,positive,ES_red,1,m,500,1608921,1609426,1609630
4,first,88,lästig,IAT_purple2.bmp,purple,starting_melody,melody,starting,c,negative,positive,ES_red,1,c,571,1611205,1611710,1611914
4,first,89,sonnig,IAT_red1.bmp,red,ending_scream,scream,ending,m,positive,positive,ES_red,1,m,660,1613560,1614064,1614268
4,first,90,gierig,IAT_green2.bmp,green,ending_melody,melody,ending,c,negative,negative,ES_red,1,c,696,1616003,1616507,1616711
4,first,91,kaputt,IAT_red1.bmp,red,ending_scream,scream,ending,c,negative,positive,ES_red,1,c,577,1618483,1618987,1619191
4,first,92,brutal,IAT_red2.bmp,red,ending_scream,scream,ending,c,negative,positive,ES_red,1,c,729,1620844,1621349,1621553
4,first,93,streng,IAT_green4.bmp,green,ending_melody,melody,ending,c,negative,negative,ES_red,1,c,597,1623358,1623862,1624066
4,first,94,teuer,IAT_purple2.bmp,purple,starting_melody,melody,starting,c,negative,positive,ES_red,1,c,618,1625738,1626243,1626447
4,first,95,streng,IAT_purple4.bmp,purple,starting_melody,melody,starting,c,negative,positive,ES_red,1,c,544,1628140,1628644,1628848
