date	time	group	subject	build	trialcode	blockcode	blocknum	trialnum	pretrialpause	posttrialpause	trialduration	trialtimeout	latency	response	correct	stimulusnumber1	stimulusitem1	stimulusonset1	stimulusnumber2	stimulusitem2	stimulusonset2	stimulusnumber3	stimulusitem3	stimulusonset3	stimulusnumber4	stimulusitem4	stimulusonset4	stimulusnumber5	stimulusitem5	stimulusonset5	stimulusnumber6	stimulusitem6	stimulusonset6	stimulusnumber7	stimulusitem7	stimulusonset7	stimulusnumber8	stimulusitem8	stimulusonset8	stimulusnumber9	stimulusitem9	stimulusonset9	stimulusnumber10	stimulusitem10	stimulusonset10
020118	17:20:20	1	12	5.0.10.0	dL_B21_B2_pleasA	dB21_valA_pract1	1	1	300	300	0	0	571	18	1	1	blank2r.bmp	0	1	+	0	4	B4r.bmp	500	1	blank2r.bmp	700	1	GKQX	700	6	C2r.bmp	830	1	blank2r.bmp	870	5	friedlich	870	1	!	1200	1	blank2r.bmp	1330
020118	17:20:20	1	12	5.0.10.0	dL_B21_B2_pleasA	dB21_valA_pract1	1	2	300	300	0	0	1476	18	1	1	blank2r.bmp	0	1	+	0	1	B1r.bmp	500	1	blank2r.bmp	700	1	GKQX	700	8	C4r.bmp	830	1	blank2r.bmp	870	2	schön	870	1	!	1200	1	blank2r.bmp	1330
020118	17:20:20	1	12	5.0.10.0	dL_B21_B2_unplA	dB21_valA_pract1	1	3	300	300	0	0	507	23	0	1	blank2r.bmp	0	1	+	0	8	C4r.bmp	500	1	blank2r.bmp	700	1	GKQX	700	1	B1r.bmp	830	1	blank2r.bmp	870	3	töten	870	1	!	1200	1	blank2r.bmp	1330
020118	17:20:20	1	12	5.0.10.0	dL_B21_B1_unplA	dB21_valA_pract1	1	4	300	300	0	0	3062	23	1	1	blank2r.bmp	0	1	+	0	2	B2r.bmp	500	1	blank2r.bmp	700	1	BMVZ	700	3	B3r.bmp	830	1	blank2r.bmp	870	2	neidisch	870	1	!	1200	1	blank2r.bmp	1330
020118	17:20:20	1	12	5.0.10.0	dL_B21_B1_pleasA	dB21_valA_pract1	1	5	300	300	0	0	722	23	1	1	blank2r.bmp	0	1	+	0	7	C3r.bmp	500	1	blank2r.bmp	700	1	BMVZ	700	4	B4r.bmp	830	1	blank2r.bmp	870	4	heiter	870	1	!	1200	1	blank2r.bmp	1330
020118	17:20:20	1	12	5.0.10.0	dL_B21_B2_unplA	dB21_valA_pract1	1	6	300	300	0	0	3340	18	1	1	blank2r.bmp	0	1	+	0	6	C2r.bmp	500	1	blank2r.bmp	700	1	GKQX	700	7	C3r.bmp	830	1	blank2r.bmp	870	1	unfair	870	1	!	1200	1	blank2r.bmp	1330
020118	17:20:20	1	12	5.0.10.0	dL_B21_B2_pleasA	dB21_valA_pract1	1	7	300	300	0	0	467	18	1	1	blank2r.bmp	0	1	+	0	5	C1r.bmp	500	1	blank2r.bmp	700	1	GKQX	700	2	B2r.bmp	830	1	blank2r.bmp	870	3	freund	870	1	!	1200	1	blank2r.bmp	1330
020118	17:20:20	1	12	5.0.10.0	dL_B21_B1_unplA	dB21_valA_pract1	1	8	300	300	0	0	431	23	1	1	blank2r.bmp	0	1	+	0	3	B3r.bmp	500	1	blank2r.bmp	700	1	BMVZ	700	5	C1r.bmp	830	1	blank2r.bmp	870	6	leiden	870	1	!	1200	1	blank2r.bmp	1330
020118	17:20:20	1	12	5.0.10.0	dL_B21_B1_pleasA	dB21_valA_pract1	1	9	300	300	0	0	264	23	1	1	blank2r.bmp	0	1	+	0	5	C1r.bmp	500	1	blank2r.bmp	700	1	BMVZ	700	1	B1r.bmp	830	1	blank2r.bmp	870	6	froh	870	1	!	1200	1	blank2r.bmp	1330
020118	17:20:20	1	12	5.0.10.0	dL_B21_B1_pleasA	dB21_valA_pract1	1	10	300	300	0	0	210	23	1	1	blank2r.bmp	0	1	+	0	3	B3r.bmp	500	1	blank2r.bmp	700	1	BMVZ	700	6	C2r.bmp	830	1	blank2r.bmp	870	1	toll	870	1	!	1200	1	blank2r.bmp	1330
020118	17:20:20	1	12	5.0.10.0	dL_B21_B2_unplA	dB21_valA_pract1	1	11	300	300	0	0	225	18	1	1	blank2r.bmp	0	1	+	0	8	C4r.bmp	500	1	blank2r.bmp	700	1	GKQX	700	3	B3r.bmp	830	1	blank2r.bmp	870	5	schlecht	870	1	!	1200	1	blank2r.bmp	1330
020118	17:20:20	1	12	5.0.10.0	dL_B21_B1_unplA	dB21_valA_pract1	1	12	300	300	0	0	167	23	1	1	blank2r.bmp	0	1	+	0	7	C3r.bmp	500	1	blank2r.bmp	700	1	BMVZ	700	8	C4r.bmp	830	1	blank2r.bmp	870	4	elend	870	1	!	1200	1	blank2r.bmp	1330
020118	17:20:20	1	12	5.0.10.0	dM_B21_B1_unplA	dB21_valA_pract2	2	1	300	300	0	0	451	23	1	1	blank2r.bmp	0	1	+	0	6	C2r.bmp	500	1	blank2r.bmp	730	1	BMVZ	730	5	C1r.bmp	830	1	blank2r.bmp	870	5	schlecht	870	1	!	1200	1	blank2r.bmp	1330
020118	17:20:20	1	12	5.0.10.0	dM_B21_B1_pleasA	dB21_valA_pract2	2	2	300	300	0	0	225	23	1	1	blank2r.bmp	0	1	+	0	1	B1r.bmp	500	1	blank2r.bmp	730	1	BMVZ	730	2	B2r.bmp	830	1	blank2r.bmp	870	4	heiter	870	1	!	1200	1	blank2r.bmp	1330
020118	17:20:20	1	12	5.0.10.0	dM_B21_B1_unplA	dB21_valA_pract2	2	3	300	300	0	0	155	23	1	1	blank2r.bmp	0	1	+	0	4	B4r.bmp	500	1	blank2r.bmp	730	1	BMVZ	730	7	C3r.bmp	830	1	blank2r.bmp	870	2	neidisch	870	1	!	1200	1	blank2r.bmp	1330
020118	17:20:20	1	12	5.0.10.0	dM_B21_B2_pleasA	dB21_valA_pract2	2	4	300	300	0	0	32	18	1	1	blank2r.bmp	0	1	+	0	2	B2r.bmp	500	1	blank2r.bmp	730	1	GKQX	730	4	B4r.bmp	830	1	blank2r.bmp	870	2	schön	870	1	!	1200	1	blank2r.bmp	1330
020118	17:20:20	1	12	5.0.10.0	dM_B21_B1_pleasA	dB21_valA_pract2	2	5	300	300	0	0	334	23	1	1	blank2r.bmp	0	1	+	0	6	C2r.bmp	500	1	blank2r.bmp	730	1	BMVZ	730	3	B3r.bmp	830	1	blank2r.bmp	870	3	freund	870	1	!	1200	1	blank2r.bmp	1330
020118	17:20:20	1	12	5.0.10.0	dM_B21_B2_pleasA	dB21_valA_pract2	2	6	300	300	0	0	173	18	1	1	blank2r.bmp	0	1	+	0	2	B2r.bmp	500	1	blank2r.bmp	730	1	GKQX	730	4	B4r.bmp	830	1	blank2r.bmp	870	6	froh	870	1	!	1200	1	blank2r.bmp	1330
020118	17:20:20	1	12	5.0.10.0	dM_B21_B2_pleasA	dB21_valA_pract2	2	7	300	300	0	0	186	18	1	1	blank2r.bmp	0	1	+	0	8	C4r.bmp	500	1	blank2r.bmp	730	1	GKQX	730	1	B1r.bmp	830	1	blank2r.bmp	870	5	friedlich	870	1	!	1200	1	blank2r.bmp	1330
020118	17:20:20	1	12	5.0.10.0	dM_B21_B1_pleasA	dB21_valA_pract2	2	8	300	300	0	0	276	23	1	1	blank2r.bmp	0	1	+	0	3	B3r.bmp	500	1	blank2r.bmp	730	1	BMVZ	730	2	B2r.bmp	830	1	blank2r.bmp	870	1	toll	870	1	!	1200	1	blank2r.bmp	1330
020118	17:20:20	1	12	5.0.10.0	dM_B21_B2_unplA	dB21_valA_pract2	2	9	300	300	0	0	63	18	1	1	blank2r.bmp	0	1	+	0	4	B4r.bmp	500	1	blank2r.bmp	730	1	GKQX	730	5	C1r.bmp	830	1	blank2r.bmp	870	6	leiden	870	1	!	1200	1	blank2r.bmp	1330
020118	17:20:20	1	12	5.0.10.0	dM_B21_B2_unplA	dB21_valA_pract2	2	10	300	300	0	0	300	18	1	1	blank2r.bmp	0	1	+	0	1	B1r.bmp	500	1	blank2r.bmp	730	1	GKQX	730	7	C3r.bmp	830	1	blank2r.bmp	870	3	töten	870	1	!	1200	1	blank2r.bmp	1330
020118	17:20:20	1	12	5.0.10.0	dM_B21_B2_unplA	dB21_valA_pract2	2	11	300	300	0	0	346	18	1	1	blank2r.bmp	0	1	+	0	5	C1r.bmp	500	1	blank2r.bmp	730	1	GKQX	730	8	C4r.bmp	830	1	blank2r.bmp	870	4	elend	870	1	!	1200	1	blank2r.bmp	1330
020118	17:20:20	1	12	5.0.10.0	dM_B21_B1_unplA	dB21_valA_pract2	2	12	300	300	0	0	149	23	1	1	blank2r.bmp	0	1	+	0	7	C3r.bmp	500	1	blank2r.bmp	730	1	BMVZ	730	6	C2r.bmp	830	1	blank2r.bmp	870	1	unfair	870	1	!	1200	1	blank2r.bmp	1330
020118	17:20:20	1	12	5.0.10.0	d070_B21_B2_pleasA	dB21_valA_070	3	1	300	300	0	0	3084	18	1	1	blank2r.bmp	0	1	+	0	8	C4r.bmp	500	1	blank2r.bmp	800	1	GKQX	800	1	blank2r.bmp	870	1	toll	870	1	!	1200	1	blank2r.bmp	1330	0	0	0
020118	17:20:20	1	12	5.0.10.0	d070_B21_B1_unplA	dB21_valA_070	3	2	300	300	0	0	1056	18	0	1	blank2r.bmp	0	1	+	0	5	C1r.bmp	500	1	blank2r.bmp	800	1	BMVZ	800	1	blank2r.bmp	870	5	schlecht	870	1	!	1200	1	blank2r.bmp	1330	0	0	0
020118	17:20:20	1	12	5.0.10.0	d070_B21_B1_pleasA	dB21_valA_070	3	3	300	300	0	0	484	23	1	1	blank2r.bmp	0	1	+	0	4	B4r.bmp	500	1	blank2r.bmp	800	1	BMVZ	800	1	blank2r.bmp	870	5	friedlich	870	1	!	1200	1	blank2r.bmp	1330	0	0	0
020118	17:20:20	1	12	5.0.10.0	d070_B21_B2_unplA	dB21_valA_070	3	4	300	300	0	0	692	23	0	1	blank2r.bmp	0	1	+	0	3	B3r.bmp	500	1	blank2r.bmp	800	1	GKQX	800	1	blank2r.bmp	870	6	leiden	870	1	!	1200	1	blank2r.bmp	1330	0	0	0
020118	17:20:20	1	12	5.0.10.0	d070_B21_B2_pleasA	dB21_valA_070	3	5	300	300	0	0	647	18	1	1	blank2r.bmp	0	1	+	0	2	B2r.bmp	500	1	blank2r.bmp	800	1	GKQX	800	1	blank2r.bmp	870	2	schön	870	1	!	1200	1	blank2r.bmp	1330	0	0	0
020118	17:20:20	1	12	5.0.10.0	d070_B21_B2_pleasA	dB21_valA_070	3	6	300	300	0	0	256	18	1	1	blank2r.bmp	0	1	+	0	1	B1r.bmp	500	1	blank2r.bmp	800	1	GKQX	800	1	blank2r.bmp	870	6	froh	870	1	!	1200	1	blank2r.bmp	1330	0	0	0
020118	17:20:20	1	12	5.0.10.0	d070_B21_B1_unplA	dB21_valA_070	3	7	300	300	0	0	519	23	1	1	blank2r.bmp	0	1	+	0	7	C3r.bmp	500	1	blank2r.bmp	800	1	BMVZ	800	1	blank2r.bmp	870	2	neidisch	870	1	!	1200	1	blank2r.bmp	1330	0	0	0
020118	17:20:20	1	12	5.0.10.0	d070_B21_B2_unplA	dB21_valA_070	3	8	300	300	0	0	280	18	1	1	blank2r.bmp	0	1	+	0	6	C2r.bmp	500	1	blank2r.bmp	800	1	GKQX	800	1	blank2r.bmp	870	4	elend	870	1	!	1200	1	blank2r.bmp	1330	0	0	0
020118	17:20:20	1	12	5.0.10.0	d070_B21_B2_unplA	dB21_valA_070	3	9	300	300	0	0	616	18	1	1	blank2r.bmp	0	1	+	0	5	C1r.bmp	500	1	blank2r.bmp	800	1	GKQX	800	1	blank2r.bmp	870	3	töten	870	1	!	1200	1	blank2r.bmp	1330	0	0	0
020118	17:20:20	1	12	5.0.10.0	d070_B21_B1_pleasA	dB21_valA_070	3	10	300	300	0	0	498	23	1	1	blank2r.bmp	0	1	+	0	8	C4r.bmp	500	1	blank2r.bmp	800	1	BMVZ	800	1	blank2r.bmp	870	4	heiter	870	1	!	1200	1	blank2r.bmp	1330	0	0	0
020118	17:20:20	1	12	5.0.10.0	d070_B21_B1_unplA	dB21_valA_070	3	11	300	300	0	0	158	23	1	1	blank2r.bmp	0	1	+	0	1	B1r.bmp	500	1	blank2r.bmp	800	1	BMVZ	800	1	blank2r.bmp	870	1	unfair	870	1	!	1200	1	blank2r.bmp	1330	0	0	0
020118	17:20:20	1	12	5.0.10.0	d070_B21_B2_pleasA	dB21_valA_070	3	12	300	300	0	0	181	18	1	1	blank2r.bmp	0	1	+	0	2	B2r.bmp	500	1	blank2r.bmp	800	1	GKQX	800	1	blank2r.bmp	870	3	freund	870	1	!	1200	1	blank2r.bmp	1330	0	0	0
020118	17:20:20	1	12	5.0.10.0	d070_B21_B2_unplA	dB21_valA_070	3	13	300	300	0	0	90	18	1	1	blank2r.bmp	0	1	+	0	3	B3r.bmp	500	1	blank2r.bmp	800	1	GKQX	800	1	blank2r.bmp	870	4	elend	870	1	!	1200	1	blank2r.bmp	1330	0	0	0
020118	17:20:20	1	12	5.0.10.0	d070_B21_B2_pleasA	dB21_valA_070	3	14	300	300	0	0	97	18	1	1	blank2r.bmp	0	1	+	0	6	C2r.bmp	500	1	blank2r.bmp	800	1	GKQX	800	1	blank2r.bmp	870	4	heiter	870	1	!	1200	1	blank2r.bmp	1330	0	0	0
020118	17:20:20	1	12	5.0.10.0	d070_B21_B2_pleasA	dB21_valA_070	3	15	300	300	0	0	361	18	1	1	blank2r.bmp	0	1	+	0	7	C3r.bmp	500	1	blank2r.bmp	800	1	GKQX	800	1	blank2r.bmp	870	1	toll	870	1	!	1200	1	blank2r.bmp	1330	0	0	0
020118	17:20:20	1	12	5.0.10.0	d070_B21_B1_unplA	dB21_valA_070	3	16	300	300	0	0	6	23	1	1	blank2r.bmp	0	1	+	0	4	B4r.bmp	500	1	blank2r.bmp	800	1	BMVZ	800	1	blank2r.bmp	870	3	töten	870	1	!	1200	1	blank2r.bmp	1330	0	0	0
020118	17:20:20	1	12	5.0.10.0	d070_B21_B2_unplA	dB21_valA_070	3	17	300	300	0	0	132	18	1	1	blank2r.bmp	0	1	+	0	4	B4r.bmp	500	1	blank2r.bmp	800	1	GKQX	800	1	blank2r.bmp	870	6	leiden	870	1	!	1200	1	blank2r.bmp	1330	0	0	0
020118	17:20:20	1	12	5.0.10.0	d070_B21_B1_pleasA	dB21_valA_070	3	18	300	300	0	0	1408	23	1	1	blank2r.bmp	0	1	+	0	2	B2r.bmp	500	1	blank2r.bmp	800	1	BMVZ	800	1	blank2r.bmp	870	6	froh	870	1	!	1200	1	blank2r.bmp	1330	0	0	0
020118	17:20:20	1	12	5.0.10.0	d070_B21_B2_unplA	dB21_valA_070	3	19	300	300	0	0	693	18	1	1	blank2r.bmp	0	1	+	0	6	C2r.bmp	500	1	blank2r.bmp	800	1	GKQX	800	1	blank2r.bmp	870	2	neidisch	870	1	!	1200	1	blank2r.bmp	1330	0	0	0
020118	17:20:20	1	12	5.0.10.0	d070_B21_B1_pleasA	dB21_valA_070	3	20	300	300	0	0	949	23	1	1	blank2r.bmp	0	1	+	0	3	B3r.bmp	500	1	blank2r.bmp	800	1	BMVZ	800	1	blank2r.bmp	870	2	schön	870	1	!	1200	1	blank2r.bmp	1330	0	0	0
020118	17:20:20	1	12	5.0.10.0	d070_B21_B2_pleasA	dB21_valA_070	3	21	300	300	0	0	197	18	1	1	blank2r.bmp	0	1	+	0	7	C3r.bmp	500	1	blank2r.bmp	800	1	GKQX	800	1	blank2r.bmp	870	3	freund	870	1	!	1200	1	blank2r.bmp	1330	0	0	0
020118	17:20:20	1	12	5.0.10.0	d070_B21_B1_pleasA	dB21_valA_070	3	22	300	300	0	0	158	23	1	1	blank2r.bmp	0	1	+	0	5	C1r.bmp	500	1	blank2r.bmp	800	1	BMVZ	800	1	blank2r.bmp	870	5	friedlich	870	1	!	1200	1	blank2r.bmp	1330	0	0	0
020118	17:20:20	1	12	5.0.10.0	d070_B21_B1_pleasA	dB21_valA_070	3	23	300	300	0	0	1200	18	0	1	blank2r.bmp	0	1	+	0	1	B1r.bmp	500	1	blank2r.bmp	800	1	BMVZ	800	1	blank2r.bmp	870	5	friedlich	870	1	!	1200	1	blank2r.bmp	1330	0	0	0
020118	17:20:20	1	12	5.0.10.0	d070_B21_B1_pleasA	dB21_valA_070	3	24	300	300	0	0	12	18	0	1	blank2r.bmp	0	1	+	0	8	C4r.bmp	500	1	blank2r.bmp	800	1	BMVZ	800	1	blank2r.bmp	870	6	froh	870	1	!	1200	1	blank2r.bmp	1330	0	0	0
020118	17:20:20	1	12	5.0.10.0	d070_B21_B2_unplA	dB21_valA_070	3	25	300	300	0	0	2290	18	1	1	blank2r.bmp	0	1	+	0	8	C4r.bmp	500	1	blank2r.bmp	800	1	GKQX	800	1	blank2r.bmp	870	5	schlecht	870	1	!	1200	1	blank2r.bmp	1330	0	0	0
020118	17:20:20	1	12	5.0.10.0	d070_B21_B2_pleasA	dB21_valA_070	3	26	300	300	0	0	243	18	1	1	blank2r.bmp	0	1	+	0	7	C3r.bmp	500	1	blank2r.bmp	800	1	GKQX	800	1	blank2r.bmp	870	3	freund	870	1	!	1200	1	blank2r.bmp	1330	0	0	0
020118	17:20:20	1	12	5.0.10.0	d070_B21_B2_pleasA	dB21_valA_070	3	27	300	300	0	0	483	23	0	1	blank2r.bmp	0	1	+	0	5	C1r.bmp	500	1	blank2r.bmp	800	1	GKQX	800	1	blank2r.bmp	870	2	schön	870	1	!	1200	1	blank2r.bmp	1330	0	0	0
020118	17:20:20	1	12	5.0.10.0	d070_B21_B1_unplA	dB21_valA_070	3	28	300	300	0	0	251	23	1	1	blank2r.bmp	0	1	+	0	4	B4r.bmp	500	1	blank2r.bmp	800	1	BMVZ	800	1	blank2r.bmp	870	1	unfair	870	1	!	1200	1	blank2r.bmp	1330	0	0	0
020118	17:20:20	1	12	5.0.10.0	d070_B21_B1_pleasA	dB21_valA_070	3	29	300	300	0	0	343	23	1	1	blank2r.bmp	0	1	+	0	6	C2r.bmp	500	1	blank2r.bmp	800	1	BMVZ	800	1	blank2r.bmp	870	4	heiter	870	1	!	1200	1	blank2r.bmp	1330	0	0	0
020118	17:20:20	1	12	5.0.10.0	d070_B21_B2_unplA	dB21_valA_070	3	30	300	300	0	0	264	18	1	1	blank2r.bmp	0	1	+	0	2	B2r.bmp	500	1	blank2r.bmp	800	1	GKQX	800	1	blank2r.bmp	870	2	neidisch	870	1	!	1200	1	blank2r.bmp	1330	0	0	0
020118	17:20:20	1	12	5.0.10.0	d070_B21_B1_pleasA	dB21_valA_070	3	31	300	300	0	0	21	18	0	1	blank2r.bmp	0	1	+	0	3	B3r.bmp	500	1	blank2r.bmp	800	1	BMVZ	800	1	blank2r.bmp	870	1	toll	870	1	!	1200	1	blank2r.bmp	1330	0	0	0
020118	17:20:20	1	12	5.0.10.0	d070_B21_B2_unplA	dB21_valA_070	3	32	300	300	0	0	78	18	1	1	blank2r.bmp	0	1	+	0	1	B1r.bmp	500	1	blank2r.bmp	800	1	GKQX	800	1	blank2r.bmp	870	5	schlecht	870	1	!	1200	1	blank2r.bmp	1330	0	0	0
020118	17:20:20	1	12	5.0.10.0	d070_B21_B1_unplA	dB21_valA_070	3	33	300	300	0	0	286	23	1	1	blank2r.bmp	0	1	+	0	7	C3r.bmp	500	1	blank2r.bmp	800	1	BMVZ	800	1	blank2r.bmp	870	6	leiden	870	1	!	1200	1	blank2r.bmp	1330	0	0	0
020118	17:20:20	1	12	5.0.10.0	d070_B21_B2_pleasA	dB21_valA_070	3	34	300	300	0	0	259	18	1	1	blank2r.bmp	0	1	+	0	5	C1r.bmp	500	1	blank2r.bmp	800	1	GKQX	800	1	blank2r.bmp	870	4	heiter	870	1	!	1200	1	blank2r.bmp	1330	0	0	0
020118	17:20:20	1	12	5.0.10.0	d070_B21_B2_pleasA	dB21_valA_070	3	35	300	300	0	0	175	18	1	1	blank2r.bmp	0	1	+	0	6	C2r.bmp	500	1	blank2r.bmp	800	1	GKQX	800	1	blank2r.bmp	870	1	toll	870	1	!	1200	1	blank2r.bmp	1330	0	0	0
020118	17:20:20	1	12	5.0.10.0	d070_B21_B2_unplA	dB21_valA_070	3	36	300	300	0	0	238	18	1	1	blank2r.bmp	0	1	+	0	1	B1r.bmp	500	1	blank2r.bmp	800	1	GKQX	800	1	blank2r.bmp	870	3	töten	870	1	!	1200	1	blank2r.bmp	1330	0	0	0
020118	17:20:20	1	12	5.0.10.0	d070_B21_B1_unplA	dB21_valA_070	3	37	300	300	0	0	16	23	1	1	blank2r.bmp	0	1	+	0	3	B3r.bmp	500	1	blank2r.bmp	800	1	BMVZ	800	1	blank2r.bmp	870	1	unfair	870	1	!	1200	1	blank2r.bmp	1330	0	0	0
020118	17:20:20	1	12	5.0.10.0	d070_B21_B1_unplA	dB21_valA_070	3	38	300	300	0	0	246	23	1	1	blank2r.bmp	0	1	+	0	2	B2r.bmp	500	1	blank2r.bmp	800	1	BMVZ	800	1	blank2r.bmp	870	4	elend	870	1	!	1200	1	blank2r.bmp	1330	0	0	0
020118	17:20:20	1	12	5.0.10.0	d070_B21_B1_unplA	dB21_valA_070	3	39	300	300	0	0	433	23	1	1	blank2r.bmp	0	1	+	0	8	C4r.bmp	500	1	blank2r.bmp	800	1	BMVZ	800	1	blank2r.bmp	870	3	töten	870	1	!	1200	1	blank2r.bmp	1330	0	0	0
020118	17:20:20	1	12	5.0.10.0	d070_B21_B1_pleasA	dB21_valA_070	3	40	300	300	0	0	251	18	0	1	blank2r.bmp	0	1	+	0	4	B4r.bmp	500	1	blank2r.bmp	800	1	BMVZ	800	1	blank2r.bmp	870	6	froh	870	1	!	1200	1	blank2r.bmp	1330	0	0	0
020118	17:20:20	1	12	5.0.10.0	d070_B21_B1_unplA	dB21_valA_070	3	41	300	300	0	0	159	18	0	1	blank2r.bmp	0	1	+	0	3	B3r.bmp	500	1	blank2r.bmp	800	1	BMVZ	800	1	blank2r.bmp	870	2	neidisch	870	1	!	1200	1	blank2r.bmp	1330	0	0	0
020118	17:20:20	1	12	5.0.10.0	d070_B21_B1_unplA	dB21_valA_070	3	42	300	300	0	0	1268	23	1	1	blank2r.bmp	0	1	+	0	1	B1r.bmp	500	1	blank2r.bmp	800	1	BMVZ	800	1	blank2r.bmp	870	1	unfair	870	1	!	1200	1	blank2r.bmp	1330	0	0	0
020118	17:20:20	1	12	5.0.10.0	d070_B21_B2_unplA	dB21_valA_070	3	43	300	300	0	0	317	23	0	1	blank2r.bmp	0	1	+	0	7	C3r.bmp	500	1	blank2r.bmp	800	1	GKQX	800	1	blank2r.bmp	870	6	leiden	870	1	!	1200	1	blank2r.bmp	1330	0	0	0
020118	17:20:20	1	12	5.0.10.0	d070_B21_B1_pleasA	dB21_valA_070	3	44	300	300	0	0	408	23	1	1	blank2r.bmp	0	1	+	0	5	C1r.bmp	500	1	blank2r.bmp	800	1	BMVZ	800	1	blank2r.bmp	870	2	schön	870	1	!	1200	1	blank2r.bmp	1330	0	0	0
020118	17:20:20	1	12	5.0.10.0	d070_B21_B1_unplA	dB21_valA_070	3	45	300	300	0	0	1070	23	1	1	blank2r.bmp	0	1	+	0	8	C4r.bmp	500	1	blank2r.bmp	800	1	BMVZ	800	1	blank2r.bmp	870	5	schlecht	870	1	!	1200	1	blank2r.bmp	1330	0	0	0
020118	17:20:20	1	12	5.0.10.0	d070_B21_B1_pleasA	dB21_valA_070	3	46	300	300	0	0	19	18	0	1	blank2r.bmp	0	1	+	0	6	C2r.bmp	500	1	blank2r.bmp	800	1	BMVZ	800	1	blank2r.bmp	870	5	friedlich	870	1	!	1200	1	blank2r.bmp	1330	0	0	0
020118	17:20:20	1	12	5.0.10.0	d070_B21_B2_unplA	dB21_valA_070	3	47	300	300	0	0	306	18	1	1	blank2r.bmp	0	1	+	0	4	B4r.bmp	500	1	blank2r.bmp	800	1	GKQX	800	1	blank2r.bmp	870	4	elend	870	1	!	1200	1	blank2r.bmp	1330	0	0	0
020118	17:20:20	1	12	5.0.10.0	d070_B21_B2_pleasA	dB21_valA_070	3	48	300	300	0	0	94	18	1	1	blank2r.bmp	0	1	+	0	2	B2r.bmp	500	1	blank2r.bmp	800	1	GKQX	800	1	blank2r.bmp	870	3	freund	870	1	!	1200	1	blank2r.bmp	1330	0	0	0
020118	17:20:20	1	12	5.0.10.0	d070_B21_B2_unplA	dB21_valA_070	4	1	300	300	0	0	787	18	1	1	blank2r.bmp	0	1	+	0	4	B4r.bmp	500	1	blank2r.bmp	800	1	GKQX	800	1	blank2r.bmp	870	2	neidisch	870	1	!	1200	1	blank2r.bmp	1330	0	0	0
020118	17:20:20	1	12	5.0.10.0	d070_B21_B2_unplA	dB21_valA_070	4	2	300	300	0	0	158	18	1	1	blank2r.bmp	0	1	+	0	8	C4r.bmp	500	1	blank2r.bmp	800	1	GKQX	800	1	blank2r.bmp	870	6	leiden	870	1	!	1200	1	blank2r.bmp	1330	0	0	0
020118	17:20:20	1	12	5.0.10.0	d070_B21_B2_pleasA	dB21_valA_070	4	3	300	300	0	0	207	18	1	1	blank2r.bmp	0	1	+	0	1	B1r.bmp	500	1	blank2r.bmp	800	1	GKQX	800	1	blank2r.bmp	870	3	freund	870	1	!	1200	1	blank2r.bmp	1330	0	0	0
020118	17:20:20	1	12	5.0.10.0	d070_B21_B1_pleasA	dB21_valA_070	4	4	300	300	0	0	121	23	1	1	blank2r.bmp	0	1	+	0	7	C3r.bmp	500	1	blank2r.bmp	800	1	BMVZ	800	1	blank2r.bmp	870	6	froh	870	1	!	1200	1	blank2r.bmp	1330	0	0	0
020118	17:20:20	1	12	5.0.10.0	d070_B21_B1_unplA	dB21_valA_070	4	5	300	300	0	0	58	23	1	1	blank2r.bmp	0	1	+	0	6	C2r.bmp	500	1	blank2r.bmp	800	1	BMVZ	800	1	blank2r.bmp	870	5	schlecht	870	1	!	1200	1	blank2r.bmp	1330	0	0	0
020118	17:20:20	1	12	5.0.10.0	d070_B21_B1_unplA	dB21_valA_070	4	6	300	300	0	0	200	18	0	1	blank2r.bmp	0	1	+	0	5	C1r.bmp	500	1	blank2r.bmp	800	1	BMVZ	800	1	blank2r.bmp	870	4	elend	870	1	!	1200	1	blank2r.bmp	1330	0	0	0
020118	17:20:20	1	12	5.0.10.0	d070_B21_B1_pleasA	dB21_valA_070	4	7	300	300	0	0	5	23	1	1	blank2r.bmp	0	1	+	0	2	B2r.bmp	500	1	blank2r.bmp	800	1	BMVZ	800	1	blank2r.bmp	870	2	schön	870	1	!	1200	1	blank2r.bmp	1330	0	0	0
020118	17:20:20	1	12	5.0.10.0	d070_B21_B2_unplA	dB21_valA_070	4	8	300	300	0	0	142	18	1	1	blank2r.bmp	0	1	+	0	3	B3r.bmp	500	1	blank2r.bmp	800	1	GKQX	800	1	blank2r.bmp	870	1	unfair	870	1	!	1200	1	blank2r.bmp	1330	0	0	0
020118	17:20:20	1	12	5.0.10.0	d070_B21_B1_unplA	dB21_valA_070	4	9	300	300	0	0	165	23	1	1	blank2r.bmp	0	1	+	0	1	B1r.bmp	500	1	blank2r.bmp	800	1	BMVZ	800	1	blank2r.bmp	870	3	töten	870	1	!	1200	1	blank2r.bmp	1330	0	0	0
020118	17:20:20	1	12	5.0.10.0	d070_B21_B1_pleasA	dB21_valA_070	4	10	300	300	0	0	245	23	1	1	blank2r.bmp	0	1	+	0	6	C2r.bmp	500	1	blank2r.bmp	800	1	BMVZ	800	1	blank2r.bmp	870	1	toll	870	1	!	1200	1	blank2r.bmp	1330	0	0	0
020118	17:20:20	1	12	5.0.10.0	d070_B21_B1_pleasA	dB21_valA_070	4	11	300	300	0	0	320	18	0	1	blank2r.bmp	0	1	+	0	7	C3r.bmp	500	1	blank2r.bmp	800	1	BMVZ	800	1	blank2r.bmp	870	5	friedlich	870	1	!	1200	1	blank2r.bmp	1330	0	0	0
020118	17:20:20	1	12	5.0.10.0	d070_B21_B1_pleasA	dB21_valA_070	4	12	300	300	0	0	1354	23	1	1	blank2r.bmp	0	1	+	0	5	C1r.bmp	500	1	blank2r.bmp	800	1	BMVZ	800	1	blank2r.bmp	870	4	heiter	870	1	!	1200	1	blank2r.bmp	1330	0	0	0
020118	17:20:20	1	12	5.0.10.0	d070_B21_B2_pleasA	dB21_valA_070	4	13	300	300	0	0	355	23	0	1	blank2r.bmp	0	1	+	0	8	C4r.bmp	500	1	blank2r.bmp	800	1	GKQX	800	1	blank2r.bmp	870	2	schön	870	1	!	1200	1	blank2r.bmp	1330	0	0	0
020118	17:20:20	1	12	5.0.10.0	d070_B21_B2_unplA	dB21_valA_070	4	14	300	300	0	0	215	18	1	1	blank2r.bmp	0	1	+	0	4	B4r.bmp	500	1	blank2r.bmp	800	1	GKQX	800	1	blank2r.bmp	870	2	neidisch	870	1	!	1200	1	blank2r.bmp	1330	0	0	0
020118	17:20:20	1	12	5.0.10.0	d070_B21_B2_pleasA	dB21_valA_070	4	15	300	300	0	0	441	18	1	1	blank2r.bmp	0	1	+	0	2	B2r.bmp	500	1	blank2r.bmp	800	1	GKQX	800	1	blank2r.bmp	870	4	heiter	870	1	!	1200	1	blank2r.bmp	1330	0	0	0
020118	17:20:20	1	12	5.0.10.0	d070_B21_B2_unplA	dB21_valA_070	4	16	300	300	0	0	98	18	1	1	blank2r.bmp	0	1	+	0	3	B3r.bmp	500	1	blank2r.bmp	800	1	GKQX	800	1	blank2r.bmp	870	4	elend	870	1	!	1200	1	blank2r.bmp	1330	0	0	0
020118	17:20:20	1	12	5.0.10.0	d070_B21_B2_pleasA	dB21_valA_070	4	17	300	300	0	0	88	18	1	1	blank2r.bmp	0	1	+	0	8	C4r.bmp	500	1	blank2r.bmp	800	1	GKQX	800	1	blank2r.bmp	870	3	freund	870	1	!	1200	1	blank2r.bmp	1330	0	0	0
020118	17:20:20	1	12	5.0.10.0	d070_B21_B2_pleasA	dB21_valA_070	4	18	300	300	0	0	132	23	0	1	blank2r.bmp	0	1	+	0	5	C1r.bmp	500	1	blank2r.bmp	800	1	GKQX	800	1	blank2r.bmp	870	6	froh	870	1	!	1200	1	blank2r.bmp	1330	0	0	0
020118	17:20:20	1	12	5.0.10.0	d070_B21_B1_unplA	dB21_valA_070	4	19	300	300	0	0	305	23	1	1	blank2r.bmp	0	1	+	0	4	B4r.bmp	500	1	blank2r.bmp	800	1	BMVZ	800	1	blank2r.bmp	870	6	leiden	870	1	!	1200	1	blank2r.bmp	1330	0	0	0
020118	17:20:20	1	12	5.0.10.0	d070_B21_B1_pleasA	dB21_valA_070	4	20	300	300	0	0	377	23	1	1	blank2r.bmp	0	1	+	0	2	B2r.bmp	500	1	blank2r.bmp	800	1	BMVZ	800	1	blank2r.bmp	870	1	toll	870	1	!	1200	1	blank2r.bmp	1330	0	0	0
020118	17:20:20	1	12	5.0.10.0	d070_B21_B2_unplA	dB21_valA_070	4	21	300	300	0	0	353	18	1	1	blank2r.bmp	0	1	+	0	6	C2r.bmp	500	1	blank2r.bmp	800	1	GKQX	800	1	blank2r.bmp	870	5	schlecht	870	1	!	1200	1	blank2r.bmp	1330	0	0	0
020118	17:20:20	1	12	5.0.10.0	d070_B21_B1_pleasA	dB21_valA_070	4	22	300	300	0	0	612	18	0	1	blank2r.bmp	0	1	+	0	3	B3r.bmp	500	1	blank2r.bmp	800	1	BMVZ	800	1	blank2r.bmp	870	5	friedlich	870	1	!	1200	1	blank2r.bmp	1330	0	0	0
020118	17:20:20	1	12	5.0.10.0	d070_B21_B1_pleasA	dB21_valA_070	4	23	300	300	0	0	1345	23	1	1	blank2r.bmp	0	1	+	0	7	C3r.bmp	500	1	blank2r.bmp	800	1	BMVZ	800	1	blank2r.bmp	870	2	schön	870	1	!	1200	1	blank2r.bmp	1330	0	0	0
020118	17:20:20	1	12	5.0.10.0	d070_B21_B1_unplA	dB21_valA_070	4	24	300	300	0	0	523	23	1	1	blank2r.bmp	0	1	+	0	1	B1r.bmp	500	1	blank2r.bmp	800	1	BMVZ	800	1	blank2r.bmp	870	3	töten	870	1	!	1200	1	blank2r.bmp	1330	0	0	0
020118	17:20:20	1	12	5.0.10.0	d070_B21_B1_unplA	dB21_valA_070	4	25	300	300	0	0	722	18	0	1	blank2r.bmp	0	1	+	0	8	C4r.bmp	500	1	blank2r.bmp	800	1	BMVZ	800	1	blank2r.bmp	870	1	unfair	870	1	!	1200	1	blank2r.bmp	1330	0	0	0
020118	17:20:20	1	12	5.0.10.0	d070_B21_B2_pleasA	dB21_valA_070	4	26	300	300	0	0	478	18	1	1	blank2r.bmp	0	1	+	0	7	C3r.bmp	500	1	blank2r.bmp	800	1	GKQX	800	1	blank2r.bmp	870	1	toll	870	1	!	1200	1	blank2r.bmp	1330	0	0	0
020118	17:20:20	1	12	5.0.10.0	d070_B21_B2_unplA	dB21_valA_070	4	27	300	300	0	0	628	23	0	1	blank2r.bmp	0	1	+	0	1	B1r.bmp	500	1	blank2r.bmp	800	1	GKQX	800	1	blank2r.bmp	870	4	elend	870	1	!	1200	1	blank2r.bmp	1330	0	0	0
020118	17:20:20	1	12	5.0.10.0	d070_B21_B1_pleasA	dB21_valA_070	4	28	300	300	0	0	349	23	1	1	blank2r.bmp	0	1	+	0	3	B3r.bmp	500	1	blank2r.bmp	800	1	BMVZ	800	1	blank2r.bmp	870	5	friedlich	870	1	!	1200	1	blank2r.bmp	1330	0	0	0
020118	17:20:20	1	12	5.0.10.0	d070_B21_B2_pleasA	dB21_valA_070	4	29	300	300	0	0	408	23	0	1	blank2r.bmp	0	1	+	0	5	C1r.bmp	500	1	blank2r.bmp	800	1	GKQX	800	1	blank2r.bmp	870	4	heiter	870	1	!	1200	1	blank2r.bmp	1330	0	0	0
020118	17:20:20	1	12	5.0.10.0	d070_B21_B2_unplA	dB21_valA_070	4	30	300	300	0	0	369	18	1	1	blank2r.bmp	0	1	+	0	2	B2r.bmp	500	1	blank2r.bmp	800	1	GKQX	800	1	blank2r.bmp	870	5	schlecht	870	1	!	1200	1	blank2r.bmp	1330	0	0	0
020118	17:20:20	1	12	5.0.10.0	d070_B21_B1_unplA	dB21_valA_070	4	31	300	300	0	0	429	18	0	1	blank2r.bmp	0	1	+	0	6	C2r.bmp	500	1	blank2r.bmp	800	1	BMVZ	800	1	blank2r.bmp	870	6	leiden	870	1	!	1200	1	blank2r.bmp	1330	0	0	0
020118	17:20:20	1	12	5.0.10.0	d070_B21_B2_unplA	dB21_valA_070	4	32	300	300	0	0	367	18	1	1	blank2r.bmp	0	1	+	0	4	B4r.bmp	500	1	blank2r.bmp	800	1	GKQX	800	1	blank2r.bmp	870	3	töten	870	1	!	1200	1	blank2r.bmp	1330	0	0	0
020118	17:20:20	1	12	5.0.10.0	d070_B21_B2_pleasA	dB21_valA_070	4	33	300	300	0	0	1099	18	1	1	blank2r.bmp	0	1	+	0	3	B3r.bmp	500	1	blank2r.bmp	800	1	GKQX	800	1	blank2r.bmp	870	6	froh	870	1	!	1200	1	blank2r.bmp	1330	0	0	0
020118	17:20:20	1	12	5.0.10.0	d070_B21_B2_unplA	dB21_valA_070	4	34	300	300	0	0	619	23	0	1	blank2r.bmp	0	1	+	0	6	C2r.bmp	500	1	blank2r.bmp	800	1	GKQX	800	1	blank2r.bmp	870	1	unfair	870	1	!	1200	1	blank2r.bmp	1330	0	0	0
020118	17:20:20	1	12	5.0.10.0	d070_B21_B1_unplA	dB21_valA_070	4	35	300	300	0	0	746	23	1	1	blank2r.bmp	0	1	+	0	2	B2r.bmp	500	1	blank2r.bmp	800	1	BMVZ	800	1	blank2r.bmp	870	2	neidisch	870	1	!	1200	1	blank2r.bmp	1330	0	0	0
020118	17:20:20	1	12	5.0.10.0	d070_B21_B1_pleasA	dB21_valA_070	4	36	300	300	0	0	1013	18	0	1	blank2r.bmp	0	1	+	0	8	C4r.bmp	500	1	blank2r.bmp	800	1	BMVZ	800	1	blank2r.bmp	870	3	freund	870	1	!	1200	1	blank2r.bmp	1330	0	0	0
020118	17:20:20	1	12	5.0.10.0	d070_B21_B1_unplA	dB21_valA_070	4	37	300	300	0	0	1046	23	1	1	blank2r.bmp	0	1	+	0	4	B4r.bmp	500	1	blank2r.bmp	800	1	BMVZ	800	1	blank2r.bmp	870	5	schlecht	870	1	!	1200	1	blank2r.bmp	1330	0	0	0
020118	17:20:20	1	12	5.0.10.0	d070_B21_B1_unplA	dB21_valA_070	4	38	300	300	0	0	975	23	1	1	blank2r.bmp	0	1	+	0	1	B1r.bmp	500	1	blank2r.bmp	800	1	BMVZ	800	1	blank2r.bmp	870	2	neidisch	870	1	!	1200	1	blank2r.bmp	1330	0	0	0
020118	17:20:20	1	12	5.0.10.0	d070_B21_B2_unplA	dB21_valA_070	4	39	300	300	0	0	185	18	1	1	blank2r.bmp	0	1	+	0	7	C3r.bmp	500	1	blank2r.bmp	800	1	GKQX	800	1	blank2r.bmp	870	1	unfair	870	1	!	1200	1	blank2r.bmp	1330	0	0	0
020118	17:20:20	1	12	5.0.10.0	d070_B21_B2_unplA	dB21_valA_070	4	40	300	300	0	0	667	18	1	1	blank2r.bmp	0	1	+	0	5	C1r.bmp	500	1	blank2r.bmp	800	1	GKQX	800	1	blank2r.bmp	870	6	leiden	870	1	!	1200	1	blank2r.bmp	1330	0	0	0
020118	17:20:20	1	12	5.0.10.0	d070_B21_B2_pleasA	dB21_valA_070	4	41	300	300	0	0	1111	18	1	1	blank2r.bmp	0	1	+	0	5	C1r.bmp	500	1	blank2r.bmp	800	1	GKQX	800	1	blank2r.bmp	870	4	heiter	870	1	!	1200	1	blank2r.bmp	1330	0	0	0
020118	17:20:20	1	12	5.0.10.0	d070_B21_B2_pleasA	dB21_valA_070	4	42	300	300	0	0	1607	23	0	1	blank2r.bmp	0	1	+	0	7	C3r.bmp	500	1	blank2r.bmp	800	1	GKQX	800	1	blank2r.bmp	870	3	freund	870	1	!	1200	1	blank2r.bmp	1330	0	0	0
020118	17:20:20	1	12	5.0.10.0	d070_B21_B1_pleasA	dB21_valA_070	4	43	300	300	0	0	718	23	1	1	blank2r.bmp	0	1	+	0	3	B3r.bmp	500	1	blank2r.bmp	800	1	BMVZ	800	1	blank2r.bmp	870	6	froh	870	1	!	1200	1	blank2r.bmp	1330	0	0	0
020118	17:20:20	1	12	5.0.10.0	d070_B21_B2_pleasA	dB21_valA_070	4	44	300	300	0	0	632	18	1	1	blank2r.bmp	0	1	+	0	1	B1r.bmp	500	1	blank2r.bmp	800	1	GKQX	800	1	blank2r.bmp	870	1	toll	870	1	!	1200	1	blank2r.bmp	1330	0	0	0
020118	17:20:20	1	12	5.0.10.0	d070_B21_B1_unplA	dB21_valA_070	4	45	300	300	0	0	552	23	1	1	blank2r.bmp	0	1	+	0	4	B4r.bmp	500	1	blank2r.bmp	800	1	BMVZ	800	1	blank2r.bmp	870	4	elend	870	1	!	1200	1	blank2r.bmp	1330	0	0	0
020118	17:20:20	1	12	5.0.10.0	d070_B21_B1_pleasA	dB21_valA_070	4	46	300	300	0	0	655	23	1	1	blank2r.bmp	0	1	+	0	2	B2r.bmp	500	1	blank2r.bmp	800	1	BMVZ	800	1	blank2r.bmp	870	5	friedlich	870	1	!	1200	1	blank2r.bmp	1330	0	0	0
020118	17:20:20	1	12	5.0.10.0	d070_B21_B2_pleasA	dB21_valA_070	4	47	300	300	0	0	877	18	1	1	blank2r.bmp	0	1	+	0	8	C4r.bmp	500	1	blank2r.bmp	800	1	GKQX	800	1	blank2r.bmp	870	2	schön	870	1	!	1200	1	blank2r.bmp	1330	0	0	0
020118	17:20:20	1	12	5.0.10.0	d070_B21_B1_unplA	dB21_valA_070	4	48	300	300	0	0	697	18	0	1	blank2r.bmp	0	1	+	0	6	C2r.bmp	500	1	blank2r.bmp	800	1	BMVZ	800	1	blank2r.bmp	870	3	töten	870	1	!	1200	1	blank2r.bmp	1330	0	0	0
020118	17:20:20	1	12	5.0.10.0	dL_A21_A1_unplB	dA21_valB_pract1	6	1	300	300	0	0	91	23	1	1	blank2r.bmp	0	1	+	0	5	C1r.bmp	500	1	blank2r.bmp	700	1	NPLW	700	3	B3r.bmp	830	1	blank2r.bmp	870	2	geizig	870	1	!	1200	1	blank2r.bmp	1330
020118	17:20:20	1	12	5.0.10.0	dL_A21_A1_unplB	dA21_valB_pract1	6	2	300	300	0	0	227	23	1	1	blank2r.bmp	0	1	+	0	6	C2r.bmp	500	1	blank2r.bmp	700	1	NPLW	700	2	B2r.bmp	830	1	blank2r.bmp	870	3	ärger	870	1	!	1200	1	blank2r.bmp	1330
020118	17:20:20	1	12	5.0.10.0	dL_A21_A2_unplB	dA21_valB_pract1	6	3	300	300	0	0	317	18	1	1	blank2r.bmp	0	1	+	0	1	B1r.bmp	500	1	blank2r.bmp	700	1	DHJF	700	4	B4r.bmp	830	1	blank2r.bmp	870	5	kummer	870	1	!	1200	1	blank2r.bmp	1330
020118	17:20:20	1	12	5.0.10.0	dL_A21_A2_pleasB	dA21_valB_pract1	6	4	300	300	0	0	262	18	1	1	blank2r.bmp	0	1	+	0	2	B2r.bmp	500	1	blank2r.bmp	700	1	DHJF	700	6	C2r.bmp	830	1	blank2r.bmp	870	5	begabt	870	1	!	1200	1	blank2r.bmp	1330
020118	17:20:20	1	12	5.0.10.0	dL_A21_A1_pleasB	dA21_valB_pract1	6	5	300	300	0	0	245	23	1	1	blank2r.bmp	0	1	+	0	3	B3r.bmp	500	1	blank2r.bmp	700	1	NPLW	700	8	C4r.bmp	830	1	blank2r.bmp	870	2	mutig	870	1	!	1200	1	blank2r.bmp	1330
020118	17:20:20	1	12	5.0.10.0	dL_A21_A2_pleasB	dA21_valB_pract1	6	6	300	300	0	0	354	18	1	1	blank2r.bmp	0	1	+	0	8	C4r.bmp	500	1	blank2r.bmp	700	1	DHJF	700	7	C3r.bmp	830	1	blank2r.bmp	870	6	kreativ	870	1	!	1200	1	blank2r.bmp	1330
020118	17:20:20	1	12	5.0.10.0	dL_A21_A2_pleasB	dA21_valB_pract1	6	7	300	300	0	0	175	18	1	1	blank2r.bmp	0	1	+	0	7	C3r.bmp	500	1	blank2r.bmp	700	1	DHJF	700	5	C1r.bmp	830	1	blank2r.bmp	870	4	treu	870	1	!	1200	1	blank2r.bmp	1330
020118	17:20:20	1	12	5.0.10.0	dL_A21_A2_unplB	dA21_valB_pract1	6	8	300	300	0	0	336	18	1	1	blank2r.bmp	0	1	+	0	4	B4r.bmp	500	1	blank2r.bmp	700	1	DHJF	700	1	B1r.bmp	830	1	blank2r.bmp	870	1	grausam	870	1	!	1200	1	blank2r.bmp	1330
020118	17:20:20	1	12	5.0.10.0	dL_A21_A1_pleasB	dA21_valB_pract1	6	9	300	300	0	0	393	23	1	1	blank2r.bmp	0	1	+	0	3	B3r.bmp	500	1	blank2r.bmp	700	1	NPLW	700	4	B4r.bmp	830	1	blank2r.bmp	870	3	kuss	870	1	!	1200	1	blank2r.bmp	1330
020118	17:20:20	1	12	5.0.10.0	dL_A21_A2_unplB	dA21_valB_pract1	6	10	300	300	0	0	799	23	0	1	blank2r.bmp	0	1	+	0	6	C2r.bmp	500	1	blank2r.bmp	700	1	DHJF	700	7	C3r.bmp	830	1	blank2r.bmp	870	4	böse	870	1	!	1200	1	blank2r.bmp	1330
020118	17:20:20	1	12	5.0.10.0	dL_A21_A1_pleasB	dA21_valB_pract1	6	11	300	300	0	0	242	23	1	1	blank2r.bmp	0	1	+	0	7	C3r.bmp	500	1	blank2r.bmp	700	1	NPLW	700	6	C2r.bmp	830	1	blank2r.bmp	870	1	gut	870	1	!	1200	1	blank2r.bmp	1330
020118	17:20:20	1	12	5.0.10.0	dL_A21_A1_unplB	dA21_valB_pract1	6	12	300	300	0	0	962	23	1	1	blank2r.bmp	0	1	+	0	8	C4r.bmp	500	1	blank2r.bmp	700	1	NPLW	700	1	B1r.bmp	830	1	blank2r.bmp	870	6	traurig	870	1	!	1200	1	blank2r.bmp	1330
020118	17:20:20	1	12	5.0.10.0	dM_A21_A2_pleasB	dA21_valB_pract2	7	1	300	300	0	0	807	18	1	1	blank2r.bmp	0	1	+	0	4	B4r.bmp	500	1	blank2r.bmp	730	1	DHJF	730	3	B3r.bmp	830	1	blank2r.bmp	870	2	mutig	870	1	!	1200	1	blank2r.bmp	1330
020118	17:20:20	1	12	5.0.10.0	dM_A21_A2_pleasB	dA21_valB_pract2	7	2	300	300	0	0	291	18	1	1	blank2r.bmp	0	1	+	0	5	C1r.bmp	500	1	blank2r.bmp	730	1	DHJF	730	8	C4r.bmp	830	1	blank2r.bmp	870	3	kuss	870	1	!	1200	1	blank2r.bmp	1330
020118	17:20:20	1	12	5.0.10.0	dM_A21_A1_unplB	dA21_valB_pract2	7	3	300	300	0	0	254	23	1	1	blank2r.bmp	0	1	+	0	2	B2r.bmp	500	1	blank2r.bmp	730	1	NPLW	730	5	C1r.bmp	830	1	blank2r.bmp	870	6	traurig	870	1	!	1200	1	blank2r.bmp	1330
020118	17:20:20	1	12	5.0.10.0	dM_A21_A1_unplB	dA21_valB_pract2	7	4	300	300	0	0	133	23	1	1	blank2r.bmp	0	1	+	0	1	B1r.bmp	500	1	blank2r.bmp	730	1	NPLW	730	2	B2r.bmp	830	1	blank2r.bmp	870	4	böse	870	1	!	1200	1	blank2r.bmp	1330
020118	17:20:20	1	12	5.0.10.0	dM_A21_A1_pleasB	dA21_valB_pract2	7	5	300	300	0	0	234	23	1	1	blank2r.bmp	0	1	+	0	1	B1r.bmp	500	1	blank2r.bmp	730	1	NPLW	730	6	C2r.bmp	830	1	blank2r.bmp	870	6	kreativ	870	1	!	1200	1	blank2r.bmp	1330
020118	17:20:20	1	12	5.0.10.0	dM_A21_A1_pleasB	dA21_valB_pract2	7	6	300	300	0	0	137	23	1	1	blank2r.bmp	0	1	+	0	4	B4r.bmp	500	1	blank2r.bmp	730	1	NPLW	730	8	C4r.bmp	830	1	blank2r.bmp	870	5	begabt	870	1	!	1200	1	blank2r.bmp	1330
020118	17:20:20	1	12	5.0.10.0	dM_A21_A1_pleasB	dA21_valB_pract2	7	7	300	300	0	0	473	23	1	1	blank2r.bmp	0	1	+	0	6	C2r.bmp	500	1	blank2r.bmp	730	1	NPLW	730	1	B1r.bmp	830	1	blank2r.bmp	870	1	gut	870	1	!	1200	1	blank2r.bmp	1330
020118	17:20:20	1	12	5.0.10.0	dM_A21_A1_unplB	dA21_valB_pract2	7	8	300	300	0	0	332	23	1	1	blank2r.bmp	0	1	+	0	7	C3r.bmp	500	1	blank2r.bmp	730	1	NPLW	730	2	B2r.bmp	830	1	blank2r.bmp	870	3	ärger	870	1	!	1200	1	blank2r.bmp	1330
020118	17:20:20	1	12	5.0.10.0	dM_A21_A2_pleasB	dA21_valB_pract2	7	9	300	300	0	0	487	18	1	1	blank2r.bmp	0	1	+	0	3	B3r.bmp	500	1	blank2r.bmp	730	1	DHJF	730	4	B4r.bmp	830	1	blank2r.bmp	870	4	treu	870	1	!	1200	1	blank2r.bmp	1330
020118	17:20:20	1	12	5.0.10.0	dM_A21_A2_unplB	dA21_valB_pract2	7	10	300	300	0	0	288	18	1	1	blank2r.bmp	0	1	+	0	8	C4r.bmp	500	1	blank2r.bmp	730	1	DHJF	730	5	C1r.bmp	830	1	blank2r.bmp	870	5	kummer	870	1	!	1200	1	blank2r.bmp	1330
020118	17:20:20	1	12	5.0.10.0	dM_A21_A2_unplB	dA21_valB_pract2	7	11	300	300	0	0	39	18	1	1	blank2r.bmp	0	1	+	0	5	C1r.bmp	500	1	blank2r.bmp	730	1	DHJF	730	3	B3r.bmp	830	1	blank2r.bmp	870	2	geizig	870	1	!	1200	1	blank2r.bmp	1330
020118	17:20:20	1	12	5.0.10.0	dM_A21_A2_unplB	dA21_valB_pract2	7	12	300	300	0	0	170	18	1	1	blank2r.bmp	0	1	+	0	2	B2r.bmp	500	1	blank2r.bmp	730	1	DHJF	730	7	C3r.bmp	830	1	blank2r.bmp	870	1	grausam	870	1	!	1200	1	blank2r.bmp	1330
020118	17:20:20	1	12	5.0.10.0	d080_A21_A2_pleasB	dA21_valB_080	8	1	300	300	0	0	520	18	1	1	blank2r.bmp	0	1	+	0	4	B4r.bmp	500	1	blank2r.bmp	800	1	DHJF	800	1	blank2r.bmp	880	5	begabt	880	1	!	1210	1	blank2r.bmp	1340	0	0	0
020118	17:20:20	1	12	5.0.10.0	d080_A21_A1_unplB	dA21_valB_080	8	2	300	300	0	0	518	23	1	1	blank2r.bmp	0	1	+	0	2	B2r.bmp	500	1	blank2r.bmp	800	1	NPLW	800	1	blank2r.bmp	880	4	böse	880	1	!	1210	1	blank2r.bmp	1340	0	0	0
020118	17:20:20	1	12	5.0.10.0	d080_A21_A1_pleasB	dA21_valB_080	8	3	300	300	0	0	805	23	1	1	blank2r.bmp	0	1	+	0	8	C4r.bmp	500	1	blank2r.bmp	800	1	NPLW	800	1	blank2r.bmp	880	6	kreativ	880	1	!	1210	1	blank2r.bmp	1340	0	0	0
020118	17:20:20	1	12	5.0.10.0	d080_A21_A1_pleasB	dA21_valB_080	8	4	300	300	0	0	398	23	1	1	blank2r.bmp	0	1	+	0	6	C2r.bmp	500	1	blank2r.bmp	800	1	NPLW	800	1	blank2r.bmp	880	4	treu	880	1	!	1210	1	blank2r.bmp	1340	0	0	0
020118	17:20:20	1	12	5.0.10.0	d080_A21_A2_unplB	dA21_valB_080	8	5	300	300	0	0	376	18	1	1	blank2r.bmp	0	1	+	0	7	C3r.bmp	500	1	blank2r.bmp	800	1	DHJF	800	1	blank2r.bmp	880	3	ärger	880	1	!	1210	1	blank2r.bmp	1340	0	0	0
020118	17:20:20	1	12	5.0.10.0	d080_A21_A2_unplB	dA21_valB_080	8	6	300	300	0	0	158	18	1	1	blank2r.bmp	0	1	+	0	1	B1r.bmp	500	1	blank2r.bmp	800	1	DHJF	800	1	blank2r.bmp	880	2	geizig	880	1	!	1210	1	blank2r.bmp	1340	0	0	0
020118	17:20:20	1	12	5.0.10.0	d080_A21_A2_pleasB	dA21_valB_080	8	7	300	300	0	0	726	18	1	1	blank2r.bmp	0	1	+	0	3	B3r.bmp	500	1	blank2r.bmp	800	1	DHJF	800	1	blank2r.bmp	880	3	kuss	880	1	!	1210	1	blank2r.bmp	1340	0	0	0
020118	17:20:20	1	12	5.0.10.0	d080_A21_A2_unplB	dA21_valB_080	8	8	300	300	0	0	295	18	1	1	blank2r.bmp	0	1	+	0	5	C1r.bmp	500	1	blank2r.bmp	800	1	DHJF	800	1	blank2r.bmp	880	5	kummer	880	1	!	1210	1	blank2r.bmp	1340	0	0	0
020118	17:20:20	1	12	5.0.10.0	d080_A21_A1_pleasB	dA21_valB_080	8	9	300	300	0	0	308	23	1	1	blank2r.bmp	0	1	+	0	1	B1r.bmp	500	1	blank2r.bmp	800	1	NPLW	800	1	blank2r.bmp	880	1	gut	880	1	!	1210	1	blank2r.bmp	1340	0	0	0
020118	17:20:20	1	12	5.0.10.0	d080_A21_A2_pleasB	dA21_valB_080	8	10	300	300	0	0	595	18	1	1	blank2r.bmp	0	1	+	0	8	C4r.bmp	500	1	blank2r.bmp	800	1	DHJF	800	1	blank2r.bmp	880	2	mutig	880	1	!	1210	1	blank2r.bmp	1340	0	0	0
020118	17:20:20	1	12	5.0.10.0	d080_A21_A1_pleasB	dA21_valB_080	8	11	300	300	0	0	589	18	0	1	blank2r.bmp	0	1	+	0	5	C1r.bmp	500	1	blank2r.bmp	800	1	NPLW	800	1	blank2r.bmp	880	2	mutig	880	1	!	1210	1	blank2r.bmp	1340	0	0	0
020118	17:20:20	1	12	5.0.10.0	d080_A21_A1_unplB	dA21_valB_080	8	12	300	300	0	0	554	18	0	1	blank2r.bmp	0	1	+	0	7	C3r.bmp	500	1	blank2r.bmp	800	1	NPLW	800	1	blank2r.bmp	880	6	traurig	880	1	!	1210	1	blank2r.bmp	1340	0	0	0
020118	17:20:20	1	12	5.0.10.0	d080_A21_A1_pleasB	dA21_valB_080	8	13	300	300	0	0	105	23	1	1	blank2r.bmp	0	1	+	0	6	C2r.bmp	500	1	blank2r.bmp	800	1	NPLW	800	1	blank2r.bmp	880	6	kreativ	880	1	!	1210	1	blank2r.bmp	1340	0	0	0
020118	17:20:20	1	12	5.0.10.0	d080_A21_A1_unplB	dA21_valB_080	8	14	300	300	0	0	598	23	1	1	blank2r.bmp	0	1	+	0	3	B3r.bmp	500	1	blank2r.bmp	800	1	NPLW	800	1	blank2r.bmp	880	1	grausam	880	1	!	1210	1	blank2r.bmp	1340	0	0	0
020118	17:20:20	1	12	5.0.10.0	d080_A21_A1_pleasB	dA21_valB_080	8	15	300	300	0	0	289	23	1	1	blank2r.bmp	0	1	+	0	4	B4r.bmp	500	1	blank2r.bmp	800	1	NPLW	800	1	blank2r.bmp	880	4	treu	880	1	!	1210	1	blank2r.bmp	1340	0	0	0
020118	17:20:20	1	12	5.0.10.0	d080_A21_A2_unplB	dA21_valB_080	8	16	300	300	0	0	191	18	1	1	blank2r.bmp	0	1	+	0	2	B2r.bmp	500	1	blank2r.bmp	800	1	DHJF	800	1	blank2r.bmp	880	2	geizig	880	1	!	1210	1	blank2r.bmp	1340	0	0	0
020118	17:20:20	1	12	5.0.10.0	d080_A21_A2_unplB	dA21_valB_080	8	17	300	300	0	0	430	18	1	1	blank2r.bmp	0	1	+	0	5	C1r.bmp	500	1	blank2r.bmp	800	1	DHJF	800	1	blank2r.bmp	880	5	kummer	880	1	!	1210	1	blank2r.bmp	1340	0	0	0
020118	17:20:20	1	12	5.0.10.0	d080_A21_A2_unplB	dA21_valB_080	8	18	300	300	0	0	331	18	1	1	blank2r.bmp	0	1	+	0	7	C3r.bmp	500	1	blank2r.bmp	800	1	DHJF	800	1	blank2r.bmp	880	6	traurig	880	1	!	1210	1	blank2r.bmp	1340	0	0	0
020118	17:20:20	1	12	5.0.10.0	d080_A21_A2_pleasB	dA21_valB_080	8	19	300	300	0	0	161	18	1	1	blank2r.bmp	0	1	+	0	3	B3r.bmp	500	1	blank2r.bmp	800	1	DHJF	800	1	blank2r.bmp	880	3	kuss	880	1	!	1210	1	blank2r.bmp	1340	0	0	0
020118	17:20:20	1	12	5.0.10.0	d080_A21_A2_unplB	dA21_valB_080	8	20	300	300	0	0	254	18	1	1	blank2r.bmp	0	1	+	0	8	C4r.bmp	500	1	blank2r.bmp	800	1	DHJF	800	1	blank2r.bmp	880	3	ärger	880	1	!	1210	1	blank2r.bmp	1340	0	0	0
020118	17:20:20	1	12	5.0.10.0	d080_A21_A1_pleasB	dA21_valB_080	8	21	300	300	0	0	368	18	0	1	blank2r.bmp	0	1	+	0	4	B4r.bmp	500	1	blank2r.bmp	800	1	NPLW	800	1	blank2r.bmp	880	5	begabt	880	1	!	1210	1	blank2r.bmp	1340	0	0	0
020118	17:20:20	1	12	5.0.10.0	d080_A21_A2_unplB	dA21_valB_080	8	22	300	300	0	0	329	18	1	1	blank2r.bmp	0	1	+	0	6	C2r.bmp	500	1	blank2r.bmp	800	1	DHJF	800	1	blank2r.bmp	880	4	böse	880	1	!	1210	1	blank2r.bmp	1340	0	0	0
020118	17:20:20	1	12	5.0.10.0	d080_A21_A1_pleasB	dA21_valB_080	8	23	300	300	0	0	431	18	0	1	blank2r.bmp	0	1	+	0	1	B1r.bmp	500	1	blank2r.bmp	800	1	NPLW	800	1	blank2r.bmp	880	1	gut	880	1	!	1210	1	blank2r.bmp	1340	0	0	0
020118	17:20:20	1	12	5.0.10.0	d080_A21_A1_unplB	dA21_valB_080	8	24	300	300	0	0	245	23	1	1	blank2r.bmp	0	1	+	0	2	B2r.bmp	500	1	blank2r.bmp	800	1	NPLW	800	1	blank2r.bmp	880	1	grausam	880	1	!	1210	1	blank2r.bmp	1340	0	0	0
020118	17:20:20	1	12	5.0.10.0	d080_A21_A1_unplB	dA21_valB_080	8	25	300	300	0	0	215	23	1	1	blank2r.bmp	0	1	+	0	2	B2r.bmp	500	1	blank2r.bmp	800	1	NPLW	800	1	blank2r.bmp	880	5	kummer	880	1	!	1210	1	blank2r.bmp	1340	0	0	0
020118	17:20:20	1	12	5.0.10.0	d080_A21_A2_pleasB	dA21_valB_080	8	26	300	300	0	0	593	23	0	1	blank2r.bmp	0	1	+	0	1	B1r.bmp	500	1	blank2r.bmp	800	1	DHJF	800	1	blank2r.bmp	880	2	mutig	880	1	!	1210	1	blank2r.bmp	1340	0	0	0
020118	17:20:20	1	12	5.0.10.0	d080_A21_A1_unplB	dA21_valB_080	8	27	300	300	0	0	970	18	0	1	blank2r.bmp	0	1	+	0	5	C1r.bmp	500	1	blank2r.bmp	800	1	NPLW	800	1	blank2r.bmp	880	6	traurig	880	1	!	1210	1	blank2r.bmp	1340	0	0	0
020118	17:20:20	1	12	5.0.10.0	d080_A21_A1_unplB	dA21_valB_080	8	28	300	300	0	0	419	23	1	1	blank2r.bmp	0	1	+	0	7	C3r.bmp	500	1	blank2r.bmp	800	1	NPLW	800	1	blank2r.bmp	880	4	böse	880	1	!	1210	1	blank2r.bmp	1340	0	0	0
020118	17:20:20	1	12	5.0.10.0	d080_A21_A2_unplB	dA21_valB_080	8	29	300	300	0	0	287	18	1	1	blank2r.bmp	0	1	+	0	4	B4r.bmp	500	1	blank2r.bmp	800	1	DHJF	800	1	blank2r.bmp	880	3	ärger	880	1	!	1210	1	blank2r.bmp	1340	0	0	0
020118	17:20:20	1	12	5.0.10.0	d080_A21_A2_pleasB	dA21_valB_080	8	30	300	300	0	0	309	18	1	1	blank2r.bmp	0	1	+	0	3	B3r.bmp	500	1	blank2r.bmp	800	1	DHJF	800	1	blank2r.bmp	880	6	kreativ	880	1	!	1210	1	blank2r.bmp	1340	0	0	0
020118	17:20:20	1	12	5.0.10.0	d080_A21_A1_unplB	dA21_valB_080	8	31	300	300	0	0	329	23	1	1	blank2r.bmp	0	1	+	0	6	C2r.bmp	500	1	blank2r.bmp	800	1	NPLW	800	1	blank2r.bmp	880	1	grausam	880	1	!	1210	1	blank2r.bmp	1340	0	0	0
020118	17:20:20	1	12	5.0.10.0	d080_A21_A2_unplB	dA21_valB_080	8	32	300	300	0	0	226	18	1	1	blank2r.bmp	0	1	+	0	8	C4r.bmp	500	1	blank2r.bmp	800	1	DHJF	800	1	blank2r.bmp	880	2	geizig	880	1	!	1210	1	blank2r.bmp	1340	0	0	0
020118	17:20:20	1	12	5.0.10.0	d080_A21_A1_pleasB	dA21_valB_080	8	33	300	300	0	0	261	23	1	1	blank2r.bmp	0	1	+	0	4	B4r.bmp	500	1	blank2r.bmp	800	1	NPLW	800	1	blank2r.bmp	880	1	gut	880	1	!	1210	1	blank2r.bmp	1340	0	0	0
020118	17:20:20	1	12	5.0.10.0	d080_A21_A2_pleasB	dA21_valB_080	8	34	300	300	0	0	154	18	1	1	blank2r.bmp	0	1	+	0	6	C2r.bmp	500	1	blank2r.bmp	800	1	DHJF	800	1	blank2r.bmp	880	5	begabt	880	1	!	1210	1	blank2r.bmp	1340	0	0	0
020118	17:20:20	1	12	5.0.10.0	d080_A21_A2_pleasB	dA21_valB_080	8	35	300	300	0	0	219	18	1	1	blank2r.bmp	0	1	+	0	7	C3r.bmp	500	1	blank2r.bmp	800	1	DHJF	800	1	blank2r.bmp	880	3	kuss	880	1	!	1210	1	blank2r.bmp	1340	0	0	0
020118	17:20:20	1	12	5.0.10.0	d080_A21_A2_pleasB	dA21_valB_080	8	36	300	300	0	0	581	18	1	1	blank2r.bmp	0	1	+	0	5	C1r.bmp	500	1	blank2r.bmp	800	1	DHJF	800	1	blank2r.bmp	880	4	treu	880	1	!	1210	1	blank2r.bmp	1340	0	0	0
020118	17:20:20	1	12	5.0.10.0	d080_A21_A1_pleasB	dA21_valB_080	8	37	300	300	0	0	210	23	1	1	blank2r.bmp	0	1	+	0	2	B2r.bmp	500	1	blank2r.bmp	800	1	NPLW	800	1	blank2r.bmp	880	6	kreativ	880	1	!	1210	1	blank2r.bmp	1340	0	0	0
020118	17:20:20	1	12	5.0.10.0	d080_A21_A1_pleasB	dA21_valB_080	8	38	300	300	0	0	259	23	1	1	blank2r.bmp	0	1	+	0	1	B1r.bmp	500	1	blank2r.bmp	800	1	NPLW	800	1	blank2r.bmp	880	2	mutig	880	1	!	1210	1	blank2r.bmp	1340	0	0	0
020118	17:20:20	1	12	5.0.10.0	d080_A21_A1_unplB	dA21_valB_080	8	39	300	300	0	0	365	23	1	1	blank2r.bmp	0	1	+	0	3	B3r.bmp	500	1	blank2r.bmp	800	1	NPLW	800	1	blank2r.bmp	880	4	böse	880	1	!	1210	1	blank2r.bmp	1340	0	0	0
020118	17:20:20	1	12	5.0.10.0	d080_A21_A1_unplB	dA21_valB_080	8	40	300	300	0	0	328	23	1	1	blank2r.bmp	0	1	+	0	8	C4r.bmp	500	1	blank2r.bmp	800	1	NPLW	800	1	blank2r.bmp	880	5	kummer	880	1	!	1210	1	blank2r.bmp	1340	0	0	0
020118	17:20:20	1	12	5.0.10.0	d080_A21_A2_pleasB	dA21_valB_080	8	41	300	300	0	0	339	18	1	1	blank2r.bmp	0	1	+	0	2	B2r.bmp	500	1	blank2r.bmp	800	1	DHJF	800	1	blank2r.bmp	880	1	gut	880	1	!	1210	1	blank2r.bmp	1340	0	0	0
020118	17:20:20	1	12	5.0.10.0	d080_A21_A2_pleasB	dA21_valB_080	8	42	300	300	0	0	747	18	1	1	blank2r.bmp	0	1	+	0	7	C3r.bmp	500	1	blank2r.bmp	800	1	DHJF	800	1	blank2r.bmp	880	4	treu	880	1	!	1210	1	blank2r.bmp	1340	0	0	0
020118	17:20:20	1	12	5.0.10.0	d080_A21_A1_unplB	dA21_valB_080	8	43	300	300	0	0	346	18	0	1	blank2r.bmp	0	1	+	0	3	B3r.bmp	500	1	blank2r.bmp	800	1	NPLW	800	1	blank2r.bmp	880	3	ärger	880	1	!	1210	1	blank2r.bmp	1340	0	0	0
020118	17:20:20	1	12	5.0.10.0	d080_A21_A2_unplB	dA21_valB_080	8	44	300	300	0	0	290	18	1	1	blank2r.bmp	0	1	+	0	5	C1r.bmp	500	1	blank2r.bmp	800	1	DHJF	800	1	blank2r.bmp	880	2	geizig	880	1	!	1210	1	blank2r.bmp	1340	0	0	0
020118	17:20:20	1	12	5.0.10.0	d080_A21_A2_unplB	dA21_valB_080	8	45	300	300	0	0	421	18	1	1	blank2r.bmp	0	1	+	0	8	C4r.bmp	500	1	blank2r.bmp	800	1	DHJF	800	1	blank2r.bmp	880	6	traurig	880	1	!	1210	1	blank2r.bmp	1340	0	0	0
020118	17:20:20	1	12	5.0.10.0	d080_A21_A2_pleasB	dA21_valB_080	8	46	300	300	0	0	823	18	1	1	blank2r.bmp	0	1	+	0	1	B1r.bmp	500	1	blank2r.bmp	800	1	DHJF	800	1	blank2r.bmp	880	5	begabt	880	1	!	1210	1	blank2r.bmp	1340	0	0	0
020118	17:20:20	1	12	5.0.10.0	d080_A21_A1_pleasB	dA21_valB_080	8	47	300	300	0	0	677	23	1	1	blank2r.bmp	0	1	+	0	4	B4r.bmp	500	1	blank2r.bmp	800	1	NPLW	800	1	blank2r.bmp	880	3	kuss	880	1	!	1210	1	blank2r.bmp	1340	0	0	0
020118	17:20:20	1	12	5.0.10.0	d080_A21_A1_unplB	dA21_valB_080	8	48	300	300	0	0	846	23	1	1	blank2r.bmp	0	1	+	0	6	C2r.bmp	500	1	blank2r.bmp	800	1	NPLW	800	1	blank2r.bmp	880	1	grausam	880	1	!	1210	1	blank2r.bmp	1340	0	0	0
020118	17:20:20	1	12	5.0.10.0	d080_A21_A1_unplB	dA21_valB_080	9	1	300	300	0	0	554	18	0	1	blank2r.bmp	0	1	+	0	2	B2r.bmp	500	1	blank2r.bmp	800	1	NPLW	800	1	blank2r.bmp	880	1	grausam	880	1	!	1210	1	blank2r.bmp	1340	0	0	0
020118	17:20:20	1	12	5.0.10.0	d080_A21_A2_unplB	dA21_valB_080	9	2	300	300	0	0	479	18	1	1	blank2r.bmp	0	1	+	0	5	C1r.bmp	500	1	blank2r.bmp	800	1	DHJF	800	1	blank2r.bmp	880	5	kummer	880	1	!	1210	1	blank2r.bmp	1340	0	0	0
020118	17:20:20	1	12	5.0.10.0	d080_A21_A1_unplB	dA21_valB_080	9	3	300	300	0	0	442	18	0	1	blank2r.bmp	0	1	+	0	1	B1r.bmp	500	1	blank2r.bmp	800	1	NPLW	800	1	blank2r.bmp	880	2	geizig	880	1	!	1210	1	blank2r.bmp	1340	0	0	0
020118	17:20:20	1	12	5.0.10.0	d080_A21_A2_pleasB	dA21_valB_080	9	4	300	300	0	0	496	18	1	1	blank2r.bmp	0	1	+	0	4	B4r.bmp	500	1	blank2r.bmp	800	1	DHJF	800	1	blank2r.bmp	880	1	gut	880	1	!	1210	1	blank2r.bmp	1340	0	0	0
020118	17:20:20	1	12	5.0.10.0	d080_A21_A2_unplB	dA21_valB_080	9	5	300	300	0	0	617	18	1	1	blank2r.bmp	0	1	+	0	3	B3r.bmp	500	1	blank2r.bmp	800	1	DHJF	800	1	blank2r.bmp	880	3	ärger	880	1	!	1210	1	blank2r.bmp	1340	0	0	0
020118	17:20:20	1	12	5.0.10.0	d080_A21_A2_pleasB	dA21_valB_080	9	6	300	300	0	0	464	23	0	1	blank2r.bmp	0	1	+	0	8	C4r.bmp	500	1	blank2r.bmp	800	1	DHJF	800	1	blank2r.bmp	880	5	begabt	880	1	!	1210	1	blank2r.bmp	1340	0	0	0
020118	17:20:20	1	12	5.0.10.0	d080_A21_A2_unplB	dA21_valB_080	9	7	300	300	0	0	243	23	0	1	blank2r.bmp	0	1	+	0	7	C3r.bmp	500	1	blank2r.bmp	800	1	DHJF	800	1	blank2r.bmp	880	6	traurig	880	1	!	1210	1	blank2r.bmp	1340	0	0	0
020118	17:20:20	1	12	5.0.10.0	d080_A21_A2_unplB	dA21_valB_080	9	8	300	300	0	0	380	18	1	1	blank2r.bmp	0	1	+	0	6	C2r.bmp	500	1	blank2r.bmp	800	1	DHJF	800	1	blank2r.bmp	880	4	böse	880	1	!	1210	1	blank2r.bmp	1340	0	0	0
020118	17:20:20	1	12	5.0.10.0	d080_A21_A2_pleasB	dA21_valB_080	9	9	300	300	0	0	267	18	1	1	blank2r.bmp	0	1	+	0	4	B4r.bmp	500	1	blank2r.bmp	800	1	DHJF	800	1	blank2r.bmp	880	6	kreativ	880	1	!	1210	1	blank2r.bmp	1340	0	0	0
020118	17:20:20	1	12	5.0.10.0	d080_A21_A2_unplB	dA21_valB_080	9	10	300	300	0	0	700	18	1	1	blank2r.bmp	0	1	+	0	7	C3r.bmp	500	1	blank2r.bmp	800	1	DHJF	800	1	blank2r.bmp	880	3	ärger	880	1	!	1210	1	blank2r.bmp	1340	0	0	0
020118	17:20:20	1	12	5.0.10.0	d080_A21_A1_pleasB	dA21_valB_080	9	11	300	300	0	0	170	23	1	1	blank2r.bmp	0	1	+	0	6	C2r.bmp	500	1	blank2r.bmp	800	1	NPLW	800	1	blank2r.bmp	880	2	mutig	880	1	!	1210	1	blank2r.bmp	1340	0	0	0
020118	17:20:20	1	12	5.0.10.0	d080_A21_A1_unplB	dA21_valB_080	9	12	300	300	0	0	146	23	1	1	blank2r.bmp	0	1	+	0	5	C1r.bmp	500	1	blank2r.bmp	800	1	NPLW	800	1	blank2r.bmp	880	4	böse	880	1	!	1210	1	blank2r.bmp	1340	0	0	0
020118	17:20:20	1	12	5.0.10.0	d080_A21_A1_unplB	dA21_valB_080	9	13	300	300	0	0	1784	18	0	1	blank2r.bmp	0	1	+	0	3	B3r.bmp	500	1	blank2r.bmp	800	1	NPLW	800	1	blank2r.bmp	880	5	kummer	880	1	!	1210	1	blank2r.bmp	1340	0	0	0
020118	17:20:20	1	12	5.0.10.0	d080_A21_A1_unplB	dA21_valB_080	9	14	300	300	0	0	514	23	1	1	blank2r.bmp	0	1	+	0	1	B1r.bmp	500	1	blank2r.bmp	800	1	NPLW	800	1	blank2r.bmp	880	1	grausam	880	1	!	1210	1	blank2r.bmp	1340	0	0	0
020118	17:20:20	1	12	5.0.10.0	d080_A21_A1_unplB	dA21_valB_080	9	15	300	300	0	0	295	18	0	1	blank2r.bmp	0	1	+	0	2	B2r.bmp	500	1	blank2r.bmp	800	1	NPLW	800	1	blank2r.bmp	880	2	geizig	880	1	!	1210	1	blank2r.bmp	1340	0	0	0
020118	17:20:20	1	12	5.0.10.0	d080_A21_A1_pleasB	dA21_valB_080	9	16	300	300	0	0	310	18	0	1	blank2r.bmp	0	1	+	0	8	C4r.bmp	500	1	blank2r.bmp	800	1	NPLW	800	1	blank2r.bmp	880	4	treu	880	1	!	1210	1	blank2r.bmp	1340	0	0	0
020118	17:20:20	1	12	5.0.10.0	d080_A21_A2_unplB	dA21_valB_080	9	17	300	300	0	0	356	18	1	1	blank2r.bmp	0	1	+	0	4	B4r.bmp	500	1	blank2r.bmp	800	1	DHJF	800	1	blank2r.bmp	880	6	traurig	880	1	!	1210	1	blank2r.bmp	1340	0	0	0
020118	17:20:20	1	12	5.0.10.0	d080_A21_A1_unplB	dA21_valB_080	9	18	300	300	0	0	330	23	1	1	blank2r.bmp	0	1	+	0	6	C2r.bmp	500	1	blank2r.bmp	800	1	NPLW	800	1	blank2r.bmp	880	3	ärger	880	1	!	1210	1	blank2r.bmp	1340	0	0	0
020118	17:20:20	1	12	5.0.10.0	d080_A21_A2_pleasB	dA21_valB_080	9	19	300	300	0	0	290	23	0	1	blank2r.bmp	0	1	+	0	5	C1r.bmp	500	1	blank2r.bmp	800	1	DHJF	800	1	blank2r.bmp	880	3	kuss	880	1	!	1210	1	blank2r.bmp	1340	0	0	0
020118	17:20:20	1	12	5.0.10.0	d080_A21_A2_unplB	dA21_valB_080	9	20	300	300	0	0	705	23	0	1	blank2r.bmp	0	1	+	0	1	B1r.bmp	500	1	blank2r.bmp	800	1	DHJF	800	1	blank2r.bmp	880	6	traurig	880	1	!	1210	1	blank2r.bmp	1340	0	0	0
020118	17:20:20	1	12	5.0.10.0	d080_A21_A2_pleasB	dA21_valB_080	9	21	300	300	0	0	180	18	1	1	blank2r.bmp	0	1	+	0	8	C4r.bmp	500	1	blank2r.bmp	800	1	DHJF	800	1	blank2r.bmp	880	2	mutig	880	1	!	1210	1	blank2r.bmp	1340	0	0	0
020118	17:20:20	1	12	5.0.10.0	d080_A21_A2_unplB	dA21_valB_080	9	22	300	300	0	0	798	18	1	1	blank2r.bmp	0	1	+	0	3	B3r.bmp	500	1	blank2r.bmp	800	1	DHJF	800	1	blank2r.bmp	880	4	böse	880	1	!	1210	1	blank2r.bmp	1340	0	0	0
020118	17:20:20	1	12	5.0.10.0	d080_A21_A1_unplB	dA21_valB_080	9	23	300	300	0	0	974	18	0	1	blank2r.bmp	0	1	+	0	7	C3r.bmp	500	1	blank2r.bmp	800	1	NPLW	800	1	blank2r.bmp	880	2	geizig	880	1	!	1210	1	blank2r.bmp	1340	0	0	0
020118	17:20:20	1	12	5.0.10.0	d080_A21_A1_pleasB	dA21_valB_080	9	24	300	300	0	0	1034	23	1	1	blank2r.bmp	0	1	+	0	2	B2r.bmp	500	1	blank2r.bmp	800	1	NPLW	800	1	blank2r.bmp	880	4	treu	880	1	!	1210	1	blank2r.bmp	1340	0	0	0
020118	17:20:20	1	12	5.0.10.0	d080_A21_A1_pleasB	dA21_valB_080	9	25	300	300	0	0	1078	23	1	1	blank2r.bmp	0	1	+	0	5	C1r.bmp	500	1	blank2r.bmp	800	1	NPLW	800	1	blank2r.bmp	880	6	kreativ	880	1	!	1210	1	blank2r.bmp	1340	0	0	0
020118	17:20:20	1	12	5.0.10.0	d080_A21_A1_unplB	dA21_valB_080	9	26	300	300	0	0	506	18	0	1	blank2r.bmp	0	1	+	0	8	C4r.bmp	500	1	blank2r.bmp	800	1	NPLW	800	1	blank2r.bmp	880	1	grausam	880	1	!	1210	1	blank2r.bmp	1340	0	0	0
020118	17:20:20	1	12	5.0.10.0	d080_A21_A2_pleasB	dA21_valB_080	9	27	300	300	0	0	907	18	1	1	blank2r.bmp	0	1	+	0	6	C2r.bmp	500	1	blank2r.bmp	800	1	DHJF	800	1	blank2r.bmp	880	1	gut	880	1	!	1210	1	blank2r.bmp	1340	0	0	0
020118	17:20:20	1	12	5.0.10.0	d080_A21_A1_pleasB	dA21_valB_080	9	28	300	300	0	0	340	23	1	1	blank2r.bmp	0	1	+	0	7	C3r.bmp	500	1	blank2r.bmp	800	1	NPLW	800	1	blank2r.bmp	880	5	begabt	880	1	!	1210	1	blank2r.bmp	1340	0	0	0
020118	17:20:20	1	12	5.0.10.0	d080_A21_A2_unplB	dA21_valB_080	9	29	300	300	0	0	950	23	0	1	blank2r.bmp	0	1	+	0	3	B3r.bmp	500	1	blank2r.bmp	800	1	DHJF	800	1	blank2r.bmp	880	5	kummer	880	1	!	1210	1	blank2r.bmp	1340	0	0	0
020118	17:20:20	1	12	5.0.10.0	d080_A21_A2_unplB	dA21_valB_080	9	30	300	300	0	0	1123	18	1	1	blank2r.bmp	0	1	+	0	1	B1r.bmp	500	1	blank2r.bmp	800	1	DHJF	800	1	blank2r.bmp	880	6	traurig	880	1	!	1210	1	blank2r.bmp	1340	0	0	0
020118	17:20:20	1	12	5.0.10.0	d080_A21_A2_pleasB	dA21_valB_080	9	31	300	300	0	0	1381	18	1	1	blank2r.bmp	0	1	+	0	2	B2r.bmp	500	1	blank2r.bmp	800	1	DHJF	800	1	blank2r.bmp	880	3	kuss	880	1	!	1210	1	blank2r.bmp	1340	0	0	0
020118	17:20:20	1	12	5.0.10.0	d080_A21_A1_unplB	dA21_valB_080	9	32	300	300	0	0	1119	23	1	1	blank2r.bmp	0	1	+	0	4	B4r.bmp	500	1	blank2r.bmp	800	1	NPLW	800	1	blank2r.bmp	880	5	kummer	880	1	!	1210	1	blank2r.bmp	1340	0	0	0
020118	17:20:20	1	12	5.0.10.0	d080_A21_A2_unplB	dA21_valB_080	9	33	300	300	0	0	977	18	1	1	blank2r.bmp	0	1	+	0	4	B4r.bmp	500	1	blank2r.bmp	800	1	DHJF	800	1	blank2r.bmp	880	2	geizig	880	1	!	1210	1	blank2r.bmp	1340	0	0	0
020118	17:20:20	1	12	5.0.10.0	d080_A21_A1_unplB	dA21_valB_080	9	34	300	300	0	0	692	23	1	1	blank2r.bmp	0	1	+	0	5	C1r.bmp	500	1	blank2r.bmp	800	1	NPLW	800	1	blank2r.bmp	880	3	ärger	880	1	!	1210	1	blank2r.bmp	1340	0	0	0
020118	17:20:20	1	12	5.0.10.0	d080_A21_A1_pleasB	dA21_valB_080	9	35	300	300	0	0	1343	18	0	1	blank2r.bmp	0	1	+	0	7	C3r.bmp	500	1	blank2r.bmp	800	1	NPLW	800	1	blank2r.bmp	880	1	gut	880	1	!	1210	1	blank2r.bmp	1340	0	0	0
020118	17:20:20	1	12	5.0.10.0	d080_A21_A1_pleasB	dA21_valB_080	9	36	300	300	0	0	1055	18	0	1	blank2r.bmp	0	1	+	0	1	B1r.bmp	500	1	blank2r.bmp	800	1	NPLW	800	1	blank2r.bmp	880	3	kuss	880	1	!	1210	1	blank2r.bmp	1340	0	0	0
020118	17:20:20	1	12	5.0.10.0	d080_A21_A1_pleasB	dA21_valB_080	9	37	300	300	0	0	2764	23	1	1	blank2r.bmp	0	1	+	0	2	B2r.bmp	500	1	blank2r.bmp	800	1	NPLW	800	1	blank2r.bmp	880	5	begabt	880	1	!	1210	1	blank2r.bmp	1340	0	0	0
020118	17:20:20	1	12	5.0.10.0	d080_A21_A2_pleasB	dA21_valB_080	9	38	300	300	0	0	444	23	0	1	blank2r.bmp	0	1	+	0	8	C4r.bmp	500	1	blank2r.bmp	800	1	DHJF	800	1	blank2r.bmp	880	2	mutig	880	1	!	1210	1	blank2r.bmp	1340	0	0	0
020118	17:20:20	1	12	5.0.10.0	d080_A21_A2_pleasB	dA21_valB_080	9	39	300	300	0	0	830	18	1	1	blank2r.bmp	0	1	+	0	6	C2r.bmp	500	1	blank2r.bmp	800	1	DHJF	800	1	blank2r.bmp	880	4	treu	880	1	!	1210	1	blank2r.bmp	1340	0	0	0
020118	17:20:20	1	12	5.0.10.0	d080_A21_A2_pleasB	dA21_valB_080	9	40	300	300	0	0	961	18	1	1	blank2r.bmp	0	1	+	0	3	B3r.bmp	500	1	blank2r.bmp	800	1	DHJF	800	1	blank2r.bmp	880	6	kreativ	880	1	!	1210	1	blank2r.bmp	1340	0	0	0
020118	17:20:20	1	12	5.0.10.0	d080_A21_A1_pleasB	dA21_valB_080	9	41	300	300	0	0	823	23	1	1	blank2r.bmp	0	1	+	0	3	B3r.bmp	500	1	blank2r.bmp	800	1	NPLW	800	1	blank2r.bmp	880	4	treu	880	1	!	1210	1	blank2r.bmp	1340	0	0	0
020118	17:20:20	1	12	5.0.10.0	d080_A21_A1_pleasB	dA21_valB_080	9	42	300	300	0	0	286	18	0	1	blank2r.bmp	0	1	+	0	8	C4r.bmp	500	1	blank2r.bmp	800	1	NPLW	800	1	blank2r.bmp	880	6	kreativ	880	1	!	1210	1	blank2r.bmp	1340	0	0	0
020118	17:20:20	1	12	5.0.10.0	d080_A21_A1_pleasB	dA21_valB_080	9	43	300	300	0	0	106	23	1	1	blank2r.bmp	0	1	+	0	7	C3r.bmp	500	1	blank2r.bmp	800	1	NPLW	800	1	blank2r.bmp	880	5	begabt	880	1	!	1210	1	blank2r.bmp	1340	0	0	0
020118	17:20:20	1	12	5.0.10.0	d080_A21_A1_pleasB	dA21_valB_080	9	44	300	300	0	0	1561	23	1	1	blank2r.bmp	0	1	+	0	1	B1r.bmp	500	1	blank2r.bmp	800	1	NPLW	800	1	blank2r.bmp	880	1	gut	880	1	!	1210	1	blank2r.bmp	1340	0	0	0
020118	17:20:20	1	12	5.0.10.0	d080_A21_A1_unplB	dA21_valB_080	9	45	300	300	0	0	402	18	0	1	blank2r.bmp	0	1	+	0	2	B2r.bmp	500	1	blank2r.bmp	800	1	NPLW	800	1	blank2r.bmp	880	1	grausam	880	1	!	1210	1	blank2r.bmp	1340	0	0	0
020118	17:20:20	1	12	5.0.10.0	d080_A21_A2_pleasB	dA21_valB_080	9	46	300	300	0	0	540	23	0	1	blank2r.bmp	0	1	+	0	5	C1r.bmp	500	1	blank2r.bmp	800	1	DHJF	800	1	blank2r.bmp	880	2	mutig	880	1	!	1210	1	blank2r.bmp	1340	0	0	0
020118	17:20:20	1	12	5.0.10.0	d080_A21_A2_unplB	dA21_valB_080	9	47	300	300	0	0	606	18	1	1	blank2r.bmp	0	1	+	0	4	B4r.bmp	500	1	blank2r.bmp	800	1	DHJF	800	1	blank2r.bmp	880	4	böse	880	1	!	1210	1	blank2r.bmp	1340	0	0	0
020118	17:20:20	1	12	5.0.10.0	d080_A21_A2_pleasB	dA21_valB_080	9	48	300	300	0	0	678	18	1	1	blank2r.bmp	0	1	+	0	6	C2r.bmp	500	1	blank2r.bmp	800	1	DHJF	800	1	blank2r.bmp	880	3	kuss	880	1	!	1210	1	blank2r.bmp	1340	0	0	0
020118	17:20:20	1	12	5.0.10.0	endtrial	endblock	10	1	300	300	0	0	140834	21	0	0	0	0	0	0	0	0	0	0	0	0	0	0	0	0	0	0	0	0	0	0	0	0	0	0	0	0	0	0	0
