date	time	group	subject	build	trialcode	blockcode	blocknum	trialnum	pretrialpause	posttrialpause	trialduration	trialtimeout	latency	response	correct	stimulusnumber1	stimulusitem1	stimulusonset1	stimulusnumber2	stimulusitem2	stimulusonset2	stimulusnumber3	stimulusitem3	stimulusonset3	stimulusnumber4	stimulusitem4	stimulusonset4	stimulusnumber5	stimulusitem5	stimulusonset5	stimulusnumber6	stimulusitem6	stimulusonset6	stimulusnumber7	stimulusitem7	stimulusonset7	stimulusnumber8	stimulusitem8	stimulusonset8	stimulusnumber9	stimulusitem9	stimulusonset9	stimulusnumber10	stimulusitem10	stimulusonset10
020218	09:16:28	1	14	5.0.10.0	dL_A21_A2_unplB	dA21_valB_pract1	1	1	300	300	0	0	4608	18	1	1	blank2r.bmp	0	1	+	0	6	C2r.bmp	500	1	blank2r.bmp	700	1	DHJF	700	5	C1r.bmp	830	1	blank2r.bmp	870	3	ärger	870	1	!	1200	1	blank2r.bmp	1330
020218	09:16:28	1	14	5.0.10.0	dL_A21_A2_pleasB	dA21_valB_pract1	1	2	300	300	0	0	367	18	1	1	blank2r.bmp	0	1	+	0	5	C1r.bmp	500	1	blank2r.bmp	700	1	DHJF	700	4	B4r.bmp	830	1	blank2r.bmp	870	3	kuss	870	1	!	1200	1	blank2r.bmp	1330
020218	09:16:28	1	14	5.0.10.0	dL_A21_A1_pleasB	dA21_valB_pract1	1	3	300	300	0	0	192	23	1	1	blank2r.bmp	0	1	+	0	8	C4r.bmp	500	1	blank2r.bmp	700	1	NPLW	700	3	B3r.bmp	830	1	blank2r.bmp	870	1	gut	870	1	!	1200	1	blank2r.bmp	1330
020218	09:16:28	1	14	5.0.10.0	dL_A21_A2_unplB	dA21_valB_pract1	1	4	300	300	0	0	921	18	1	1	blank2r.bmp	0	1	+	0	1	B1r.bmp	500	1	blank2r.bmp	700	1	DHJF	700	8	C4r.bmp	830	1	blank2r.bmp	870	2	geizig	870	1	!	1200	1	blank2r.bmp	1330
020218	09:16:28	1	14	5.0.10.0	dL_A21_A1_unplB	dA21_valB_pract1	1	5	300	300	0	0	205	23	1	1	blank2r.bmp	0	1	+	0	3	B3r.bmp	500	1	blank2r.bmp	700	1	NPLW	700	6	C2r.bmp	830	1	blank2r.bmp	870	1	grausam	870	1	!	1200	1	blank2r.bmp	1330
020218	09:16:28	1	14	5.0.10.0	dL_A21_A1_pleasB	dA21_valB_pract1	1	6	300	300	0	0	342	23	1	1	blank2r.bmp	0	1	+	0	2	B2r.bmp	500	1	blank2r.bmp	700	1	NPLW	700	1	B1r.bmp	830	1	blank2r.bmp	870	4	treu	870	1	!	1200	1	blank2r.bmp	1330
020218	09:16:28	1	14	5.0.10.0	dL_A21_A1_unplB	dA21_valB_pract1	1	7	300	300	0	0	30	23	1	1	blank2r.bmp	0	1	+	0	7	C3r.bmp	500	1	blank2r.bmp	700	1	NPLW	700	2	B2r.bmp	830	1	blank2r.bmp	870	6	traurig	870	1	!	1200	1	blank2r.bmp	1330
020218	09:16:28	1	14	5.0.10.0	dL_A21_A1_unplB	dA21_valB_pract1	1	8	300	300	0	0	135	23	1	1	blank2r.bmp	0	1	+	0	4	B4r.bmp	500	1	blank2r.bmp	700	1	NPLW	700	7	C3r.bmp	830	1	blank2r.bmp	870	4	böse	870	1	!	1200	1	blank2r.bmp	1330
020218	09:16:28	1	14	5.0.10.0	dL_A21_A2_pleasB	dA21_valB_pract1	1	9	300	300	0	0	468	18	1	1	blank2r.bmp	0	1	+	0	8	C4r.bmp	500	1	blank2r.bmp	700	1	DHJF	700	4	B4r.bmp	830	1	blank2r.bmp	870	2	mutig	870	1	!	1200	1	blank2r.bmp	1330
020218	09:16:28	1	14	5.0.10.0	dL_A21_A2_pleasB	dA21_valB_pract1	1	10	300	300	0	0	203	18	1	1	blank2r.bmp	0	1	+	0	7	C3r.bmp	500	1	blank2r.bmp	700	1	DHJF	700	6	C2r.bmp	830	1	blank2r.bmp	870	6	kreativ	870	1	!	1200	1	blank2r.bmp	1330
020218	09:16:28	1	14	5.0.10.0	dL_A21_A1_pleasB	dA21_valB_pract1	1	11	300	300	0	0	279	23	1	1	blank2r.bmp	0	1	+	0	5	C1r.bmp	500	1	blank2r.bmp	700	1	NPLW	700	7	C3r.bmp	830	1	blank2r.bmp	870	5	begabt	870	1	!	1200	1	blank2r.bmp	1330
020218	09:16:28	1	14	5.0.10.0	dL_A21_A2_unplB	dA21_valB_pract1	1	12	300	300	0	0	311	18	1	1	blank2r.bmp	0	1	+	0	3	B3r.bmp	500	1	blank2r.bmp	700	1	DHJF	700	8	C4r.bmp	830	1	blank2r.bmp	870	5	kummer	870	1	!	1200	1	blank2r.bmp	1330
020218	09:16:28	1	14	5.0.10.0	dM_A21_A2_unplB	dA21_valB_pract2	2	1	300	300	0	0	459	18	1	1	blank2r.bmp	0	1	+	0	6	C2r.bmp	500	1	blank2r.bmp	730	1	DHJF	730	2	B2r.bmp	830	1	blank2r.bmp	870	6	traurig	870	1	!	1200	1	blank2r.bmp	1330
020218	09:16:28	1	14	5.0.10.0	dM_A21_A2_pleasB	dA21_valB_pract2	2	2	300	300	0	0	4749	18	1	1	blank2r.bmp	0	1	+	0	2	B2r.bmp	500	1	blank2r.bmp	730	1	DHJF	730	3	B3r.bmp	830	1	blank2r.bmp	870	4	treu	870	1	!	1200	1	blank2r.bmp	1330
020218	09:16:28	1	14	5.0.10.0	dM_A21_A1_unplB	dA21_valB_pract2	2	3	300	300	0	0	640	23	1	1	blank2r.bmp	0	1	+	0	1	B1r.bmp	500	1	blank2r.bmp	730	1	NPLW	730	5	C1r.bmp	830	1	blank2r.bmp	870	2	geizig	870	1	!	1200	1	blank2r.bmp	1330
020218	09:16:28	1	14	5.0.10.0	dM_A21_A2_unplB	dA21_valB_pract2	2	4	300	300	0	0	314	18	1	1	blank2r.bmp	0	1	+	0	4	B4r.bmp	500	1	blank2r.bmp	730	1	DHJF	730	1	B1r.bmp	830	1	blank2r.bmp	870	1	grausam	870	1	!	1200	1	blank2r.bmp	1330
020218	09:16:28	1	14	5.0.10.0	dM_A21_A1_pleasB	dA21_valB_pract2	2	5	300	300	0	0	196	23	1	1	blank2r.bmp	0	1	+	0	3	B3r.bmp	500	1	blank2r.bmp	730	1	NPLW	730	5	C1r.bmp	830	1	blank2r.bmp	870	2	mutig	870	1	!	1200	1	blank2r.bmp	1330
020218	09:16:28	1	14	5.0.10.0	dM_A21_A1_pleasB	dA21_valB_pract2	2	6	300	300	0	0	456	23	1	1	blank2r.bmp	0	1	+	0	5	C1r.bmp	500	1	blank2r.bmp	730	1	NPLW	730	3	B3r.bmp	830	1	blank2r.bmp	870	5	begabt	870	1	!	1200	1	blank2r.bmp	1330
020218	09:16:28	1	14	5.0.10.0	dM_A21_A1_unplB	dA21_valB_pract2	2	7	300	300	0	0	151	18	0	1	blank2r.bmp	0	1	+	0	2	B2r.bmp	500	1	blank2r.bmp	730	1	NPLW	730	8	C4r.bmp	830	1	blank2r.bmp	870	4	böse	870	1	!	1200	1	blank2r.bmp	1330
020218	09:16:28	1	14	5.0.10.0	dM_A21_A1_pleasB	dA21_valB_pract2	2	8	300	300	0	0	104	23	1	1	blank2r.bmp	0	1	+	0	8	C4r.bmp	500	1	blank2r.bmp	730	1	NPLW	730	6	C2r.bmp	830	1	blank2r.bmp	870	3	kuss	870	1	!	1200	1	blank2r.bmp	1330
020218	09:16:28	1	14	5.0.10.0	dM_A21_A2_pleasB	dA21_valB_pract2	2	9	300	300	0	0	56	18	1	1	blank2r.bmp	0	1	+	0	7	C3r.bmp	500	1	blank2r.bmp	730	1	DHJF	730	2	B2r.bmp	830	1	blank2r.bmp	870	6	kreativ	870	1	!	1200	1	blank2r.bmp	1330
020218	09:16:28	1	14	5.0.10.0	dM_A21_A2_pleasB	dA21_valB_pract2	2	10	300	300	0	0	22	18	1	1	blank2r.bmp	0	1	+	0	4	B4r.bmp	500	1	blank2r.bmp	730	1	DHJF	730	7	C3r.bmp	830	1	blank2r.bmp	870	1	gut	870	1	!	1200	1	blank2r.bmp	1330
020218	09:16:28	1	14	5.0.10.0	dM_A21_A1_unplB	dA21_valB_pract2	2	11	300	300	0	0	4441	23	1	1	blank2r.bmp	0	1	+	0	6	C2r.bmp	500	1	blank2r.bmp	730	1	NPLW	730	1	B1r.bmp	830	1	blank2r.bmp	870	3	ärger	870	1	!	1200	1	blank2r.bmp	1330
020218	09:16:28	1	14	5.0.10.0	dM_A21_A2_unplB	dA21_valB_pract2	2	12	300	300	0	0	688	18	1	1	blank2r.bmp	0	1	+	0	1	B1r.bmp	500	1	blank2r.bmp	730	1	DHJF	730	4	B4r.bmp	830	1	blank2r.bmp	870	5	kummer	870	1	!	1200	1	blank2r.bmp	1330
020218	09:16:28	1	14	5.0.10.0	d070_A21_A1_unplB	dA21_valB_070	3	1	300	300	0	0	815	23	1	1	blank2r.bmp	0	1	+	0	3	B3r.bmp	500	1	blank2r.bmp	800	1	NPLW	800	1	blank2r.bmp	870	6	traurig	870	1	!	1200	1	blank2r.bmp	1330	0	0	0
020218	09:16:28	1	14	5.0.10.0	d070_A21_A1_pleasB	dA21_valB_070	3	2	300	300	0	0	342	23	1	1	blank2r.bmp	0	1	+	0	5	C1r.bmp	500	1	blank2r.bmp	800	1	NPLW	800	1	blank2r.bmp	870	3	kuss	870	1	!	1200	1	blank2r.bmp	1330	0	0	0
020218	09:16:28	1	14	5.0.10.0	d070_A21_A2_unplB	dA21_valB_070	3	3	300	300	0	0	83	18	1	1	blank2r.bmp	0	1	+	0	7	C3r.bmp	500	1	blank2r.bmp	800	1	DHJF	800	1	blank2r.bmp	870	1	grausam	870	1	!	1200	1	blank2r.bmp	1330	0	0	0
020218	09:16:28	1	14	5.0.10.0	d070_A21_A1_unplB	dA21_valB_070	3	4	300	300	0	0	705	18	0	1	blank2r.bmp	0	1	+	0	6	C2r.bmp	500	1	blank2r.bmp	800	1	NPLW	800	1	blank2r.bmp	870	2	geizig	870	1	!	1200	1	blank2r.bmp	1330	0	0	0
020218	09:16:28	1	14	5.0.10.0	d070_A21_A2_pleasB	dA21_valB_070	3	5	300	300	0	0	156	18	1	1	blank2r.bmp	0	1	+	0	2	B2r.bmp	500	1	blank2r.bmp	800	1	DHJF	800	1	blank2r.bmp	870	2	mutig	870	1	!	1200	1	blank2r.bmp	1330	0	0	0
020218	09:16:28	1	14	5.0.10.0	d070_A21_A1_pleasB	dA21_valB_070	3	6	300	300	0	0	401	23	1	1	blank2r.bmp	0	1	+	0	8	C4r.bmp	500	1	blank2r.bmp	800	1	NPLW	800	1	blank2r.bmp	870	1	gut	870	1	!	1200	1	blank2r.bmp	1330	0	0	0
020218	09:16:28	1	14	5.0.10.0	d070_A21_A1_unplB	dA21_valB_070	3	7	300	300	0	0	550	23	1	1	blank2r.bmp	0	1	+	0	4	B4r.bmp	500	1	blank2r.bmp	800	1	NPLW	800	1	blank2r.bmp	870	4	böse	870	1	!	1200	1	blank2r.bmp	1330	0	0	0
020218	09:16:28	1	14	5.0.10.0	d070_A21_A2_unplB	dA21_valB_070	3	8	300	300	0	0	240	18	1	1	blank2r.bmp	0	1	+	0	1	B1r.bmp	500	1	blank2r.bmp	800	1	DHJF	800	1	blank2r.bmp	870	3	ärger	870	1	!	1200	1	blank2r.bmp	1330	0	0	0
020218	09:16:28	1	14	5.0.10.0	d070_A21_A2_unplB	dA21_valB_070	3	9	300	300	0	0	295	18	1	1	blank2r.bmp	0	1	+	0	8	C4r.bmp	500	1	blank2r.bmp	800	1	DHJF	800	1	blank2r.bmp	870	5	kummer	870	1	!	1200	1	blank2r.bmp	1330	0	0	0
020218	09:16:28	1	14	5.0.10.0	d070_A21_A1_pleasB	dA21_valB_070	3	10	300	300	0	0	1529	18	0	1	blank2r.bmp	0	1	+	0	1	B1r.bmp	500	1	blank2r.bmp	800	1	NPLW	800	1	blank2r.bmp	870	5	begabt	870	1	!	1200	1	blank2r.bmp	1330	0	0	0
020218	09:16:28	1	14	5.0.10.0	d070_A21_A2_pleasB	dA21_valB_070	3	11	300	300	0	0	1579	23	0	1	blank2r.bmp	0	1	+	0	5	C1r.bmp	500	1	blank2r.bmp	800	1	DHJF	800	1	blank2r.bmp	870	6	kreativ	870	1	!	1200	1	blank2r.bmp	1330	0	0	0
020218	09:16:28	1	14	5.0.10.0	d070_A21_A1_unplB	dA21_valB_070	3	12	300	300	0	0	1331	23	1	1	blank2r.bmp	0	1	+	0	6	C2r.bmp	500	1	blank2r.bmp	800	1	NPLW	800	1	blank2r.bmp	870	1	grausam	870	1	!	1200	1	blank2r.bmp	1330	0	0	0
020218	09:16:28	1	14	5.0.10.0	d070_A21_A1_pleasB	dA21_valB_070	3	13	300	300	0	0	1918	18	0	1	blank2r.bmp	0	1	+	0	4	B4r.bmp	500	1	blank2r.bmp	800	1	NPLW	800	1	blank2r.bmp	870	4	treu	870	1	!	1200	1	blank2r.bmp	1330	0	0	0
020218	09:16:28	1	14	5.0.10.0	d070_A21_A1_unplB	dA21_valB_070	3	14	300	300	0	0	695	18	0	1	blank2r.bmp	0	1	+	0	3	B3r.bmp	500	1	blank2r.bmp	800	1	NPLW	800	1	blank2r.bmp	870	2	geizig	870	1	!	1200	1	blank2r.bmp	1330	0	0	0
020218	09:16:28	1	14	5.0.10.0	d070_A21_A1_pleasB	dA21_valB_070	3	15	300	300	0	0	499	18	0	1	blank2r.bmp	0	1	+	0	2	B2r.bmp	500	1	blank2r.bmp	800	1	NPLW	800	1	blank2r.bmp	870	3	kuss	870	1	!	1200	1	blank2r.bmp	1330	0	0	0
020218	09:16:28	1	14	5.0.10.0	d070_A21_A2_unplB	dA21_valB_070	3	16	300	300	0	0	467	23	0	1	blank2r.bmp	0	1	+	0	7	C3r.bmp	500	1	blank2r.bmp	800	1	DHJF	800	1	blank2r.bmp	870	5	kummer	870	1	!	1200	1	blank2r.bmp	1330	0	0	0
020218	09:16:28	1	14	5.0.10.0	d070_A21_A2_unplB	dA21_valB_070	3	17	300	300	0	0	1102	23	0	1	blank2r.bmp	0	1	+	0	8	C4r.bmp	500	1	blank2r.bmp	800	1	DHJF	800	1	blank2r.bmp	870	6	traurig	870	1	!	1200	1	blank2r.bmp	1330	0	0	0
020218	09:16:28	1	14	5.0.10.0	d070_A21_A2_pleasB	dA21_valB_070	3	18	300	300	0	0	128	18	1	1	blank2r.bmp	0	1	+	0	6	C2r.bmp	500	1	blank2r.bmp	800	1	DHJF	800	1	blank2r.bmp	870	1	gut	870	1	!	1200	1	blank2r.bmp	1330	0	0	0
020218	09:16:28	1	14	5.0.10.0	d070_A21_A1_unplB	dA21_valB_070	3	19	300	300	0	0	969	18	0	1	blank2r.bmp	0	1	+	0	1	B1r.bmp	500	1	blank2r.bmp	800	1	NPLW	800	1	blank2r.bmp	870	4	böse	870	1	!	1200	1	blank2r.bmp	1330	0	0	0
020218	09:16:28	1	14	5.0.10.0	d070_A21_A1_unplB	dA21_valB_070	3	20	300	300	0	0	646	23	1	1	blank2r.bmp	0	1	+	0	2	B2r.bmp	500	1	blank2r.bmp	800	1	NPLW	800	1	blank2r.bmp	870	3	ärger	870	1	!	1200	1	blank2r.bmp	1330	0	0	0
020218	09:16:28	1	14	5.0.10.0	d070_A21_A1_pleasB	dA21_valB_070	3	21	300	300	0	0	143	23	1	1	blank2r.bmp	0	1	+	0	7	C3r.bmp	500	1	blank2r.bmp	800	1	NPLW	800	1	blank2r.bmp	870	6	kreativ	870	1	!	1200	1	blank2r.bmp	1330	0	0	0
020218	09:16:28	1	14	5.0.10.0	d070_A21_A1_pleasB	dA21_valB_070	3	22	300	300	0	0	384	23	1	1	blank2r.bmp	0	1	+	0	3	B3r.bmp	500	1	blank2r.bmp	800	1	NPLW	800	1	blank2r.bmp	870	2	mutig	870	1	!	1200	1	blank2r.bmp	1330	0	0	0
020218	09:16:28	1	14	5.0.10.0	d070_A21_A1_unplB	dA21_valB_070	3	23	300	300	0	0	56	18	0	1	blank2r.bmp	0	1	+	0	4	B4r.bmp	500	1	blank2r.bmp	800	1	NPLW	800	1	blank2r.bmp	870	2	geizig	870	1	!	1200	1	blank2r.bmp	1330	0	0	0
020218	09:16:28	1	14	5.0.10.0	d070_A21_A2_unplB	dA21_valB_070	3	24	300	300	0	0	1127	18	1	1	blank2r.bmp	0	1	+	0	5	C1r.bmp	500	1	blank2r.bmp	800	1	DHJF	800	1	blank2r.bmp	870	5	kummer	870	1	!	1200	1	blank2r.bmp	1330	0	0	0
020218	09:16:28	1	14	5.0.10.0	d070_A21_A2_pleasB	dA21_valB_070	3	25	300	300	0	0	330	23	0	1	blank2r.bmp	0	1	+	0	8	C4r.bmp	500	1	blank2r.bmp	800	1	DHJF	800	1	blank2r.bmp	870	4	treu	870	1	!	1200	1	blank2r.bmp	1330	0	0	0
020218	09:16:28	1	14	5.0.10.0	d070_A21_A2_pleasB	dA21_valB_070	3	26	300	300	0	0	361	23	0	1	blank2r.bmp	0	1	+	0	1	B1r.bmp	500	1	blank2r.bmp	800	1	DHJF	800	1	blank2r.bmp	870	5	begabt	870	1	!	1200	1	blank2r.bmp	1330	0	0	0
020218	09:16:28	1	14	5.0.10.0	d070_A21_A2_unplB	dA21_valB_070	3	27	300	300	0	0	404	23	0	1	blank2r.bmp	0	1	+	0	3	B3r.bmp	500	1	blank2r.bmp	800	1	DHJF	800	1	blank2r.bmp	870	1	grausam	870	1	!	1200	1	blank2r.bmp	1330	0	0	0
020218	09:16:28	1	14	5.0.10.0	d070_A21_A2_pleasB	dA21_valB_070	3	28	300	300	0	0	134	23	0	1	blank2r.bmp	0	1	+	0	5	C1r.bmp	500	1	blank2r.bmp	800	1	DHJF	800	1	blank2r.bmp	870	6	kreativ	870	1	!	1200	1	blank2r.bmp	1330	0	0	0
020218	09:16:28	1	14	5.0.10.0	d070_A21_A1_pleasB	dA21_valB_070	3	29	300	300	0	0	119	18	0	1	blank2r.bmp	0	1	+	0	6	C2r.bmp	500	1	blank2r.bmp	800	1	NPLW	800	1	blank2r.bmp	870	2	mutig	870	1	!	1200	1	blank2r.bmp	1330	0	0	0
020218	09:16:28	1	14	5.0.10.0	d070_A21_A2_unplB	dA21_valB_070	3	30	300	300	0	0	550	18	1	1	blank2r.bmp	0	1	+	0	7	C3r.bmp	500	1	blank2r.bmp	800	1	DHJF	800	1	blank2r.bmp	870	6	traurig	870	1	!	1200	1	blank2r.bmp	1330	0	0	0
020218	09:16:28	1	14	5.0.10.0	d070_A21_A1_pleasB	dA21_valB_070	3	31	300	300	0	0	713	18	0	1	blank2r.bmp	0	1	+	0	2	B2r.bmp	500	1	blank2r.bmp	800	1	NPLW	800	1	blank2r.bmp	870	3	kuss	870	1	!	1200	1	blank2r.bmp	1330	0	0	0
020218	09:16:28	1	14	5.0.10.0	d070_A21_A2_unplB	dA21_valB_070	3	32	300	300	0	0	1866	18	1	1	blank2r.bmp	0	1	+	0	4	B4r.bmp	500	1	blank2r.bmp	800	1	DHJF	800	1	blank2r.bmp	870	4	böse	870	1	!	1200	1	blank2r.bmp	1330	0	0	0
020218	09:16:28	1	14	5.0.10.0	d070_A21_A1_unplB	dA21_valB_070	3	33	300	300	0	0	854	18	0	1	blank2r.bmp	0	1	+	0	5	C1r.bmp	500	1	blank2r.bmp	800	1	NPLW	800	1	blank2r.bmp	870	3	ärger	870	1	!	1200	1	blank2r.bmp	1330	0	0	0
020218	09:16:28	1	14	5.0.10.0	d070_A21_A2_pleasB	dA21_valB_070	3	34	300	300	0	0	251	23	0	1	blank2r.bmp	0	1	+	0	4	B4r.bmp	500	1	blank2r.bmp	800	1	DHJF	800	1	blank2r.bmp	870	4	treu	870	1	!	1200	1	blank2r.bmp	1330	0	0	0
020218	09:16:28	1	14	5.0.10.0	d070_A21_A1_unplB	dA21_valB_070	3	35	300	300	0	0	245	23	1	1	blank2r.bmp	0	1	+	0	8	C4r.bmp	500	1	blank2r.bmp	800	1	NPLW	800	1	blank2r.bmp	870	4	böse	870	1	!	1200	1	blank2r.bmp	1330	0	0	0
020218	09:16:28	1	14	5.0.10.0	d070_A21_A2_pleasB	dA21_valB_070	3	36	300	300	0	0	1017	23	0	1	blank2r.bmp	0	1	+	0	7	C3r.bmp	500	1	blank2r.bmp	800	1	DHJF	800	1	blank2r.bmp	870	1	gut	870	1	!	1200	1	blank2r.bmp	1330	0	0	0
020218	09:16:28	1	14	5.0.10.0	d070_A21_A2_pleasB	dA21_valB_070	3	37	300	300	0	0	319	18	1	1	blank2r.bmp	0	1	+	0	3	B3r.bmp	500	1	blank2r.bmp	800	1	DHJF	800	1	blank2r.bmp	870	5	begabt	870	1	!	1200	1	blank2r.bmp	1330	0	0	0
020218	09:16:28	1	14	5.0.10.0	d070_A21_A1_unplB	dA21_valB_070	3	38	300	300	0	0	1653	23	1	1	blank2r.bmp	0	1	+	0	6	C2r.bmp	500	1	blank2r.bmp	800	1	NPLW	800	1	blank2r.bmp	870	1	grausam	870	1	!	1200	1	blank2r.bmp	1330	0	0	0
020218	09:16:28	1	14	5.0.10.0	d070_A21_A1_pleasB	dA21_valB_070	3	39	300	300	0	0	1975	23	1	1	blank2r.bmp	0	1	+	0	1	B1r.bmp	500	1	blank2r.bmp	800	1	NPLW	800	1	blank2r.bmp	870	6	kreativ	870	1	!	1200	1	blank2r.bmp	1330	0	0	0
020218	09:16:28	1	14	5.0.10.0	d070_A21_A1_pleasB	dA21_valB_070	3	40	300	300	0	0	909	18	0	1	blank2r.bmp	0	1	+	0	2	B2r.bmp	500	1	blank2r.bmp	800	1	NPLW	800	1	blank2r.bmp	870	1	gut	870	1	!	1200	1	blank2r.bmp	1330	0	0	0
020218	09:16:28	1	14	5.0.10.0	d070_A21_A1_unplB	dA21_valB_070	3	41	300	300	0	0	743	23	1	1	blank2r.bmp	0	1	+	0	6	C2r.bmp	500	1	blank2r.bmp	800	1	NPLW	800	1	blank2r.bmp	870	6	traurig	870	1	!	1200	1	blank2r.bmp	1330	0	0	0
020218	09:16:28	1	14	5.0.10.0	d070_A21_A2_pleasB	dA21_valB_070	3	42	300	300	0	0	482	18	1	1	blank2r.bmp	0	1	+	0	8	C4r.bmp	500	1	blank2r.bmp	800	1	DHJF	800	1	blank2r.bmp	870	4	treu	870	1	!	1200	1	blank2r.bmp	1330	0	0	0
020218	09:16:28	1	14	5.0.10.0	d070_A21_A2_unplB	dA21_valB_070	3	43	300	300	0	0	528	18	1	1	blank2r.bmp	0	1	+	0	7	C3r.bmp	500	1	blank2r.bmp	800	1	DHJF	800	1	blank2r.bmp	870	3	ärger	870	1	!	1200	1	blank2r.bmp	1330	0	0	0
020218	09:16:28	1	14	5.0.10.0	d070_A21_A2_pleasB	dA21_valB_070	3	44	300	300	0	0	1381	23	0	1	blank2r.bmp	0	1	+	0	5	C1r.bmp	500	1	blank2r.bmp	800	1	DHJF	800	1	blank2r.bmp	870	2	mutig	870	1	!	1200	1	blank2r.bmp	1330	0	0	0
020218	09:16:28	1	14	5.0.10.0	d070_A21_A2_pleasB	dA21_valB_070	3	45	300	300	0	0	2032	18	1	1	blank2r.bmp	0	1	+	0	3	B3r.bmp	500	1	blank2r.bmp	800	1	DHJF	800	1	blank2r.bmp	870	5	begabt	870	1	!	1200	1	blank2r.bmp	1330	0	0	0
020218	09:16:28	1	14	5.0.10.0	d070_A21_A2_unplB	dA21_valB_070	3	46	300	300	0	0	283	23	0	1	blank2r.bmp	0	1	+	0	2	B2r.bmp	500	1	blank2r.bmp	800	1	DHJF	800	1	blank2r.bmp	870	5	kummer	870	1	!	1200	1	blank2r.bmp	1330	0	0	0
020218	09:16:28	1	14	5.0.10.0	d070_A21_A2_unplB	dA21_valB_070	3	47	300	300	0	0	824	23	0	1	blank2r.bmp	0	1	+	0	4	B4r.bmp	500	1	blank2r.bmp	800	1	DHJF	800	1	blank2r.bmp	870	2	geizig	870	1	!	1200	1	blank2r.bmp	1330	0	0	0
020218	09:16:28	1	14	5.0.10.0	d070_A21_A1_pleasB	dA21_valB_070	3	48	300	300	0	0	1695	23	1	1	blank2r.bmp	0	1	+	0	1	B1r.bmp	500	1	blank2r.bmp	800	1	NPLW	800	1	blank2r.bmp	870	3	kuss	870	1	!	1200	1	blank2r.bmp	1330	0	0	0
020218	09:16:28	1	14	5.0.10.0	d070_A21_A2_pleasB	dA21_valB_070	4	1	300	300	0	0	1598	23	0	1	blank2r.bmp	0	1	+	0	7	C3r.bmp	500	1	blank2r.bmp	800	1	DHJF	800	1	blank2r.bmp	870	5	begabt	870	1	!	1200	1	blank2r.bmp	1330	0	0	0
020218	09:16:28	1	14	5.0.10.0	d070_A21_A1_unplB	dA21_valB_070	4	2	300	300	0	0	361	23	1	1	blank2r.bmp	0	1	+	0	3	B3r.bmp	500	1	blank2r.bmp	800	1	NPLW	800	1	blank2r.bmp	870	3	ärger	870	1	!	1200	1	blank2r.bmp	1330	0	0	0
020218	09:16:28	1	14	5.0.10.0	d070_A21_A1_pleasB	dA21_valB_070	4	3	300	300	0	0	726	23	1	1	blank2r.bmp	0	1	+	0	4	B4r.bmp	500	1	blank2r.bmp	800	1	NPLW	800	1	blank2r.bmp	870	6	kreativ	870	1	!	1200	1	blank2r.bmp	1330	0	0	0
020218	09:16:28	1	14	5.0.10.0	d070_A21_A1_pleasB	dA21_valB_070	4	4	300	300	0	0	325	23	1	1	blank2r.bmp	0	1	+	0	6	C2r.bmp	500	1	blank2r.bmp	800	1	NPLW	800	1	blank2r.bmp	870	1	gut	870	1	!	1200	1	blank2r.bmp	1330	0	0	0
020218	09:16:28	1	14	5.0.10.0	d070_A21_A2_unplB	dA21_valB_070	4	5	300	300	0	0	562	18	1	1	blank2r.bmp	0	1	+	0	2	B2r.bmp	500	1	blank2r.bmp	800	1	DHJF	800	1	blank2r.bmp	870	5	kummer	870	1	!	1200	1	blank2r.bmp	1330	0	0	0
020218	09:16:28	1	14	5.0.10.0	d070_A21_A2_unplB	dA21_valB_070	4	6	300	300	0	0	1406	18	1	1	blank2r.bmp	0	1	+	0	5	C1r.bmp	500	1	blank2r.bmp	800	1	DHJF	800	1	blank2r.bmp	870	2	geizig	870	1	!	1200	1	blank2r.bmp	1330	0	0	0
020218	09:16:28	1	14	5.0.10.0	d070_A21_A1_unplB	dA21_valB_070	4	7	300	300	0	0	819	23	1	1	blank2r.bmp	0	1	+	0	8	C4r.bmp	500	1	blank2r.bmp	800	1	NPLW	800	1	blank2r.bmp	870	4	böse	870	1	!	1200	1	blank2r.bmp	1330	0	0	0
020218	09:16:28	1	14	5.0.10.0	d070_A21_A1_pleasB	dA21_valB_070	4	8	300	300	0	0	228	18	0	1	blank2r.bmp	0	1	+	0	1	B1r.bmp	500	1	blank2r.bmp	800	1	NPLW	800	1	blank2r.bmp	870	4	treu	870	1	!	1200	1	blank2r.bmp	1330	0	0	0
020218	09:16:28	1	14	5.0.10.0	d070_A21_A1_pleasB	dA21_valB_070	4	9	300	300	0	0	1846	23	1	1	blank2r.bmp	0	1	+	0	2	B2r.bmp	500	1	blank2r.bmp	800	1	NPLW	800	1	blank2r.bmp	870	3	kuss	870	1	!	1200	1	blank2r.bmp	1330	0	0	0
020218	09:16:28	1	14	5.0.10.0	d070_A21_A1_unplB	dA21_valB_070	4	10	300	300	0	0	672	23	1	1	blank2r.bmp	0	1	+	0	8	C4r.bmp	500	1	blank2r.bmp	800	1	NPLW	800	1	blank2r.bmp	870	6	traurig	870	1	!	1200	1	blank2r.bmp	1330	0	0	0
020218	09:16:28	1	14	5.0.10.0	d070_A21_A2_unplB	dA21_valB_070	4	11	300	300	0	0	937	18	1	1	blank2r.bmp	0	1	+	0	7	C3r.bmp	500	1	blank2r.bmp	800	1	DHJF	800	1	blank2r.bmp	870	1	grausam	870	1	!	1200	1	blank2r.bmp	1330	0	0	0
020218	09:16:28	1	14	5.0.10.0	d070_A21_A1_pleasB	dA21_valB_070	4	12	300	300	0	0	1436	23	1	1	blank2r.bmp	0	1	+	0	6	C2r.bmp	500	1	blank2r.bmp	800	1	NPLW	800	1	blank2r.bmp	870	2	mutig	870	1	!	1200	1	blank2r.bmp	1330	0	0	0
020218	09:16:28	1	14	5.0.10.0	d070_A21_A2_pleasB	dA21_valB_070	4	13	300	300	0	0	2426	23	0	1	blank2r.bmp	0	1	+	0	4	B4r.bmp	500	1	blank2r.bmp	800	1	DHJF	800	1	blank2r.bmp	870	1	gut	870	1	!	1200	1	blank2r.bmp	1330	0	0	0
020218	09:16:28	1	14	5.0.10.0	d070_A21_A2_unplB	dA21_valB_070	4	14	300	300	0	0	953	18	1	1	blank2r.bmp	0	1	+	0	1	B1r.bmp	500	1	blank2r.bmp	800	1	DHJF	800	1	blank2r.bmp	870	4	böse	870	1	!	1200	1	blank2r.bmp	1330	0	0	0
020218	09:16:28	1	14	5.0.10.0	d070_A21_A1_unplB	dA21_valB_070	4	15	300	300	0	0	595	23	1	1	blank2r.bmp	0	1	+	0	5	C1r.bmp	500	1	blank2r.bmp	800	1	NPLW	800	1	blank2r.bmp	870	1	grausam	870	1	!	1200	1	blank2r.bmp	1330	0	0	0
020218	09:16:28	1	14	5.0.10.0	d070_A21_A1_pleasB	dA21_valB_070	4	16	300	300	0	0	394	18	0	1	blank2r.bmp	0	1	+	0	3	B3r.bmp	500	1	blank2r.bmp	800	1	NPLW	800	1	blank2r.bmp	870	4	treu	870	1	!	1200	1	blank2r.bmp	1330	0	0	0
020218	09:16:28	1	14	5.0.10.0	d070_A21_A2_pleasB	dA21_valB_070	4	17	300	300	0	0	3860	18	1	1	blank2r.bmp	0	1	+	0	4	B4r.bmp	500	1	blank2r.bmp	800	1	DHJF	800	1	blank2r.bmp	870	2	mutig	870	1	!	1200	1	blank2r.bmp	1330	0	0	0
020218	09:16:28	1	14	5.0.10.0	d070_A21_A1_unplB	dA21_valB_070	4	18	300	300	0	0	1117	23	1	1	blank2r.bmp	0	1	+	0	5	C1r.bmp	500	1	blank2r.bmp	800	1	NPLW	800	1	blank2r.bmp	870	3	ärger	870	1	!	1200	1	blank2r.bmp	1330	0	0	0
020218	09:16:28	1	14	5.0.10.0	d070_A21_A2_unplB	dA21_valB_070	4	19	300	300	0	0	748	23	0	1	blank2r.bmp	0	1	+	0	3	B3r.bmp	500	1	blank2r.bmp	800	1	DHJF	800	1	blank2r.bmp	870	5	kummer	870	1	!	1200	1	blank2r.bmp	1330	0	0	0
020218	09:16:28	1	14	5.0.10.0	d070_A21_A1_pleasB	dA21_valB_070	4	20	300	300	0	0	607	23	1	1	blank2r.bmp	0	1	+	0	1	B1r.bmp	500	1	blank2r.bmp	800	1	NPLW	800	1	blank2r.bmp	870	6	kreativ	870	1	!	1200	1	blank2r.bmp	1330	0	0	0
020218	09:16:28	1	14	5.0.10.0	d070_A21_A1_pleasB	dA21_valB_070	4	21	300	300	0	0	453	23	1	1	blank2r.bmp	0	1	+	0	7	C3r.bmp	500	1	blank2r.bmp	800	1	NPLW	800	1	blank2r.bmp	870	3	kuss	870	1	!	1200	1	blank2r.bmp	1330	0	0	0
020218	09:16:28	1	14	5.0.10.0	d070_A21_A1_unplB	dA21_valB_070	4	22	300	300	0	0	1078	18	0	1	blank2r.bmp	0	1	+	0	6	C2r.bmp	500	1	blank2r.bmp	800	1	NPLW	800	1	blank2r.bmp	870	6	traurig	870	1	!	1200	1	blank2r.bmp	1330	0	0	0
020218	09:16:28	1	14	5.0.10.0	d070_A21_A2_pleasB	dA21_valB_070	4	23	300	300	0	0	1027	18	1	1	blank2r.bmp	0	1	+	0	8	C4r.bmp	500	1	blank2r.bmp	800	1	DHJF	800	1	blank2r.bmp	870	5	begabt	870	1	!	1200	1	blank2r.bmp	1330	0	0	0
020218	09:16:28	1	14	5.0.10.0	d070_A21_A1_pleasB	dA21_valB_070	4	24	300	300	0	0	422	23	1	1	blank2r.bmp	0	1	+	0	2	B2r.bmp	500	1	blank2r.bmp	800	1	NPLW	800	1	blank2r.bmp	870	5	begabt	870	1	!	1200	1	blank2r.bmp	1330	0	0	0
020218	09:16:28	1	14	5.0.10.0	d070_A21_A2_unplB	dA21_valB_070	4	25	300	300	0	0	1493	23	0	1	blank2r.bmp	0	1	+	0	8	C4r.bmp	500	1	blank2r.bmp	800	1	DHJF	800	1	blank2r.bmp	870	2	geizig	870	1	!	1200	1	blank2r.bmp	1330	0	0	0
020218	09:16:28	1	14	5.0.10.0	d070_A21_A1_unplB	dA21_valB_070	4	26	300	300	0	0	892	23	1	1	blank2r.bmp	0	1	+	0	5	C1r.bmp	500	1	blank2r.bmp	800	1	NPLW	800	1	blank2r.bmp	870	3	ärger	870	1	!	1200	1	blank2r.bmp	1330	0	0	0
020218	09:16:28	1	14	5.0.10.0	d070_A21_A2_unplB	dA21_valB_070	4	27	300	300	0	0	234	18	1	1	blank2r.bmp	0	1	+	0	4	B4r.bmp	500	1	blank2r.bmp	800	1	DHJF	800	1	blank2r.bmp	870	1	grausam	870	1	!	1200	1	blank2r.bmp	1330	0	0	0
020218	09:16:28	1	14	5.0.10.0	d070_A21_A1_pleasB	dA21_valB_070	4	28	300	300	0	0	655	23	1	1	blank2r.bmp	0	1	+	0	1	B1r.bmp	500	1	blank2r.bmp	800	1	NPLW	800	1	blank2r.bmp	870	1	gut	870	1	!	1200	1	blank2r.bmp	1330	0	0	0
020218	09:16:28	1	14	5.0.10.0	d070_A21_A1_unplB	dA21_valB_070	4	29	300	300	0	0	187	18	0	1	blank2r.bmp	0	1	+	0	3	B3r.bmp	500	1	blank2r.bmp	800	1	NPLW	800	1	blank2r.bmp	870	6	traurig	870	1	!	1200	1	blank2r.bmp	1330	0	0	0
020218	09:16:28	1	14	5.0.10.0	d070_A21_A2_unplB	dA21_valB_070	4	30	300	300	0	0	91	18	1	1	blank2r.bmp	0	1	+	0	6	C2r.bmp	500	1	blank2r.bmp	800	1	DHJF	800	1	blank2r.bmp	870	5	kummer	870	1	!	1200	1	blank2r.bmp	1330	0	0	0
020218	09:16:28	1	14	5.0.10.0	d070_A21_A2_pleasB	dA21_valB_070	4	31	300	300	0	0	750	23	0	1	blank2r.bmp	0	1	+	0	2	B2r.bmp	500	1	blank2r.bmp	800	1	DHJF	800	1	blank2r.bmp	870	6	kreativ	870	1	!	1200	1	blank2r.bmp	1330	0	0	0
020218	09:16:28	1	14	5.0.10.0	d070_A21_A2_unplB	dA21_valB_070	4	32	300	300	0	0	1486	18	1	1	blank2r.bmp	0	1	+	0	7	C3r.bmp	500	1	blank2r.bmp	800	1	DHJF	800	1	blank2r.bmp	870	4	böse	870	1	!	1200	1	blank2r.bmp	1330	0	0	0
020218	09:16:28	1	14	5.0.10.0	d070_A21_A1_unplB	dA21_valB_070	4	33	300	300	0	0	664	23	1	1	blank2r.bmp	0	1	+	0	6	C2r.bmp	500	1	blank2r.bmp	800	1	NPLW	800	1	blank2r.bmp	870	2	geizig	870	1	!	1200	1	blank2r.bmp	1330	0	0	0
020218	09:16:28	1	14	5.0.10.0	d070_A21_A1_unplB	dA21_valB_070	4	34	300	300	0	0	309	23	1	1	blank2r.bmp	0	1	+	0	2	B2r.bmp	500	1	blank2r.bmp	800	1	NPLW	800	1	blank2r.bmp	870	6	traurig	870	1	!	1200	1	blank2r.bmp	1330	0	0	0
020218	09:16:28	1	14	5.0.10.0	d070_A21_A2_pleasB	dA21_valB_070	4	35	300	300	0	0	936	18	1	1	blank2r.bmp	0	1	+	0	4	B4r.bmp	500	1	blank2r.bmp	800	1	DHJF	800	1	blank2r.bmp	870	2	mutig	870	1	!	1200	1	blank2r.bmp	1330	0	0	0
020218	09:16:28	1	14	5.0.10.0	d070_A21_A1_unplB	dA21_valB_070	4	36	300	300	0	0	651	23	1	1	blank2r.bmp	0	1	+	0	8	C4r.bmp	500	1	blank2r.bmp	800	1	NPLW	800	1	blank2r.bmp	870	2	geizig	870	1	!	1200	1	blank2r.bmp	1330	0	0	0
020218	09:16:28	1	14	5.0.10.0	d070_A21_A2_unplB	dA21_valB_070	4	37	300	300	0	0	1335	18	1	1	blank2r.bmp	0	1	+	0	1	B1r.bmp	500	1	blank2r.bmp	800	1	DHJF	800	1	blank2r.bmp	870	4	böse	870	1	!	1200	1	blank2r.bmp	1330	0	0	0
020218	09:16:28	1	14	5.0.10.0	d070_A21_A2_unplB	dA21_valB_070	4	38	300	300	0	0	221	18	1	1	blank2r.bmp	0	1	+	0	5	C1r.bmp	500	1	blank2r.bmp	800	1	DHJF	800	1	blank2r.bmp	870	5	kummer	870	1	!	1200	1	blank2r.bmp	1330	0	0	0
020218	09:16:28	1	14	5.0.10.0	d070_A21_A2_pleasB	dA21_valB_070	4	39	300	300	0	0	1192	18	1	1	blank2r.bmp	0	1	+	0	3	B3r.bmp	500	1	blank2r.bmp	800	1	DHJF	800	1	blank2r.bmp	870	4	treu	870	1	!	1200	1	blank2r.bmp	1330	0	0	0
020218	09:16:28	1	14	5.0.10.0	d070_A21_A2_pleasB	dA21_valB_070	4	40	300	300	0	0	782	18	1	1	blank2r.bmp	0	1	+	0	7	C3r.bmp	500	1	blank2r.bmp	800	1	DHJF	800	1	blank2r.bmp	870	3	kuss	870	1	!	1200	1	blank2r.bmp	1330	0	0	0
020218	09:16:28	1	14	5.0.10.0	d070_A21_A2_pleasB	dA21_valB_070	4	41	300	300	0	0	270	23	0	1	blank2r.bmp	0	1	+	0	1	B1r.bmp	500	1	blank2r.bmp	800	1	DHJF	800	1	blank2r.bmp	870	1	gut	870	1	!	1200	1	blank2r.bmp	1330	0	0	0
020218	09:16:28	1	14	5.0.10.0	d070_A21_A1_pleasB	dA21_valB_070	4	42	300	300	0	0	771	23	1	1	blank2r.bmp	0	1	+	0	5	C1r.bmp	500	1	blank2r.bmp	800	1	NPLW	800	1	blank2r.bmp	870	6	kreativ	870	1	!	1200	1	blank2r.bmp	1330	0	0	0
020218	09:16:28	1	14	5.0.10.0	d070_A21_A1_unplB	dA21_valB_070	4	43	300	300	0	0	1213	23	1	1	blank2r.bmp	0	1	+	0	7	C3r.bmp	500	1	blank2r.bmp	800	1	NPLW	800	1	blank2r.bmp	870	1	grausam	870	1	!	1200	1	blank2r.bmp	1330	0	0	0
020218	09:16:28	1	14	5.0.10.0	d070_A21_A1_pleasB	dA21_valB_070	4	44	300	300	0	0	641	18	0	1	blank2r.bmp	0	1	+	0	8	C4r.bmp	500	1	blank2r.bmp	800	1	NPLW	800	1	blank2r.bmp	870	4	treu	870	1	!	1200	1	blank2r.bmp	1330	0	0	0
020218	09:16:28	1	14	5.0.10.0	d070_A21_A2_pleasB	dA21_valB_070	4	45	300	300	0	0	805	23	0	1	blank2r.bmp	0	1	+	0	6	C2r.bmp	500	1	blank2r.bmp	800	1	DHJF	800	1	blank2r.bmp	870	5	begabt	870	1	!	1200	1	blank2r.bmp	1330	0	0	0
020218	09:16:28	1	14	5.0.10.0	d070_A21_A2_pleasB	dA21_valB_070	4	46	300	300	0	0	1276	23	0	1	blank2r.bmp	0	1	+	0	4	B4r.bmp	500	1	blank2r.bmp	800	1	DHJF	800	1	blank2r.bmp	870	3	kuss	870	1	!	1200	1	blank2r.bmp	1330	0	0	0
020218	09:16:28	1	14	5.0.10.0	d070_A21_A2_pleasB	dA21_valB_070	4	47	300	300	0	0	633	18	1	1	blank2r.bmp	0	1	+	0	3	B3r.bmp	500	1	blank2r.bmp	800	1	DHJF	800	1	blank2r.bmp	870	2	mutig	870	1	!	1200	1	blank2r.bmp	1330	0	0	0
020218	09:16:28	1	14	5.0.10.0	d070_A21_A2_unplB	dA21_valB_070	4	48	300	300	0	0	333	18	1	1	blank2r.bmp	0	1	+	0	2	B2r.bmp	500	1	blank2r.bmp	800	1	DHJF	800	1	blank2r.bmp	870	3	ärger	870	1	!	1200	1	blank2r.bmp	1330	0	0	0
020218	09:16:28	1	14	5.0.10.0	dL_B21_B2_unplA	dB21_valA_pract1	6	1	300	300	0	0	106	18	1	1	blank2r.bmp	0	1	+	0	1	B1r.bmp	500	1	blank2r.bmp	700	1	GKQX	700	8	C4r.bmp	830	1	blank2r.bmp	870	1	unfair	870	1	!	1200	1	blank2r.bmp	1330
020218	09:16:28	1	14	5.0.10.0	dL_B21_B2_pleasA	dB21_valA_pract1	6	2	300	300	0	0	3188	18	1	1	blank2r.bmp	0	1	+	0	4	B4r.bmp	500	1	blank2r.bmp	700	1	GKQX	700	2	B2r.bmp	830	1	blank2r.bmp	870	3	freund	870	1	!	1200	1	blank2r.bmp	1330
020218	09:16:28	1	14	5.0.10.0	dL_B21_B1_pleasA	dB21_valA_pract1	6	3	300	300	0	0	285	23	1	1	blank2r.bmp	0	1	+	0	8	C4r.bmp	500	1	blank2r.bmp	700	1	BMVZ	700	3	B3r.bmp	830	1	blank2r.bmp	870	2	schön	870	1	!	1200	1	blank2r.bmp	1330
020218	09:16:28	1	14	5.0.10.0	dL_B21_B1_pleasA	dB21_valA_pract1	6	4	300	300	0	0	514	23	1	1	blank2r.bmp	0	1	+	0	6	C2r.bmp	500	1	blank2r.bmp	700	1	BMVZ	700	5	C1r.bmp	830	1	blank2r.bmp	870	5	friedlich	870	1	!	1200	1	blank2r.bmp	1330
020218	09:16:28	1	14	5.0.10.0	dL_B21_B2_pleasA	dB21_valA_pract1	6	5	300	300	0	0	426	18	1	1	blank2r.bmp	0	1	+	0	7	C3r.bmp	500	1	blank2r.bmp	700	1	GKQX	700	4	B4r.bmp	830	1	blank2r.bmp	870	4	heiter	870	1	!	1200	1	blank2r.bmp	1330
020218	09:16:28	1	14	5.0.10.0	dL_B21_B1_unplA	dB21_valA_pract1	6	6	300	300	0	0	344	23	1	1	blank2r.bmp	0	1	+	0	5	C1r.bmp	500	1	blank2r.bmp	700	1	BMVZ	700	6	C2r.bmp	830	1	blank2r.bmp	870	6	leiden	870	1	!	1200	1	blank2r.bmp	1330
020218	09:16:28	1	14	5.0.10.0	dL_B21_B2_unplA	dB21_valA_pract1	6	7	300	300	0	0	339	18	1	1	blank2r.bmp	0	1	+	0	3	B3r.bmp	500	1	blank2r.bmp	700	1	GKQX	700	1	B1r.bmp	830	1	blank2r.bmp	870	4	elend	870	1	!	1200	1	blank2r.bmp	1330
020218	09:16:28	1	14	5.0.10.0	dL_B21_B2_pleasA	dB21_valA_pract1	6	8	300	300	0	0	40	18	1	1	blank2r.bmp	0	1	+	0	2	B2r.bmp	500	1	blank2r.bmp	700	1	GKQX	700	7	C3r.bmp	830	1	blank2r.bmp	870	1	toll	870	1	!	1200	1	blank2r.bmp	1330
020218	09:16:28	1	14	5.0.10.0	dL_B21_B1_unplA	dB21_valA_pract1	6	9	300	300	0	0	47	23	1	1	blank2r.bmp	0	1	+	0	2	B2r.bmp	500	1	blank2r.bmp	700	1	BMVZ	700	1	B1r.bmp	830	1	blank2r.bmp	870	5	schlecht	870	1	!	1200	1	blank2r.bmp	1330
020218	09:16:28	1	14	5.0.10.0	dL_B21_B2_unplA	dB21_valA_pract1	6	10	300	300	0	0	12	18	1	1	blank2r.bmp	0	1	+	0	7	C3r.bmp	500	1	blank2r.bmp	700	1	GKQX	700	2	B2r.bmp	830	1	blank2r.bmp	870	3	töten	870	1	!	1200	1	blank2r.bmp	1330
020218	09:16:28	1	14	5.0.10.0	dL_B21_B1_unplA	dB21_valA_pract1	6	11	300	300	0	0	437	23	1	1	blank2r.bmp	0	1	+	0	6	C2r.bmp	500	1	blank2r.bmp	700	1	BMVZ	700	7	C3r.bmp	830	1	blank2r.bmp	870	2	neidisch	870	1	!	1200	1	blank2r.bmp	1330
020218	09:16:28	1	14	5.0.10.0	dL_B21_B1_pleasA	dB21_valA_pract1	6	12	300	300	0	0	411	23	1	1	blank2r.bmp	0	1	+	0	5	C1r.bmp	500	1	blank2r.bmp	700	1	BMVZ	700	6	C2r.bmp	830	1	blank2r.bmp	870	6	froh	870	1	!	1200	1	blank2r.bmp	1330
020218	09:16:28	1	14	5.0.10.0	dM_B21_B1_unplA	dB21_valA_pract2	7	1	300	300	0	0	551	23	1	1	blank2r.bmp	0	1	+	0	1	B1r.bmp	500	1	blank2r.bmp	730	1	BMVZ	730	8	C4r.bmp	830	1	blank2r.bmp	870	6	leiden	870	1	!	1200	1	blank2r.bmp	1330
020218	09:16:28	1	14	5.0.10.0	dM_B21_B2_unplA	dB21_valA_pract2	7	2	300	300	0	0	386	18	1	1	blank2r.bmp	0	1	+	0	8	C4r.bmp	500	1	blank2r.bmp	730	1	GKQX	730	3	B3r.bmp	830	1	blank2r.bmp	870	2	neidisch	870	1	!	1200	1	blank2r.bmp	1330
020218	09:16:28	1	14	5.0.10.0	dM_B21_B1_pleasA	dB21_valA_pract2	7	3	300	300	0	0	311	23	1	1	blank2r.bmp	0	1	+	0	3	B3r.bmp	500	1	blank2r.bmp	730	1	BMVZ	730	5	C1r.bmp	830	1	blank2r.bmp	870	6	froh	870	1	!	1200	1	blank2r.bmp	1330
020218	09:16:28	1	14	5.0.10.0	dM_B21_B1_pleasA	dB21_valA_pract2	7	4	300	300	0	0	352	23	1	1	blank2r.bmp	0	1	+	0	4	B4r.bmp	500	1	blank2r.bmp	730	1	BMVZ	730	4	B4r.bmp	830	1	blank2r.bmp	870	4	heiter	870	1	!	1200	1	blank2r.bmp	1330
020218	09:16:28	1	14	5.0.10.0	dM_B21_B1_unplA	dB21_valA_pract2	7	5	300	300	0	0	313	23	1	1	blank2r.bmp	0	1	+	0	1	B1r.bmp	500	1	blank2r.bmp	730	1	BMVZ	730	2	B2r.bmp	830	1	blank2r.bmp	870	4	elend	870	1	!	1200	1	blank2r.bmp	1330
020218	09:16:28	1	14	5.0.10.0	dM_B21_B1_unplA	dB21_valA_pract2	7	6	300	300	0	0	246	23	1	1	blank2r.bmp	0	1	+	0	7	C3r.bmp	500	1	blank2r.bmp	730	1	BMVZ	730	6	C2r.bmp	830	1	blank2r.bmp	870	3	töten	870	1	!	1200	1	blank2r.bmp	1330
020218	09:16:28	1	14	5.0.10.0	dM_B21_B2_unplA	dB21_valA_pract2	7	7	300	300	0	0	175	18	1	1	blank2r.bmp	0	1	+	0	2	B2r.bmp	500	1	blank2r.bmp	730	1	GKQX	730	3	B3r.bmp	830	1	blank2r.bmp	870	1	unfair	870	1	!	1200	1	blank2r.bmp	1330
020218	09:16:28	1	14	5.0.10.0	dM_B21_B2_pleasA	dB21_valA_pract2	7	8	300	300	0	0	279	18	1	1	blank2r.bmp	0	1	+	0	5	C1r.bmp	500	1	blank2r.bmp	730	1	GKQX	730	4	B4r.bmp	830	1	blank2r.bmp	870	3	freund	870	1	!	1200	1	blank2r.bmp	1330
020218	09:16:28	1	14	5.0.10.0	dM_B21_B2_pleasA	dB21_valA_pract2	7	9	300	300	0	0	618	18	1	1	blank2r.bmp	0	1	+	0	8	C4r.bmp	500	1	blank2r.bmp	730	1	GKQX	730	7	C3r.bmp	830	1	blank2r.bmp	870	1	toll	870	1	!	1200	1	blank2r.bmp	1330
020218	09:16:28	1	14	5.0.10.0	dM_B21_B2_unplA	dB21_valA_pract2	7	10	300	300	0	0	622	18	1	1	blank2r.bmp	0	1	+	0	6	C2r.bmp	500	1	blank2r.bmp	730	1	GKQX	730	8	C4r.bmp	830	1	blank2r.bmp	870	5	schlecht	870	1	!	1200	1	blank2r.bmp	1330
020218	09:16:28	1	14	5.0.10.0	dM_B21_B1_pleasA	dB21_valA_pract2	7	11	300	300	0	0	378	23	1	1	blank2r.bmp	0	1	+	0	4	B4r.bmp	500	1	blank2r.bmp	730	1	BMVZ	730	5	C1r.bmp	830	1	blank2r.bmp	870	5	friedlich	870	1	!	1200	1	blank2r.bmp	1330
020218	09:16:28	1	14	5.0.10.0	dM_B21_B2_pleasA	dB21_valA_pract2	7	12	300	300	0	0	483	18	1	1	blank2r.bmp	0	1	+	0	3	B3r.bmp	500	1	blank2r.bmp	730	1	GKQX	730	1	B1r.bmp	830	1	blank2r.bmp	870	2	schön	870	1	!	1200	1	blank2r.bmp	1330
020218	09:16:28	1	14	5.0.10.0	d080_B21_B2_pleasA	dB21_valA_080	8	1	300	300	0	0	736	18	1	1	blank2r.bmp	0	1	+	0	2	B2r.bmp	500	1	blank2r.bmp	800	1	GKQX	800	1	blank2r.bmp	880	6	froh	880	1	!	1210	1	blank2r.bmp	1340	0	0	0
020218	09:16:28	1	14	5.0.10.0	d080_B21_B2_unplA	dB21_valA_080	8	2	300	300	0	0	542	18	1	1	blank2r.bmp	0	1	+	0	5	C1r.bmp	500	1	blank2r.bmp	800	1	GKQX	800	1	blank2r.bmp	880	6	leiden	880	1	!	1210	1	blank2r.bmp	1340	0	0	0
020218	09:16:28	1	14	5.0.10.0	d080_B21_B1_unplA	dB21_valA_080	8	3	300	300	0	0	366	23	1	1	blank2r.bmp	0	1	+	0	4	B4r.bmp	500	1	blank2r.bmp	800	1	BMVZ	800	1	blank2r.bmp	880	2	neidisch	880	1	!	1210	1	blank2r.bmp	1340	0	0	0
020218	09:16:28	1	14	5.0.10.0	d080_B21_B1_unplA	dB21_valA_080	8	4	300	300	0	0	647	23	1	1	blank2r.bmp	0	1	+	0	1	B1r.bmp	500	1	blank2r.bmp	800	1	BMVZ	800	1	blank2r.bmp	880	4	elend	880	1	!	1210	1	blank2r.bmp	1340	0	0	0
020218	09:16:28	1	14	5.0.10.0	d080_B21_B2_pleasA	dB21_valA_080	8	5	300	300	0	0	427	18	1	1	blank2r.bmp	0	1	+	0	3	B3r.bmp	500	1	blank2r.bmp	800	1	GKQX	800	1	blank2r.bmp	880	2	schön	880	1	!	1210	1	blank2r.bmp	1340	0	0	0
020218	09:16:28	1	14	5.0.10.0	d080_B21_B1_pleasA	dB21_valA_080	8	6	300	300	0	0	396	23	1	1	blank2r.bmp	0	1	+	0	8	C4r.bmp	500	1	blank2r.bmp	800	1	BMVZ	800	1	blank2r.bmp	880	3	freund	880	1	!	1210	1	blank2r.bmp	1340	0	0	0
020218	09:16:28	1	14	5.0.10.0	d080_B21_B1_pleasA	dB21_valA_080	8	7	300	300	0	0	348	23	1	1	blank2r.bmp	0	1	+	0	7	C3r.bmp	500	1	blank2r.bmp	800	1	BMVZ	800	1	blank2r.bmp	880	4	heiter	880	1	!	1210	1	blank2r.bmp	1340	0	0	0
020218	09:16:28	1	14	5.0.10.0	d080_B21_B2_pleasA	dB21_valA_080	8	8	300	300	0	0	241	18	1	1	blank2r.bmp	0	1	+	0	6	C2r.bmp	500	1	blank2r.bmp	800	1	GKQX	800	1	blank2r.bmp	880	1	toll	880	1	!	1210	1	blank2r.bmp	1340	0	0	0
020218	09:16:28	1	14	5.0.10.0	d080_B21_B2_unplA	dB21_valA_080	8	9	300	300	0	0	336	23	0	1	blank2r.bmp	0	1	+	0	4	B4r.bmp	500	1	blank2r.bmp	800	1	GKQX	800	1	blank2r.bmp	880	5	schlecht	880	1	!	1210	1	blank2r.bmp	1340	0	0	0
020218	09:16:28	1	14	5.0.10.0	d080_B21_B1_unplA	dB21_valA_080	8	10	300	300	0	0	290	23	1	1	blank2r.bmp	0	1	+	0	3	B3r.bmp	500	1	blank2r.bmp	800	1	BMVZ	800	1	blank2r.bmp	880	1	unfair	880	1	!	1210	1	blank2r.bmp	1340	0	0	0
020218	09:16:28	1	14	5.0.10.0	d080_B21_B1_unplA	dB21_valA_080	8	11	300	300	0	0	258	23	1	1	blank2r.bmp	0	1	+	0	6	C2r.bmp	500	1	blank2r.bmp	800	1	BMVZ	800	1	blank2r.bmp	880	3	töten	880	1	!	1210	1	blank2r.bmp	1340	0	0	0
020218	09:16:28	1	14	5.0.10.0	d080_B21_B2_pleasA	dB21_valA_080	8	12	300	300	0	0	300	18	1	1	blank2r.bmp	0	1	+	0	8	C4r.bmp	500	1	blank2r.bmp	800	1	GKQX	800	1	blank2r.bmp	880	5	friedlich	880	1	!	1210	1	blank2r.bmp	1340	0	0	0
020218	09:16:28	1	14	5.0.10.0	d080_B21_B1_unplA	dB21_valA_080	8	13	300	300	0	0	357	23	1	1	blank2r.bmp	0	1	+	0	2	B2r.bmp	500	1	blank2r.bmp	800	1	BMVZ	800	1	blank2r.bmp	880	4	elend	880	1	!	1210	1	blank2r.bmp	1340	0	0	0
020218	09:16:28	1	14	5.0.10.0	d080_B21_B1_unplA	dB21_valA_080	8	14	300	300	0	0	243	23	1	1	blank2r.bmp	0	1	+	0	5	C1r.bmp	500	1	blank2r.bmp	800	1	BMVZ	800	1	blank2r.bmp	880	3	töten	880	1	!	1210	1	blank2r.bmp	1340	0	0	0
020218	09:16:28	1	14	5.0.10.0	d080_B21_B1_unplA	dB21_valA_080	8	15	300	300	0	0	231	23	1	1	blank2r.bmp	0	1	+	0	7	C3r.bmp	500	1	blank2r.bmp	800	1	BMVZ	800	1	blank2r.bmp	880	1	unfair	880	1	!	1210	1	blank2r.bmp	1340	0	0	0
020218	09:16:28	1	14	5.0.10.0	d080_B21_B2_pleasA	dB21_valA_080	8	16	300	300	0	0	253	18	1	1	blank2r.bmp	0	1	+	0	1	B1r.bmp	500	1	blank2r.bmp	800	1	GKQX	800	1	blank2r.bmp	880	3	freund	880	1	!	1210	1	blank2r.bmp	1340	0	0	0
020218	09:16:28	1	14	5.0.10.0	d080_B21_B2_unplA	dB21_valA_080	8	17	300	300	0	0	238	18	1	1	blank2r.bmp	0	1	+	0	8	C4r.bmp	500	1	blank2r.bmp	800	1	GKQX	800	1	blank2r.bmp	880	6	leiden	880	1	!	1210	1	blank2r.bmp	1340	0	0	0
020218	09:16:28	1	14	5.0.10.0	d080_B21_B1_pleasA	dB21_valA_080	8	18	300	300	0	0	355	18	0	1	blank2r.bmp	0	1	+	0	1	B1r.bmp	500	1	blank2r.bmp	800	1	BMVZ	800	1	blank2r.bmp	880	5	friedlich	880	1	!	1210	1	blank2r.bmp	1340	0	0	0
020218	09:16:28	1	14	5.0.10.0	d080_B21_B2_unplA	dB21_valA_080	8	19	300	300	0	0	164	23	0	1	blank2r.bmp	0	1	+	0	4	B4r.bmp	500	1	blank2r.bmp	800	1	GKQX	800	1	blank2r.bmp	880	5	schlecht	880	1	!	1210	1	blank2r.bmp	1340	0	0	0
020218	09:16:28	1	14	5.0.10.0	d080_B21_B2_unplA	dB21_valA_080	8	20	300	300	0	0	654	23	0	1	blank2r.bmp	0	1	+	0	2	B2r.bmp	500	1	blank2r.bmp	800	1	GKQX	800	1	blank2r.bmp	880	2	neidisch	880	1	!	1210	1	blank2r.bmp	1340	0	0	0
020218	09:16:28	1	14	5.0.10.0	d080_B21_B2_unplA	dB21_valA_080	8	21	300	300	0	0	288	23	0	1	blank2r.bmp	0	1	+	0	7	C3r.bmp	500	1	blank2r.bmp	800	1	GKQX	800	1	blank2r.bmp	880	2	neidisch	880	1	!	1210	1	blank2r.bmp	1340	0	0	0
020218	09:16:28	1	14	5.0.10.0	d080_B21_B2_pleasA	dB21_valA_080	8	22	300	300	0	0	383	18	1	1	blank2r.bmp	0	1	+	0	5	C1r.bmp	500	1	blank2r.bmp	800	1	GKQX	800	1	blank2r.bmp	880	4	heiter	880	1	!	1210	1	blank2r.bmp	1340	0	0	0
020218	09:16:28	1	14	5.0.10.0	d080_B21_B2_unplA	dB21_valA_080	8	23	300	300	0	0	145	18	1	1	blank2r.bmp	0	1	+	0	3	B3r.bmp	500	1	blank2r.bmp	800	1	GKQX	800	1	blank2r.bmp	880	6	leiden	880	1	!	1210	1	blank2r.bmp	1340	0	0	0
020218	09:16:28	1	14	5.0.10.0	d080_B21_B1_unplA	dB21_valA_080	8	24	300	300	0	0	181	23	1	1	blank2r.bmp	0	1	+	0	6	C2r.bmp	500	1	blank2r.bmp	800	1	BMVZ	800	1	blank2r.bmp	880	3	töten	880	1	!	1210	1	blank2r.bmp	1340	0	0	0
020218	09:16:28	1	14	5.0.10.0	d080_B21_B1_pleasA	dB21_valA_080	8	25	300	300	0	0	703	23	1	1	blank2r.bmp	0	1	+	0	2	B2r.bmp	500	1	blank2r.bmp	800	1	BMVZ	800	1	blank2r.bmp	880	6	froh	880	1	!	1210	1	blank2r.bmp	1340	0	0	0
020218	09:16:28	1	14	5.0.10.0	d080_B21_B2_pleasA	dB21_valA_080	8	26	300	300	0	0	161	18	1	1	blank2r.bmp	0	1	+	0	7	C3r.bmp	500	1	blank2r.bmp	800	1	GKQX	800	1	blank2r.bmp	880	1	toll	880	1	!	1210	1	blank2r.bmp	1340	0	0	0
020218	09:16:28	1	14	5.0.10.0	d080_B21_B2_unplA	dB21_valA_080	8	27	300	300	0	0	167	18	1	1	blank2r.bmp	0	1	+	0	6	C2r.bmp	500	1	blank2r.bmp	800	1	GKQX	800	1	blank2r.bmp	880	4	elend	880	1	!	1210	1	blank2r.bmp	1340	0	0	0
020218	09:16:28	1	14	5.0.10.0	d080_B21_B1_pleasA	dB21_valA_080	8	28	300	300	0	0	58	23	1	1	blank2r.bmp	0	1	+	0	1	B1r.bmp	500	1	blank2r.bmp	800	1	BMVZ	800	1	blank2r.bmp	880	2	schön	880	1	!	1210	1	blank2r.bmp	1340	0	0	0
020218	09:16:28	1	14	5.0.10.0	d080_B21_B1_pleasA	dB21_valA_080	8	29	300	300	0	0	68	23	1	1	blank2r.bmp	0	1	+	0	8	C4r.bmp	500	1	blank2r.bmp	800	1	BMVZ	800	1	blank2r.bmp	880	1	toll	880	1	!	1210	1	blank2r.bmp	1340	0	0	0
020218	09:16:28	1	14	5.0.10.0	d080_B21_B1_unplA	dB21_valA_080	8	30	300	300	0	0	147	23	1	1	blank2r.bmp	0	1	+	0	5	C1r.bmp	500	1	blank2r.bmp	800	1	BMVZ	800	1	blank2r.bmp	880	1	unfair	880	1	!	1210	1	blank2r.bmp	1340	0	0	0
020218	09:16:28	1	14	5.0.10.0	d080_B21_B1_pleasA	dB21_valA_080	8	31	300	300	0	0	276	23	1	1	blank2r.bmp	0	1	+	0	3	B3r.bmp	500	1	blank2r.bmp	800	1	BMVZ	800	1	blank2r.bmp	880	2	schön	880	1	!	1210	1	blank2r.bmp	1340	0	0	0
020218	09:16:28	1	14	5.0.10.0	d080_B21_B2_pleasA	dB21_valA_080	8	32	300	300	0	0	164	23	0	1	blank2r.bmp	0	1	+	0	4	B4r.bmp	500	1	blank2r.bmp	800	1	GKQX	800	1	blank2r.bmp	880	5	friedlich	880	1	!	1210	1	blank2r.bmp	1340	0	0	0
020218	09:16:28	1	14	5.0.10.0	d080_B21_B2_unplA	dB21_valA_080	8	33	300	300	0	0	258	18	1	1	blank2r.bmp	0	1	+	0	3	B3r.bmp	500	1	blank2r.bmp	800	1	GKQX	800	1	blank2r.bmp	880	5	schlecht	880	1	!	1210	1	blank2r.bmp	1340	0	0	0
020218	09:16:28	1	14	5.0.10.0	d080_B21_B2_pleasA	dB21_valA_080	8	34	300	300	0	0	78	23	0	1	blank2r.bmp	0	1	+	0	2	B2r.bmp	500	1	blank2r.bmp	800	1	GKQX	800	1	blank2r.bmp	880	6	froh	880	1	!	1210	1	blank2r.bmp	1340	0	0	0
020218	09:16:28	1	14	5.0.10.0	d080_B21_B1_pleasA	dB21_valA_080	8	35	300	300	0	0	531	23	1	1	blank2r.bmp	0	1	+	0	4	B4r.bmp	500	1	blank2r.bmp	800	1	BMVZ	800	1	blank2r.bmp	880	3	freund	880	1	!	1210	1	blank2r.bmp	1340	0	0	0
020218	09:16:28	1	14	5.0.10.0	d080_B21_B1_pleasA	dB21_valA_080	8	36	300	300	0	0	699	23	1	1	blank2r.bmp	0	1	+	0	6	C2r.bmp	500	1	blank2r.bmp	800	1	BMVZ	800	1	blank2r.bmp	880	4	heiter	880	1	!	1210	1	blank2r.bmp	1340	0	0	0
020218	09:16:28	1	14	5.0.10.0	d080_B21_B1_pleasA	dB21_valA_080	8	37	300	300	0	0	133	23	1	1	blank2r.bmp	0	1	+	0	8	C4r.bmp	500	1	blank2r.bmp	800	1	BMVZ	800	1	blank2r.bmp	880	4	heiter	880	1	!	1210	1	blank2r.bmp	1340	0	0	0
020218	09:16:28	1	14	5.0.10.0	d080_B21_B1_unplA	dB21_valA_080	8	38	300	300	0	0	73	23	1	1	blank2r.bmp	0	1	+	0	7	C3r.bmp	500	1	blank2r.bmp	800	1	BMVZ	800	1	blank2r.bmp	880	1	unfair	880	1	!	1210	1	blank2r.bmp	1340	0	0	0
020218	09:16:28	1	14	5.0.10.0	d080_B21_B2_pleasA	dB21_valA_080	8	39	300	300	0	0	5	18	1	1	blank2r.bmp	0	1	+	0	1	B1r.bmp	500	1	blank2r.bmp	800	1	GKQX	800	1	blank2r.bmp	880	1	toll	880	1	!	1210	1	blank2r.bmp	1340	0	0	0
020218	09:16:28	1	14	5.0.10.0	d080_B21_B2_unplA	dB21_valA_080	8	40	300	300	0	0	68	18	1	1	blank2r.bmp	0	1	+	0	5	C1r.bmp	500	1	blank2r.bmp	800	1	GKQX	800	1	blank2r.bmp	880	3	töten	880	1	!	1210	1	blank2r.bmp	1340	0	0	0
020218	09:16:28	1	14	5.0.10.0	d080_B21_B1_pleasA	dB21_valA_080	8	41	300	300	0	0	202	23	1	1	blank2r.bmp	0	1	+	0	7	C3r.bmp	500	1	blank2r.bmp	800	1	BMVZ	800	1	blank2r.bmp	880	6	froh	880	1	!	1210	1	blank2r.bmp	1340	0	0	0
020218	09:16:28	1	14	5.0.10.0	d080_B21_B2_pleasA	dB21_valA_080	8	42	300	300	0	0	65	18	1	1	blank2r.bmp	0	1	+	0	3	B3r.bmp	500	1	blank2r.bmp	800	1	GKQX	800	1	blank2r.bmp	880	5	friedlich	880	1	!	1210	1	blank2r.bmp	1340	0	0	0
020218	09:16:28	1	14	5.0.10.0	d080_B21_B2_unplA	dB21_valA_080	8	43	300	300	0	0	103	23	0	1	blank2r.bmp	0	1	+	0	1	B1r.bmp	500	1	blank2r.bmp	800	1	GKQX	800	1	blank2r.bmp	880	5	schlecht	880	1	!	1210	1	blank2r.bmp	1340	0	0	0
020218	09:16:28	1	14	5.0.10.0	d080_B21_B2_pleasA	dB21_valA_080	8	44	300	300	0	0	344	18	1	1	blank2r.bmp	0	1	+	0	6	C2r.bmp	500	1	blank2r.bmp	800	1	GKQX	800	1	blank2r.bmp	880	2	schön	880	1	!	1210	1	blank2r.bmp	1340	0	0	0
020218	09:16:28	1	14	5.0.10.0	d080_B21_B1_pleasA	dB21_valA_080	8	45	300	300	0	0	200	23	1	1	blank2r.bmp	0	1	+	0	4	B4r.bmp	500	1	blank2r.bmp	800	1	BMVZ	800	1	blank2r.bmp	880	3	freund	880	1	!	1210	1	blank2r.bmp	1340	0	0	0
020218	09:16:28	1	14	5.0.10.0	d080_B21_B2_unplA	dB21_valA_080	8	46	300	300	0	0	345	18	1	1	blank2r.bmp	0	1	+	0	2	B2r.bmp	500	1	blank2r.bmp	800	1	GKQX	800	1	blank2r.bmp	880	2	neidisch	880	1	!	1210	1	blank2r.bmp	1340	0	0	0
020218	09:16:28	1	14	5.0.10.0	d080_B21_B1_unplA	dB21_valA_080	8	47	300	300	0	0	141	23	1	1	blank2r.bmp	0	1	+	0	8	C4r.bmp	500	1	blank2r.bmp	800	1	BMVZ	800	1	blank2r.bmp	880	4	elend	880	1	!	1210	1	blank2r.bmp	1340	0	0	0
020218	09:16:28	1	14	5.0.10.0	d080_B21_B1_unplA	dB21_valA_080	8	48	300	300	0	0	3636	23	1	1	blank2r.bmp	0	1	+	0	5	C1r.bmp	500	1	blank2r.bmp	800	1	BMVZ	800	1	blank2r.bmp	880	6	leiden	880	1	!	1210	1	blank2r.bmp	1340	0	0	0
020218	09:16:28	1	14	5.0.10.0	d080_B21_B1_unplA	dB21_valA_080	9	1	300	300	0	0	97	18	0	1	blank2r.bmp	0	1	+	0	3	B3r.bmp	500	1	blank2r.bmp	800	1	BMVZ	800	1	blank2r.bmp	880	5	schlecht	880	1	!	1210	1	blank2r.bmp	1340	0	0	0
020218	09:16:28	1	14	5.0.10.0	d080_B21_B2_pleasA	dB21_valA_080	9	2	300	300	0	0	57	18	1	1	blank2r.bmp	0	1	+	0	7	C3r.bmp	500	1	blank2r.bmp	800	1	GKQX	800	1	blank2r.bmp	880	4	heiter	880	1	!	1210	1	blank2r.bmp	1340	0	0	0
020218	09:16:28	1	14	5.0.10.0	d080_B21_B1_pleasA	dB21_valA_080	9	3	300	300	0	0	351	23	1	1	blank2r.bmp	0	1	+	0	6	C2r.bmp	500	1	blank2r.bmp	800	1	BMVZ	800	1	blank2r.bmp	880	6	froh	880	1	!	1210	1	blank2r.bmp	1340	0	0	0
020218	09:16:28	1	14	5.0.10.0	d080_B21_B2_unplA	dB21_valA_080	9	4	300	300	0	0	326	23	0	1	blank2r.bmp	0	1	+	0	2	B2r.bmp	500	1	blank2r.bmp	800	1	GKQX	800	1	blank2r.bmp	880	6	leiden	880	1	!	1210	1	blank2r.bmp	1340	0	0	0
020218	09:16:28	1	14	5.0.10.0	d080_B21_B2_unplA	dB21_valA_080	9	5	300	300	0	0	232	18	1	1	blank2r.bmp	0	1	+	0	1	B1r.bmp	500	1	blank2r.bmp	800	1	GKQX	800	1	blank2r.bmp	880	4	elend	880	1	!	1210	1	blank2r.bmp	1340	0	0	0
020218	09:16:28	1	14	5.0.10.0	d080_B21_B2_unplA	dB21_valA_080	9	6	300	300	0	0	162	18	1	1	blank2r.bmp	0	1	+	0	4	B4r.bmp	500	1	blank2r.bmp	800	1	GKQX	800	1	blank2r.bmp	880	1	unfair	880	1	!	1210	1	blank2r.bmp	1340	0	0	0
020218	09:16:28	1	14	5.0.10.0	d080_B21_B1_unplA	dB21_valA_080	9	7	300	300	0	0	360	23	1	1	blank2r.bmp	0	1	+	0	5	C1r.bmp	500	1	blank2r.bmp	800	1	BMVZ	800	1	blank2r.bmp	880	2	neidisch	880	1	!	1210	1	blank2r.bmp	1340	0	0	0
020218	09:16:28	1	14	5.0.10.0	d080_B21_B2_pleasA	dB21_valA_080	9	8	300	300	0	0	101	18	1	1	blank2r.bmp	0	1	+	0	8	C4r.bmp	500	1	blank2r.bmp	800	1	GKQX	800	1	blank2r.bmp	880	1	toll	880	1	!	1210	1	blank2r.bmp	1340	0	0	0
020218	09:16:28	1	14	5.0.10.0	d080_B21_B2_unplA	dB21_valA_080	9	9	300	300	0	0	183	18	1	1	blank2r.bmp	0	1	+	0	4	B4r.bmp	500	1	blank2r.bmp	800	1	GKQX	800	1	blank2r.bmp	880	3	töten	880	1	!	1210	1	blank2r.bmp	1340	0	0	0
020218	09:16:28	1	14	5.0.10.0	d080_B21_B1_pleasA	dB21_valA_080	9	10	300	300	0	0	467	23	1	1	blank2r.bmp	0	1	+	0	2	B2r.bmp	500	1	blank2r.bmp	800	1	BMVZ	800	1	blank2r.bmp	880	3	freund	880	1	!	1210	1	blank2r.bmp	1340	0	0	0
020218	09:16:28	1	14	5.0.10.0	d080_B21_B2_unplA	dB21_valA_080	9	11	300	300	0	0	258	18	1	1	blank2r.bmp	0	1	+	0	1	B1r.bmp	500	1	blank2r.bmp	800	1	GKQX	800	1	blank2r.bmp	880	3	töten	880	1	!	1210	1	blank2r.bmp	1340	0	0	0
020218	09:16:28	1	14	5.0.10.0	d080_B21_B2_unplA	dB21_valA_080	9	12	300	300	0	0	300	18	1	1	blank2r.bmp	0	1	+	0	5	C1r.bmp	500	1	blank2r.bmp	800	1	GKQX	800	1	blank2r.bmp	880	2	neidisch	880	1	!	1210	1	blank2r.bmp	1340	0	0	0
020218	09:16:28	1	14	5.0.10.0	d080_B21_B2_unplA	dB21_valA_080	9	13	300	300	0	0	340	18	1	1	blank2r.bmp	0	1	+	0	7	C3r.bmp	500	1	blank2r.bmp	800	1	GKQX	800	1	blank2r.bmp	880	4	elend	880	1	!	1210	1	blank2r.bmp	1340	0	0	0
020218	09:16:28	1	14	5.0.10.0	d080_B21_B1_pleasA	dB21_valA_080	9	14	300	300	0	0	179	23	1	1	blank2r.bmp	0	1	+	0	8	C4r.bmp	500	1	blank2r.bmp	800	1	BMVZ	800	1	blank2r.bmp	880	5	friedlich	880	1	!	1210	1	blank2r.bmp	1340	0	0	0
020218	09:16:28	1	14	5.0.10.0	d080_B21_B2_pleasA	dB21_valA_080	9	15	300	300	0	0	171	18	1	1	blank2r.bmp	0	1	+	0	3	B3r.bmp	500	1	blank2r.bmp	800	1	GKQX	800	1	blank2r.bmp	880	2	schön	880	1	!	1210	1	blank2r.bmp	1340	0	0	0
020218	09:16:28	1	14	5.0.10.0	d080_B21_B2_unplA	dB21_valA_080	9	16	300	300	0	0	93	18	1	1	blank2r.bmp	0	1	+	0	6	C2r.bmp	500	1	blank2r.bmp	800	1	GKQX	800	1	blank2r.bmp	880	6	leiden	880	1	!	1210	1	blank2r.bmp	1340	0	0	0
020218	09:16:28	1	14	5.0.10.0	d080_B21_B1_unplA	dB21_valA_080	9	17	300	300	0	0	183	18	0	1	blank2r.bmp	0	1	+	0	6	C2r.bmp	500	1	blank2r.bmp	800	1	BMVZ	800	1	blank2r.bmp	880	5	schlecht	880	1	!	1210	1	blank2r.bmp	1340	0	0	0
020218	09:16:28	1	14	5.0.10.0	d080_B21_B1_unplA	dB21_valA_080	9	18	300	300	0	0	236	23	1	1	blank2r.bmp	0	1	+	0	5	C1r.bmp	500	1	blank2r.bmp	800	1	BMVZ	800	1	blank2r.bmp	880	1	unfair	880	1	!	1210	1	blank2r.bmp	1340	0	0	0
020218	09:16:28	1	14	5.0.10.0	d080_B21_B1_pleasA	dB21_valA_080	9	19	300	300	0	0	97	23	1	1	blank2r.bmp	0	1	+	0	1	B1r.bmp	500	1	blank2r.bmp	800	1	BMVZ	800	1	blank2r.bmp	880	5	friedlich	880	1	!	1210	1	blank2r.bmp	1340	0	0	0
020218	09:16:28	1	14	5.0.10.0	d080_B21_B1_unplA	dB21_valA_080	9	20	300	300	0	0	653	18	0	1	blank2r.bmp	0	1	+	0	2	B2r.bmp	500	1	blank2r.bmp	800	1	BMVZ	800	1	blank2r.bmp	880	6	leiden	880	1	!	1210	1	blank2r.bmp	1340	0	0	0
020218	09:16:28	1	14	5.0.10.0	d080_B21_B2_unplA	dB21_valA_080	9	21	300	300	0	0	295	18	1	1	blank2r.bmp	0	1	+	0	7	C3r.bmp	500	1	blank2r.bmp	800	1	GKQX	800	1	blank2r.bmp	880	2	neidisch	880	1	!	1210	1	blank2r.bmp	1340	0	0	0
020218	09:16:28	1	14	5.0.10.0	d080_B21_B1_pleasA	dB21_valA_080	9	22	300	300	0	0	806	18	0	1	blank2r.bmp	0	1	+	0	4	B4r.bmp	500	1	blank2r.bmp	800	1	BMVZ	800	1	blank2r.bmp	880	4	heiter	880	1	!	1210	1	blank2r.bmp	1340	0	0	0
020218	09:16:28	1	14	5.0.10.0	d080_B21_B1_unplA	dB21_valA_080	9	23	300	300	0	0	29	23	1	1	blank2r.bmp	0	1	+	0	8	C4r.bmp	500	1	blank2r.bmp	800	1	BMVZ	800	1	blank2r.bmp	880	5	schlecht	880	1	!	1210	1	blank2r.bmp	1340	0	0	0
020218	09:16:28	1	14	5.0.10.0	d080_B21_B2_pleasA	dB21_valA_080	9	24	300	300	0	0	411	18	1	1	blank2r.bmp	0	1	+	0	3	B3r.bmp	500	1	blank2r.bmp	800	1	GKQX	800	1	blank2r.bmp	880	1	toll	880	1	!	1210	1	blank2r.bmp	1340	0	0	0
020218	09:16:28	1	14	5.0.10.0	d080_B21_B1_unplA	dB21_valA_080	9	25	300	300	0	0	1059	23	1	1	blank2r.bmp	0	1	+	0	1	B1r.bmp	500	1	blank2r.bmp	800	1	BMVZ	800	1	blank2r.bmp	880	3	töten	880	1	!	1210	1	blank2r.bmp	1340	0	0	0
020218	09:16:28	1	14	5.0.10.0	d080_B21_B1_unplA	dB21_valA_080	9	26	300	300	0	0	100	23	1	1	blank2r.bmp	0	1	+	0	5	C1r.bmp	500	1	blank2r.bmp	800	1	BMVZ	800	1	blank2r.bmp	880	1	unfair	880	1	!	1210	1	blank2r.bmp	1340	0	0	0
020218	09:16:28	1	14	5.0.10.0	d080_B21_B1_pleasA	dB21_valA_080	9	27	300	300	0	0	118	23	1	1	blank2r.bmp	0	1	+	0	6	C2r.bmp	500	1	blank2r.bmp	800	1	BMVZ	800	1	blank2r.bmp	880	3	freund	880	1	!	1210	1	blank2r.bmp	1340	0	0	0
020218	09:16:28	1	14	5.0.10.0	d080_B21_B2_pleasA	dB21_valA_080	9	28	300	300	0	0	695	18	1	1	blank2r.bmp	0	1	+	0	4	B4r.bmp	500	1	blank2r.bmp	800	1	GKQX	800	1	blank2r.bmp	880	2	schön	880	1	!	1210	1	blank2r.bmp	1340	0	0	0
020218	09:16:28	1	14	5.0.10.0	d080_B21_B1_unplA	dB21_valA_080	9	29	300	300	0	0	248	18	0	1	blank2r.bmp	0	1	+	0	3	B3r.bmp	500	1	blank2r.bmp	800	1	BMVZ	800	1	blank2r.bmp	880	4	elend	880	1	!	1210	1	blank2r.bmp	1340	0	0	0
020218	09:16:28	1	14	5.0.10.0	d080_B21_B2_pleasA	dB21_valA_080	9	30	300	300	0	0	339	18	1	1	blank2r.bmp	0	1	+	0	7	C3r.bmp	500	1	blank2r.bmp	800	1	GKQX	800	1	blank2r.bmp	880	6	froh	880	1	!	1210	1	blank2r.bmp	1340	0	0	0
020218	09:16:28	1	14	5.0.10.0	d080_B21_B2_pleasA	dB21_valA_080	9	31	300	300	0	0	134	18	1	1	blank2r.bmp	0	1	+	0	2	B2r.bmp	500	1	blank2r.bmp	800	1	GKQX	800	1	blank2r.bmp	880	1	toll	880	1	!	1210	1	blank2r.bmp	1340	0	0	0
020218	09:16:28	1	14	5.0.10.0	d080_B21_B1_pleasA	dB21_valA_080	9	32	300	300	0	0	540	23	1	1	blank2r.bmp	0	1	+	0	8	C4r.bmp	500	1	blank2r.bmp	800	1	BMVZ	800	1	blank2r.bmp	880	4	heiter	880	1	!	1210	1	blank2r.bmp	1340	0	0	0
020218	09:16:28	1	14	5.0.10.0	d080_B21_B2_pleasA	dB21_valA_080	9	33	300	300	0	0	333	23	0	1	blank2r.bmp	0	1	+	0	1	B1r.bmp	500	1	blank2r.bmp	800	1	GKQX	800	1	blank2r.bmp	880	6	froh	880	1	!	1210	1	blank2r.bmp	1340	0	0	0
020218	09:16:28	1	14	5.0.10.0	d080_B21_B1_pleasA	dB21_valA_080	9	34	300	300	0	0	185	23	1	1	blank2r.bmp	0	1	+	0	2	B2r.bmp	500	1	blank2r.bmp	800	1	BMVZ	800	1	blank2r.bmp	880	2	schön	880	1	!	1210	1	blank2r.bmp	1340	0	0	0
020218	09:16:28	1	14	5.0.10.0	d080_B21_B2_unplA	dB21_valA_080	9	35	300	300	0	0	354	18	1	1	blank2r.bmp	0	1	+	0	6	C2r.bmp	500	1	blank2r.bmp	800	1	GKQX	800	1	blank2r.bmp	880	6	leiden	880	1	!	1210	1	blank2r.bmp	1340	0	0	0
020218	09:16:28	1	14	5.0.10.0	d080_B21_B1_unplA	dB21_valA_080	9	36	300	300	0	0	475	18	0	1	blank2r.bmp	0	1	+	0	5	C1r.bmp	500	1	blank2r.bmp	800	1	BMVZ	800	1	blank2r.bmp	880	5	schlecht	880	1	!	1210	1	blank2r.bmp	1340	0	0	0
020218	09:16:28	1	14	5.0.10.0	d080_B21_B2_pleasA	dB21_valA_080	9	37	300	300	0	0	557	18	1	1	blank2r.bmp	0	1	+	0	7	C3r.bmp	500	1	blank2r.bmp	800	1	GKQX	800	1	blank2r.bmp	880	3	freund	880	1	!	1210	1	blank2r.bmp	1340	0	0	0
020218	09:16:28	1	14	5.0.10.0	d080_B21_B1_pleasA	dB21_valA_080	9	38	300	300	0	0	205	23	1	1	blank2r.bmp	0	1	+	0	4	B4r.bmp	500	1	blank2r.bmp	800	1	BMVZ	800	1	blank2r.bmp	880	5	friedlich	880	1	!	1210	1	blank2r.bmp	1340	0	0	0
020218	09:16:28	1	14	5.0.10.0	d080_B21_B2_unplA	dB21_valA_080	9	39	300	300	0	0	253	23	0	1	blank2r.bmp	0	1	+	0	8	C4r.bmp	500	1	blank2r.bmp	800	1	GKQX	800	1	blank2r.bmp	880	4	elend	880	1	!	1210	1	blank2r.bmp	1340	0	0	0
020218	09:16:28	1	14	5.0.10.0	d080_B21_B1_unplA	dB21_valA_080	9	40	300	300	0	0	662	18	0	1	blank2r.bmp	0	1	+	0	3	B3r.bmp	500	1	blank2r.bmp	800	1	BMVZ	800	1	blank2r.bmp	880	3	töten	880	1	!	1210	1	blank2r.bmp	1340	0	0	0
020218	09:16:28	1	14	5.0.10.0	d080_B21_B2_unplA	dB21_valA_080	9	41	300	300	0	0	1980	18	1	1	blank2r.bmp	0	1	+	0	5	C1r.bmp	500	1	blank2r.bmp	800	1	GKQX	800	1	blank2r.bmp	880	2	neidisch	880	1	!	1210	1	blank2r.bmp	1340	0	0	0
020218	09:16:28	1	14	5.0.10.0	d080_B21_B2_pleasA	dB21_valA_080	9	42	300	300	0	0	560	18	1	1	blank2r.bmp	0	1	+	0	2	B2r.bmp	500	1	blank2r.bmp	800	1	GKQX	800	1	blank2r.bmp	880	5	friedlich	880	1	!	1210	1	blank2r.bmp	1340	0	0	0
020218	09:16:28	1	14	5.0.10.0	d080_B21_B2_pleasA	dB21_valA_080	9	43	300	300	0	0	503	18	1	1	blank2r.bmp	0	1	+	0	4	B4r.bmp	500	1	blank2r.bmp	800	1	GKQX	800	1	blank2r.bmp	880	4	heiter	880	1	!	1210	1	blank2r.bmp	1340	0	0	0
020218	09:16:28	1	14	5.0.10.0	d080_B21_B1_unplA	dB21_valA_080	9	44	300	300	0	0	229	23	1	1	blank2r.bmp	0	1	+	0	3	B3r.bmp	500	1	blank2r.bmp	800	1	BMVZ	800	1	blank2r.bmp	880	1	unfair	880	1	!	1210	1	blank2r.bmp	1340	0	0	0
020218	09:16:28	1	14	5.0.10.0	d080_B21_B1_pleasA	dB21_valA_080	9	45	300	300	0	0	502	23	1	1	blank2r.bmp	0	1	+	0	7	C3r.bmp	500	1	blank2r.bmp	800	1	BMVZ	800	1	blank2r.bmp	880	3	freund	880	1	!	1210	1	blank2r.bmp	1340	0	0	0
020218	09:16:28	1	14	5.0.10.0	d080_B21_B1_pleasA	dB21_valA_080	9	46	300	300	0	0	284	23	1	1	blank2r.bmp	0	1	+	0	1	B1r.bmp	500	1	blank2r.bmp	800	1	BMVZ	800	1	blank2r.bmp	880	2	schön	880	1	!	1210	1	blank2r.bmp	1340	0	0	0
020218	09:16:28	1	14	5.0.10.0	d080_B21_B1_pleasA	dB21_valA_080	9	47	300	300	0	0	265	23	1	1	blank2r.bmp	0	1	+	0	6	C2r.bmp	500	1	blank2r.bmp	800	1	BMVZ	800	1	blank2r.bmp	880	6	froh	880	1	!	1210	1	blank2r.bmp	1340	0	0	0
020218	09:16:28	1	14	5.0.10.0	d080_B21_B2_pleasA	dB21_valA_080	9	48	300	300	0	0	205	18	1	1	blank2r.bmp	0	1	+	0	8	C4r.bmp	500	1	blank2r.bmp	800	1	GKQX	800	1	blank2r.bmp	880	1	toll	880	1	!	1210	1	blank2r.bmp	1340	0	0	0
020218	09:16:28	1	14	5.0.10.0	endtrial	endblock	10	1	300	300	0	0	1580552	21	0	0	0	0	0	0	0	0	0	0	0	0	0	0	0	0	0	0	0	0	0	0	0	0	0	0	0	0	0	0	0
