date	time	group	subject	build	trialcode	blockcode	blocknum	trialnum	pretrialpause	posttrialpause	trialduration	trialtimeout	latency	response	correct	stimulusnumber1	stimulusitem1	stimulusonset1	stimulusnumber2	stimulusitem2	stimulusonset2	stimulusnumber3	stimulusitem3	stimulusonset3	stimulusnumber4	stimulusitem4	stimulusonset4	stimulusnumber5	stimulusitem5	stimulusonset5	stimulusnumber6	stimulusitem6	stimulusonset6	stimulusnumber7	stimulusitem7	stimulusonset7	stimulusnumber8	stimulusitem8	stimulusonset8	stimulusnumber9	stimulusitem9	stimulusonset9	stimulusnumber10	stimulusitem10	stimulusonset10
020218	12:12:42	1	17	5.0.10.0	dL_A12_A2_unplB	dA12_valB_pract1	1	1	300	300	0	0	5161	23	1	1	blank2r.bmp	0	1	+	0	3	B3r.bmp	500	1	blank2r.bmp	700	1	DHJF	700	2	B2r.bmp	830	1	blank2r.bmp	870	3	ärger	870	1	!	1200	1	blank2r.bmp	1330
020218	12:12:42	1	17	5.0.10.0	dL_A12_A1_pleasB	dA12_valB_pract1	1	2	300	300	0	0	4339	18	1	1	blank2r.bmp	0	1	+	0	5	C1r.bmp	500	1	blank2r.bmp	700	1	NPLW	700	6	C2r.bmp	830	1	blank2r.bmp	870	6	kreativ	870	1	!	1200	1	blank2r.bmp	1330
020218	12:12:42	1	17	5.0.10.0	dL_A12_A1_pleasB	dA12_valB_pract1	1	3	300	300	0	0	8496	18	1	1	blank2r.bmp	0	1	+	0	7	C3r.bmp	500	1	blank2r.bmp	700	1	NPLW	700	1	B1r.bmp	830	1	blank2r.bmp	870	2	mutig	870	1	!	1200	1	blank2r.bmp	1330
020218	12:12:42	1	17	5.0.10.0	dL_A12_A2_pleasB	dA12_valB_pract1	1	4	300	300	0	0	3834	23	1	1	blank2r.bmp	0	1	+	0	1	B1r.bmp	500	1	blank2r.bmp	700	1	DHJF	700	8	C4r.bmp	830	1	blank2r.bmp	870	4	treu	870	1	!	1200	1	blank2r.bmp	1330
020218	12:12:42	1	17	5.0.10.0	dL_A12_A1_pleasB	dA12_valB_pract1	1	5	300	300	0	0	399	18	1	1	blank2r.bmp	0	1	+	0	6	C2r.bmp	500	1	blank2r.bmp	700	1	NPLW	700	5	C1r.bmp	830	1	blank2r.bmp	870	3	kuss	870	1	!	1200	1	blank2r.bmp	1330
020218	12:12:42	1	17	5.0.10.0	dL_A12_A1_unplB	dA12_valB_pract1	1	6	300	300	0	0	2475	18	1	1	blank2r.bmp	0	1	+	0	4	B4r.bmp	500	1	blank2r.bmp	700	1	NPLW	700	3	B3r.bmp	830	1	blank2r.bmp	870	4	böse	870	1	!	1200	1	blank2r.bmp	1330
020218	12:12:42	1	17	5.0.10.0	dL_A12_A2_unplB	dA12_valB_pract1	1	7	300	300	0	0	236	23	1	1	blank2r.bmp	0	1	+	0	8	C4r.bmp	500	1	blank2r.bmp	700	1	DHJF	700	4	B4r.bmp	830	1	blank2r.bmp	870	5	kummer	870	1	!	1200	1	blank2r.bmp	1330
020218	12:12:42	1	17	5.0.10.0	dL_A12_A2_pleasB	dA12_valB_pract1	1	8	300	300	0	0	16	23	1	1	blank2r.bmp	0	1	+	0	2	B2r.bmp	500	1	blank2r.bmp	700	1	DHJF	700	7	C3r.bmp	830	1	blank2r.bmp	870	1	gut	870	1	!	1200	1	blank2r.bmp	1330
020218	12:12:42	1	17	5.0.10.0	dL_A12_A1_unplB	dA12_valB_pract1	1	9	300	300	0	0	3294	18	1	1	blank2r.bmp	0	1	+	0	4	B4r.bmp	500	1	blank2r.bmp	700	1	NPLW	700	5	C1r.bmp	830	1	blank2r.bmp	870	6	traurig	870	1	!	1200	1	blank2r.bmp	1330
020218	12:12:42	1	17	5.0.10.0	dL_A12_A2_unplB	dA12_valB_pract1	1	10	300	300	0	0	202	23	1	1	blank2r.bmp	0	1	+	0	8	C4r.bmp	500	1	blank2r.bmp	700	1	DHJF	700	7	C3r.bmp	830	1	blank2r.bmp	870	2	geizig	870	1	!	1200	1	blank2r.bmp	1330
020218	12:12:42	1	17	5.0.10.0	dL_A12_A1_unplB	dA12_valB_pract1	1	11	300	300	0	0	468	18	1	1	blank2r.bmp	0	1	+	0	5	C1r.bmp	500	1	blank2r.bmp	700	1	NPLW	700	6	C2r.bmp	830	1	blank2r.bmp	870	1	grausam	870	1	!	1200	1	blank2r.bmp	1330
020218	12:12:42	1	17	5.0.10.0	dL_A12_A2_pleasB	dA12_valB_pract1	1	12	300	300	0	0	206	23	1	1	blank2r.bmp	0	1	+	0	3	B3r.bmp	500	1	blank2r.bmp	700	1	DHJF	700	4	B4r.bmp	830	1	blank2r.bmp	870	5	begabt	870	1	!	1200	1	blank2r.bmp	1330
020218	12:12:42	1	17	5.0.10.0	dM_A12_A2_pleasB	dA12_valB_pract2	2	1	300	300	0	0	246	23	1	1	blank2r.bmp	0	1	+	0	6	C2r.bmp	500	1	blank2r.bmp	730	1	DHJF	730	2	B2r.bmp	830	1	blank2r.bmp	870	1	gut	870	1	!	1200	1	blank2r.bmp	1330
020218	12:12:42	1	17	5.0.10.0	dM_A12_A1_unplB	dA12_valB_pract2	2	2	300	300	0	0	304	18	1	1	blank2r.bmp	0	1	+	0	7	C3r.bmp	500	1	blank2r.bmp	730	1	NPLW	730	1	B1r.bmp	830	1	blank2r.bmp	870	4	böse	870	1	!	1200	1	blank2r.bmp	1330
020218	12:12:42	1	17	5.0.10.0	dM_A12_A2_unplB	dA12_valB_pract2	2	3	300	300	0	0	933	23	1	1	blank2r.bmp	0	1	+	0	2	B2r.bmp	500	1	blank2r.bmp	730	1	DHJF	730	8	C4r.bmp	830	1	blank2r.bmp	870	2	geizig	870	1	!	1200	1	blank2r.bmp	1330
020218	12:12:42	1	17	5.0.10.0	dM_A12_A1_pleasB	dA12_valB_pract2	2	4	300	300	0	0	94	18	1	1	blank2r.bmp	0	1	+	0	1	B1r.bmp	500	1	blank2r.bmp	730	1	NPLW	730	3	B3r.bmp	830	1	blank2r.bmp	870	3	kuss	870	1	!	1200	1	blank2r.bmp	1330
020218	12:12:42	1	17	5.0.10.0	dM_A12_A2_pleasB	dA12_valB_pract2	2	5	300	300	0	0	136	23	1	1	blank2r.bmp	0	1	+	0	6	C2r.bmp	500	1	blank2r.bmp	730	1	DHJF	730	8	C4r.bmp	830	1	blank2r.bmp	870	5	begabt	870	1	!	1200	1	blank2r.bmp	1330
020218	12:12:42	1	17	5.0.10.0	dM_A12_A2_pleasB	dA12_valB_pract2	2	6	300	300	0	0	144	23	1	1	blank2r.bmp	0	1	+	0	4	B4r.bmp	500	1	blank2r.bmp	730	1	DHJF	730	2	B2r.bmp	830	1	blank2r.bmp	870	4	treu	870	1	!	1200	1	blank2r.bmp	1330
020218	12:12:42	1	17	5.0.10.0	dM_A12_A1_unplB	dA12_valB_pract2	2	7	300	300	0	0	91	18	1	1	blank2r.bmp	0	1	+	0	7	C3r.bmp	500	1	blank2r.bmp	730	1	NPLW	730	3	B3r.bmp	830	1	blank2r.bmp	870	5	kummer	870	1	!	1200	1	blank2r.bmp	1330
020218	12:12:42	1	17	5.0.10.0	dM_A12_A1_pleasB	dA12_valB_pract2	2	8	300	300	0	0	205	18	1	1	blank2r.bmp	0	1	+	0	3	B3r.bmp	500	1	blank2r.bmp	730	1	NPLW	730	4	B4r.bmp	830	1	blank2r.bmp	870	6	kreativ	870	1	!	1200	1	blank2r.bmp	1330
020218	12:12:42	1	17	5.0.10.0	dM_A12_A1_unplB	dA12_valB_pract2	2	9	300	300	0	0	121	18	1	1	blank2r.bmp	0	1	+	0	5	C1r.bmp	500	1	blank2r.bmp	730	1	NPLW	730	7	C3r.bmp	830	1	blank2r.bmp	870	3	ärger	870	1	!	1200	1	blank2r.bmp	1330
020218	12:12:42	1	17	5.0.10.0	dM_A12_A2_unplB	dA12_valB_pract2	2	10	300	300	0	0	156	23	1	1	blank2r.bmp	0	1	+	0	1	B1r.bmp	500	1	blank2r.bmp	730	1	DHJF	730	5	C1r.bmp	830	1	blank2r.bmp	870	6	traurig	870	1	!	1200	1	blank2r.bmp	1330
020218	12:12:42	1	17	5.0.10.0	dM_A12_A2_unplB	dA12_valB_pract2	2	11	300	300	0	0	58	23	1	1	blank2r.bmp	0	1	+	0	2	B2r.bmp	500	1	blank2r.bmp	730	1	DHJF	730	6	C2r.bmp	830	1	blank2r.bmp	870	1	grausam	870	1	!	1200	1	blank2r.bmp	1330
020218	12:12:42	1	17	5.0.10.0	dM_A12_A1_pleasB	dA12_valB_pract2	2	12	300	300	0	0	5	18	1	1	blank2r.bmp	0	1	+	0	8	C4r.bmp	500	1	blank2r.bmp	730	1	NPLW	730	1	B1r.bmp	830	1	blank2r.bmp	870	2	mutig	870	1	!	1200	1	blank2r.bmp	1330
020218	12:12:42	1	17	5.0.10.0	d070_A12_A1_unplB	dA12_valB_070	3	1	300	300	0	0	133	23	0	1	blank2r.bmp	0	1	+	0	8	C4r.bmp	500	1	blank2r.bmp	800	1	NPLW	800	1	blank2r.bmp	870	2	geizig	870	1	!	1200	1	blank2r.bmp	1330	0	0	0
020218	12:12:42	1	17	5.0.10.0	d070_A12_A2_unplB	dA12_valB_070	3	2	300	300	0	0	10	23	1	1	blank2r.bmp	0	1	+	0	7	C3r.bmp	500	1	blank2r.bmp	800	1	DHJF	800	1	blank2r.bmp	870	6	traurig	870	1	!	1200	1	blank2r.bmp	1330	0	0	0
020218	12:12:42	1	17	5.0.10.0	d070_A12_A1_unplB	dA12_valB_070	3	3	300	300	0	0	234	23	0	1	blank2r.bmp	0	1	+	0	4	B4r.bmp	500	1	blank2r.bmp	800	1	NPLW	800	1	blank2r.bmp	870	4	böse	870	1	!	1200	1	blank2r.bmp	1330	0	0	0
020218	12:12:42	1	17	5.0.10.0	d070_A12_A2_unplB	dA12_valB_070	3	4	300	300	0	0	2365	23	1	1	blank2r.bmp	0	1	+	0	5	C1r.bmp	500	1	blank2r.bmp	800	1	DHJF	800	1	blank2r.bmp	870	3	ärger	870	1	!	1200	1	blank2r.bmp	1330	0	0	0
020218	12:12:42	1	17	5.0.10.0	d070_A12_A1_unplB	dA12_valB_070	3	5	300	300	0	0	1196	18	1	1	blank2r.bmp	0	1	+	0	6	C2r.bmp	500	1	blank2r.bmp	800	1	NPLW	800	1	blank2r.bmp	870	5	kummer	870	1	!	1200	1	blank2r.bmp	1330	0	0	0
020218	12:12:42	1	17	5.0.10.0	d070_A12_A2_pleasB	dA12_valB_070	3	6	300	300	0	0	180	23	1	1	blank2r.bmp	0	1	+	0	1	B1r.bmp	500	1	blank2r.bmp	800	1	DHJF	800	1	blank2r.bmp	870	1	gut	870	1	!	1200	1	blank2r.bmp	1330	0	0	0
020218	12:12:42	1	17	5.0.10.0	d070_A12_A1_pleasB	dA12_valB_070	3	7	300	300	0	0	142	18	1	1	blank2r.bmp	0	1	+	0	2	B2r.bmp	500	1	blank2r.bmp	800	1	NPLW	800	1	blank2r.bmp	870	3	kuss	870	1	!	1200	1	blank2r.bmp	1330	0	0	0
020218	12:12:42	1	17	5.0.10.0	d070_A12_A2_unplB	dA12_valB_070	3	8	300	300	0	0	189	23	1	1	blank2r.bmp	0	1	+	0	3	B3r.bmp	500	1	blank2r.bmp	800	1	DHJF	800	1	blank2r.bmp	870	1	grausam	870	1	!	1200	1	blank2r.bmp	1330	0	0	0
020218	12:12:42	1	17	5.0.10.0	d070_A12_A1_unplB	dA12_valB_070	3	9	300	300	0	0	1292	18	1	1	blank2r.bmp	0	1	+	0	2	B2r.bmp	500	1	blank2r.bmp	800	1	NPLW	800	1	blank2r.bmp	870	6	traurig	870	1	!	1200	1	blank2r.bmp	1330	0	0	0
020218	12:12:42	1	17	5.0.10.0	d070_A12_A2_pleasB	dA12_valB_070	3	10	300	300	0	0	224	23	1	1	blank2r.bmp	0	1	+	0	6	C2r.bmp	500	1	blank2r.bmp	800	1	DHJF	800	1	blank2r.bmp	870	6	kreativ	870	1	!	1200	1	blank2r.bmp	1330	0	0	0
020218	12:12:42	1	17	5.0.10.0	d070_A12_A1_pleasB	dA12_valB_070	3	11	300	300	0	0	107	18	1	1	blank2r.bmp	0	1	+	0	3	B3r.bmp	500	1	blank2r.bmp	800	1	NPLW	800	1	blank2r.bmp	870	5	begabt	870	1	!	1200	1	blank2r.bmp	1330	0	0	0
020218	12:12:42	1	17	5.0.10.0	d070_A12_A2_pleasB	dA12_valB_070	3	12	300	300	0	0	61	23	1	1	blank2r.bmp	0	1	+	0	5	C1r.bmp	500	1	blank2r.bmp	800	1	DHJF	800	1	blank2r.bmp	870	2	mutig	870	1	!	1200	1	blank2r.bmp	1330	0	0	0
020218	12:12:42	1	17	5.0.10.0	d070_A12_A2_unplB	dA12_valB_070	3	13	300	300	0	0	1767	23	1	1	blank2r.bmp	0	1	+	0	8	C4r.bmp	500	1	blank2r.bmp	800	1	DHJF	800	1	blank2r.bmp	870	1	grausam	870	1	!	1200	1	blank2r.bmp	1330	0	0	0
020218	12:12:42	1	17	5.0.10.0	d070_A12_A2_unplB	dA12_valB_070	3	14	300	300	0	0	247	23	1	1	blank2r.bmp	0	1	+	0	7	C3r.bmp	500	1	blank2r.bmp	800	1	DHJF	800	1	blank2r.bmp	870	3	ärger	870	1	!	1200	1	blank2r.bmp	1330	0	0	0
020218	12:12:42	1	17	5.0.10.0	d070_A12_A1_pleasB	dA12_valB_070	3	15	300	300	0	0	57	18	1	1	blank2r.bmp	0	1	+	0	4	B4r.bmp	500	1	blank2r.bmp	800	1	NPLW	800	1	blank2r.bmp	870	4	treu	870	1	!	1200	1	blank2r.bmp	1330	0	0	0
020218	12:12:42	1	17	5.0.10.0	d070_A12_A1_pleasB	dA12_valB_070	3	16	300	300	0	0	77	18	1	1	blank2r.bmp	0	1	+	0	1	B1r.bmp	500	1	blank2r.bmp	800	1	NPLW	800	1	blank2r.bmp	870	6	kreativ	870	1	!	1200	1	blank2r.bmp	1330	0	0	0
020218	12:12:42	1	17	5.0.10.0	d070_A12_A2_unplB	dA12_valB_070	3	17	300	300	0	0	59	23	1	1	blank2r.bmp	0	1	+	0	5	C1r.bmp	500	1	blank2r.bmp	800	1	DHJF	800	1	blank2r.bmp	870	4	böse	870	1	!	1200	1	blank2r.bmp	1330	0	0	0
020218	12:12:42	1	17	5.0.10.0	d070_A12_A1_pleasB	dA12_valB_070	3	18	300	300	0	0	1114	18	1	1	blank2r.bmp	0	1	+	0	7	C3r.bmp	500	1	blank2r.bmp	800	1	NPLW	800	1	blank2r.bmp	870	4	treu	870	1	!	1200	1	blank2r.bmp	1330	0	0	0
020218	12:12:42	1	17	5.0.10.0	d070_A12_A1_unplB	dA12_valB_070	3	19	300	300	0	0	2019	23	0	1	blank2r.bmp	0	1	+	0	2	B2r.bmp	500	1	blank2r.bmp	800	1	NPLW	800	1	blank2r.bmp	870	5	kummer	870	1	!	1200	1	blank2r.bmp	1330	0	0	0
020218	12:12:42	1	17	5.0.10.0	d070_A12_A2_pleasB	dA12_valB_070	3	20	300	300	0	0	202	23	1	1	blank2r.bmp	0	1	+	0	8	C4r.bmp	500	1	blank2r.bmp	800	1	DHJF	800	1	blank2r.bmp	870	3	kuss	870	1	!	1200	1	blank2r.bmp	1330	0	0	0
020218	12:12:42	1	17	5.0.10.0	d070_A12_A2_pleasB	dA12_valB_070	3	21	300	300	0	0	396	23	1	1	blank2r.bmp	0	1	+	0	1	B1r.bmp	500	1	blank2r.bmp	800	1	DHJF	800	1	blank2r.bmp	870	2	mutig	870	1	!	1200	1	blank2r.bmp	1330	0	0	0
020218	12:12:42	1	17	5.0.10.0	d070_A12_A2_unplB	dA12_valB_070	3	22	300	300	0	0	22	18	0	1	blank2r.bmp	0	1	+	0	6	C2r.bmp	500	1	blank2r.bmp	800	1	DHJF	800	1	blank2r.bmp	870	2	geizig	870	1	!	1200	1	blank2r.bmp	1330	0	0	0
020218	12:12:42	1	17	5.0.10.0	d070_A12_A2_unplB	dA12_valB_070	3	23	300	300	0	0	110	18	0	1	blank2r.bmp	0	1	+	0	3	B3r.bmp	500	1	blank2r.bmp	800	1	DHJF	800	1	blank2r.bmp	870	1	grausam	870	1	!	1200	1	blank2r.bmp	1330	0	0	0
020218	12:12:42	1	17	5.0.10.0	d070_A12_A1_pleasB	dA12_valB_070	3	24	300	300	0	0	1643	18	1	1	blank2r.bmp	0	1	+	0	4	B4r.bmp	500	1	blank2r.bmp	800	1	NPLW	800	1	blank2r.bmp	870	1	gut	870	1	!	1200	1	blank2r.bmp	1330	0	0	0
020218	12:12:42	1	17	5.0.10.0	d070_A12_A1_unplB	dA12_valB_070	3	25	300	300	0	0	82	23	0	1	blank2r.bmp	0	1	+	0	3	B3r.bmp	500	1	blank2r.bmp	800	1	NPLW	800	1	blank2r.bmp	870	3	ärger	870	1	!	1200	1	blank2r.bmp	1330	0	0	0
020218	12:12:42	1	17	5.0.10.0	d070_A12_A1_pleasB	dA12_valB_070	3	26	300	300	0	0	46	23	0	1	blank2r.bmp	0	1	+	0	4	B4r.bmp	500	1	blank2r.bmp	800	1	NPLW	800	1	blank2r.bmp	870	5	begabt	870	1	!	1200	1	blank2r.bmp	1330	0	0	0
020218	12:12:42	1	17	5.0.10.0	d070_A12_A1_pleasB	dA12_valB_070	3	27	300	300	0	0	69	18	1	1	blank2r.bmp	0	1	+	0	6	C2r.bmp	500	1	blank2r.bmp	800	1	NPLW	800	1	blank2r.bmp	870	4	treu	870	1	!	1200	1	blank2r.bmp	1330	0	0	0
020218	12:12:42	1	17	5.0.10.0	d070_A12_A2_pleasB	dA12_valB_070	3	28	300	300	0	0	103	23	1	1	blank2r.bmp	0	1	+	0	1	B1r.bmp	500	1	blank2r.bmp	800	1	DHJF	800	1	blank2r.bmp	870	1	gut	870	1	!	1200	1	blank2r.bmp	1330	0	0	0
020218	12:12:42	1	17	5.0.10.0	d070_A12_A2_unplB	dA12_valB_070	3	29	300	300	0	0	112	18	0	1	blank2r.bmp	0	1	+	0	8	C4r.bmp	500	1	blank2r.bmp	800	1	DHJF	800	1	blank2r.bmp	870	4	böse	870	1	!	1200	1	blank2r.bmp	1330	0	0	0
020218	12:12:42	1	17	5.0.10.0	d070_A12_A1_pleasB	dA12_valB_070	3	30	300	300	0	0	116	23	0	1	blank2r.bmp	0	1	+	0	2	B2r.bmp	500	1	blank2r.bmp	800	1	NPLW	800	1	blank2r.bmp	870	6	kreativ	870	1	!	1200	1	blank2r.bmp	1330	0	0	0
020218	12:12:42	1	17	5.0.10.0	d070_A12_A2_pleasB	dA12_valB_070	3	31	300	300	0	0	138	18	0	1	blank2r.bmp	0	1	+	0	5	C1r.bmp	500	1	blank2r.bmp	800	1	DHJF	800	1	blank2r.bmp	870	2	mutig	870	1	!	1200	1	blank2r.bmp	1330	0	0	0
020218	12:12:42	1	17	5.0.10.0	d070_A12_A2_pleasB	dA12_valB_070	3	32	300	300	0	0	80	23	1	1	blank2r.bmp	0	1	+	0	7	C3r.bmp	500	1	blank2r.bmp	800	1	DHJF	800	1	blank2r.bmp	870	3	kuss	870	1	!	1200	1	blank2r.bmp	1330	0	0	0
020218	12:12:42	1	17	5.0.10.0	d070_A12_A1_pleasB	dA12_valB_070	3	33	300	300	0	0	199	18	1	1	blank2r.bmp	0	1	+	0	8	C4r.bmp	500	1	blank2r.bmp	800	1	NPLW	800	1	blank2r.bmp	870	5	begabt	870	1	!	1200	1	blank2r.bmp	1330	0	0	0
020218	12:12:42	1	17	5.0.10.0	d070_A12_A1_unplB	dA12_valB_070	3	34	300	300	0	0	105	18	1	1	blank2r.bmp	0	1	+	0	5	C1r.bmp	500	1	blank2r.bmp	800	1	NPLW	800	1	blank2r.bmp	870	5	kummer	870	1	!	1200	1	blank2r.bmp	1330	0	0	0
020218	12:12:42	1	17	5.0.10.0	d070_A12_A2_pleasB	dA12_valB_070	3	35	300	300	0	0	1369	23	1	1	blank2r.bmp	0	1	+	0	4	B4r.bmp	500	1	blank2r.bmp	800	1	DHJF	800	1	blank2r.bmp	870	5	begabt	870	1	!	1200	1	blank2r.bmp	1330	0	0	0
020218	12:12:42	1	17	5.0.10.0	d070_A12_A2_pleasB	dA12_valB_070	3	36	300	300	0	0	694	18	0	1	blank2r.bmp	0	1	+	0	7	C3r.bmp	500	1	blank2r.bmp	800	1	DHJF	800	1	blank2r.bmp	870	2	mutig	870	1	!	1200	1	blank2r.bmp	1330	0	0	0
020218	12:12:42	1	17	5.0.10.0	d070_A12_A1_unplB	dA12_valB_070	3	37	300	300	0	0	59	23	0	1	blank2r.bmp	0	1	+	0	2	B2r.bmp	500	1	blank2r.bmp	800	1	NPLW	800	1	blank2r.bmp	870	2	geizig	870	1	!	1200	1	blank2r.bmp	1330	0	0	0
020218	12:12:42	1	17	5.0.10.0	d070_A12_A2_pleasB	dA12_valB_070	3	38	300	300	0	0	126	18	0	1	blank2r.bmp	0	1	+	0	3	B3r.bmp	500	1	blank2r.bmp	800	1	DHJF	800	1	blank2r.bmp	870	1	gut	870	1	!	1200	1	blank2r.bmp	1330	0	0	0
020218	12:12:42	1	17	5.0.10.0	d070_A12_A2_unplB	dA12_valB_070	3	39	300	300	0	0	66	23	1	1	blank2r.bmp	0	1	+	0	1	B1r.bmp	500	1	blank2r.bmp	800	1	DHJF	800	1	blank2r.bmp	870	6	traurig	870	1	!	1200	1	blank2r.bmp	1330	0	0	0
020218	12:12:42	1	17	5.0.10.0	d070_A12_A2_pleasB	dA12_valB_070	3	40	300	300	0	0	138	23	1	1	blank2r.bmp	0	1	+	0	6	C2r.bmp	500	1	blank2r.bmp	800	1	DHJF	800	1	blank2r.bmp	870	3	kuss	870	1	!	1200	1	blank2r.bmp	1330	0	0	0
020218	12:12:42	1	17	5.0.10.0	d070_A12_A2_unplB	dA12_valB_070	3	41	300	300	0	0	2217	18	0	1	blank2r.bmp	0	1	+	0	2	B2r.bmp	500	1	blank2r.bmp	800	1	DHJF	800	1	blank2r.bmp	870	6	traurig	870	1	!	1200	1	blank2r.bmp	1330	0	0	0
020218	12:12:42	1	17	5.0.10.0	d070_A12_A1_unplB	dA12_valB_070	3	42	300	300	0	0	2619	23	0	1	blank2r.bmp	0	1	+	0	4	B4r.bmp	500	1	blank2r.bmp	800	1	NPLW	800	1	blank2r.bmp	870	4	böse	870	1	!	1200	1	blank2r.bmp	1330	0	0	0
020218	12:12:42	1	17	5.0.10.0	d070_A12_A1_pleasB	dA12_valB_070	3	43	300	300	0	0	442	23	0	1	blank2r.bmp	0	1	+	0	1	B1r.bmp	500	1	blank2r.bmp	800	1	NPLW	800	1	blank2r.bmp	870	6	kreativ	870	1	!	1200	1	blank2r.bmp	1330	0	0	0
020218	12:12:42	1	17	5.0.10.0	d070_A12_A1_unplB	dA12_valB_070	3	44	300	300	0	0	24	18	1	1	blank2r.bmp	0	1	+	0	8	C4r.bmp	500	1	blank2r.bmp	800	1	NPLW	800	1	blank2r.bmp	870	3	ärger	870	1	!	1200	1	blank2r.bmp	1330	0	0	0
020218	12:12:42	1	17	5.0.10.0	d070_A12_A1_unplB	dA12_valB_070	3	45	300	300	0	0	258	18	1	1	blank2r.bmp	0	1	+	0	7	C3r.bmp	500	1	blank2r.bmp	800	1	NPLW	800	1	blank2r.bmp	870	1	grausam	870	1	!	1200	1	blank2r.bmp	1330	0	0	0
020218	12:12:42	1	17	5.0.10.0	d070_A12_A1_pleasB	dA12_valB_070	3	46	300	300	0	0	38	23	0	1	blank2r.bmp	0	1	+	0	3	B3r.bmp	500	1	blank2r.bmp	800	1	NPLW	800	1	blank2r.bmp	870	4	treu	870	1	!	1200	1	blank2r.bmp	1330	0	0	0
020218	12:12:42	1	17	5.0.10.0	d070_A12_A2_unplB	dA12_valB_070	3	47	300	300	0	0	331	23	1	1	blank2r.bmp	0	1	+	0	6	C2r.bmp	500	1	blank2r.bmp	800	1	DHJF	800	1	blank2r.bmp	870	2	geizig	870	1	!	1200	1	blank2r.bmp	1330	0	0	0
020218	12:12:42	1	17	5.0.10.0	d070_A12_A1_unplB	dA12_valB_070	3	48	300	300	0	0	244	18	1	1	blank2r.bmp	0	1	+	0	5	C1r.bmp	500	1	blank2r.bmp	800	1	NPLW	800	1	blank2r.bmp	870	5	kummer	870	1	!	1200	1	blank2r.bmp	1330	0	0	0
020218	12:12:42	1	17	5.0.10.0	d070_A12_A2_unplB	dA12_valB_070	4	1	300	300	0	0	1693	23	1	1	blank2r.bmp	0	1	+	0	6	C2r.bmp	500	1	blank2r.bmp	800	1	DHJF	800	1	blank2r.bmp	870	6	traurig	870	1	!	1200	1	blank2r.bmp	1330	0	0	0
020218	12:12:42	1	17	5.0.10.0	d070_A12_A2_unplB	dA12_valB_070	4	2	300	300	0	0	417	23	1	1	blank2r.bmp	0	1	+	0	1	B1r.bmp	500	1	blank2r.bmp	800	1	DHJF	800	1	blank2r.bmp	870	3	ärger	870	1	!	1200	1	blank2r.bmp	1330	0	0	0
020218	12:12:42	1	17	5.0.10.0	d070_A12_A2_unplB	dA12_valB_070	4	3	300	300	0	0	734	18	0	1	blank2r.bmp	0	1	+	0	8	C4r.bmp	500	1	blank2r.bmp	800	1	DHJF	800	1	blank2r.bmp	870	2	geizig	870	1	!	1200	1	blank2r.bmp	1330	0	0	0
020218	12:12:42	1	17	5.0.10.0	d070_A12_A1_unplB	dA12_valB_070	4	4	300	300	0	0	1697	23	0	1	blank2r.bmp	0	1	+	0	2	B2r.bmp	500	1	blank2r.bmp	800	1	NPLW	800	1	blank2r.bmp	870	1	grausam	870	1	!	1200	1	blank2r.bmp	1330	0	0	0
020218	12:12:42	1	17	5.0.10.0	d070_A12_A1_unplB	dA12_valB_070	4	5	300	300	0	0	1243	18	1	1	blank2r.bmp	0	1	+	0	4	B4r.bmp	500	1	blank2r.bmp	800	1	NPLW	800	1	blank2r.bmp	870	5	kummer	870	1	!	1200	1	blank2r.bmp	1330	0	0	0
020218	12:12:42	1	17	5.0.10.0	d070_A12_A1_pleasB	dA12_valB_070	4	6	300	300	0	0	178	23	0	1	blank2r.bmp	0	1	+	0	7	C3r.bmp	500	1	blank2r.bmp	800	1	NPLW	800	1	blank2r.bmp	870	1	gut	870	1	!	1200	1	blank2r.bmp	1330	0	0	0
020218	12:12:42	1	17	5.0.10.0	d070_A12_A1_pleasB	dA12_valB_070	4	7	300	300	0	0	390	18	1	1	blank2r.bmp	0	1	+	0	3	B3r.bmp	500	1	blank2r.bmp	800	1	NPLW	800	1	blank2r.bmp	870	6	kreativ	870	1	!	1200	1	blank2r.bmp	1330	0	0	0
020218	12:12:42	1	17	5.0.10.0	d070_A12_A2_pleasB	dA12_valB_070	4	8	300	300	0	0	54	23	1	1	blank2r.bmp	0	1	+	0	5	C1r.bmp	500	1	blank2r.bmp	800	1	DHJF	800	1	blank2r.bmp	870	2	mutig	870	1	!	1200	1	blank2r.bmp	1330	0	0	0
020218	12:12:42	1	17	5.0.10.0	d070_A12_A1_unplB	dA12_valB_070	4	9	300	300	0	0	1494	23	0	1	blank2r.bmp	0	1	+	0	6	C2r.bmp	500	1	blank2r.bmp	800	1	NPLW	800	1	blank2r.bmp	870	4	böse	870	1	!	1200	1	blank2r.bmp	1330	0	0	0
020218	12:12:42	1	17	5.0.10.0	d070_A12_A2_unplB	dA12_valB_070	4	10	300	300	0	0	19	18	0	1	blank2r.bmp	0	1	+	0	8	C4r.bmp	500	1	blank2r.bmp	800	1	DHJF	800	1	blank2r.bmp	870	1	grausam	870	1	!	1200	1	blank2r.bmp	1330	0	0	0
020218	12:12:42	1	17	5.0.10.0	d070_A12_A2_pleasB	dA12_valB_070	4	11	300	300	0	0	2105	23	1	1	blank2r.bmp	0	1	+	0	7	C3r.bmp	500	1	blank2r.bmp	800	1	DHJF	800	1	blank2r.bmp	870	3	kuss	870	1	!	1200	1	blank2r.bmp	1330	0	0	0
020218	12:12:42	1	17	5.0.10.0	d070_A12_A2_unplB	dA12_valB_070	4	12	300	300	0	0	118	18	0	1	blank2r.bmp	0	1	+	0	3	B3r.bmp	500	1	blank2r.bmp	800	1	DHJF	800	1	blank2r.bmp	870	6	traurig	870	1	!	1200	1	blank2r.bmp	1330	0	0	0
020218	12:12:42	1	17	5.0.10.0	d070_A12_A1_unplB	dA12_valB_070	4	13	300	300	0	0	32	23	0	1	blank2r.bmp	0	1	+	0	4	B4r.bmp	500	1	blank2r.bmp	800	1	NPLW	800	1	blank2r.bmp	870	2	geizig	870	1	!	1200	1	blank2r.bmp	1330	0	0	0
020218	12:12:42	1	17	5.0.10.0	d070_A12_A1_pleasB	dA12_valB_070	4	14	300	300	0	0	2812	18	1	1	blank2r.bmp	0	1	+	0	1	B1r.bmp	500	1	blank2r.bmp	800	1	NPLW	800	1	blank2r.bmp	870	4	treu	870	1	!	1200	1	blank2r.bmp	1330	0	0	0
020218	12:12:42	1	17	5.0.10.0	d070_A12_A1_unplB	dA12_valB_070	4	15	300	300	0	0	157	23	0	1	blank2r.bmp	0	1	+	0	2	B2r.bmp	500	1	blank2r.bmp	800	1	NPLW	800	1	blank2r.bmp	870	3	ärger	870	1	!	1200	1	blank2r.bmp	1330	0	0	0
020218	12:12:42	1	17	5.0.10.0	d070_A12_A1_unplB	dA12_valB_070	4	16	300	300	0	0	1248	18	1	1	blank2r.bmp	0	1	+	0	5	C1r.bmp	500	1	blank2r.bmp	800	1	NPLW	800	1	blank2r.bmp	870	5	kummer	870	1	!	1200	1	blank2r.bmp	1330	0	0	0
020218	12:12:42	1	17	5.0.10.0	d070_A12_A2_unplB	dA12_valB_070	4	17	300	300	0	0	140	23	1	1	blank2r.bmp	0	1	+	0	2	B2r.bmp	500	1	blank2r.bmp	800	1	DHJF	800	1	blank2r.bmp	870	4	böse	870	1	!	1200	1	blank2r.bmp	1330	0	0	0
020218	12:12:42	1	17	5.0.10.0	d070_A12_A1_unplB	dA12_valB_070	4	18	300	300	0	0	688	23	0	1	blank2r.bmp	0	1	+	0	3	B3r.bmp	500	1	blank2r.bmp	800	1	NPLW	800	1	blank2r.bmp	870	5	kummer	870	1	!	1200	1	blank2r.bmp	1330	0	0	0
020218	12:12:42	1	17	5.0.10.0	d070_A12_A2_unplB	dA12_valB_070	4	19	300	300	0	0	150	23	1	1	blank2r.bmp	0	1	+	0	6	C2r.bmp	500	1	blank2r.bmp	800	1	DHJF	800	1	blank2r.bmp	870	4	böse	870	1	!	1200	1	blank2r.bmp	1330	0	0	0
020218	12:12:42	1	17	5.0.10.0	d070_A12_A1_pleasB	dA12_valB_070	4	20	300	300	0	0	611	23	0	1	blank2r.bmp	0	1	+	0	7	C3r.bmp	500	1	blank2r.bmp	800	1	NPLW	800	1	blank2r.bmp	870	5	begabt	870	1	!	1200	1	blank2r.bmp	1330	0	0	0
020218	12:12:42	1	17	5.0.10.0	d070_A12_A2_pleasB	dA12_valB_070	4	21	300	300	0	0	1661	18	0	1	blank2r.bmp	0	1	+	0	8	C4r.bmp	500	1	blank2r.bmp	800	1	DHJF	800	1	blank2r.bmp	870	4	treu	870	1	!	1200	1	blank2r.bmp	1330	0	0	0
020218	12:12:42	1	17	5.0.10.0	d070_A12_A1_unplB	dA12_valB_070	4	22	300	300	0	0	177	23	0	1	blank2r.bmp	0	1	+	0	4	B4r.bmp	500	1	blank2r.bmp	800	1	NPLW	800	1	blank2r.bmp	870	1	grausam	870	1	!	1200	1	blank2r.bmp	1330	0	0	0
020218	12:12:42	1	17	5.0.10.0	d070_A12_A1_pleasB	dA12_valB_070	4	23	300	300	0	0	224	18	1	1	blank2r.bmp	0	1	+	0	1	B1r.bmp	500	1	blank2r.bmp	800	1	NPLW	800	1	blank2r.bmp	870	2	mutig	870	1	!	1200	1	blank2r.bmp	1330	0	0	0
020218	12:12:42	1	17	5.0.10.0	d070_A12_A2_pleasB	dA12_valB_070	4	24	300	300	0	0	339	18	0	1	blank2r.bmp	0	1	+	0	5	C1r.bmp	500	1	blank2r.bmp	800	1	DHJF	800	1	blank2r.bmp	870	1	gut	870	1	!	1200	1	blank2r.bmp	1330	0	0	0
020218	12:12:42	1	17	5.0.10.0	d070_A12_A1_pleasB	dA12_valB_070	4	25	300	300	0	0	36	18	1	1	blank2r.bmp	0	1	+	0	1	B1r.bmp	500	1	blank2r.bmp	800	1	NPLW	800	1	blank2r.bmp	870	5	begabt	870	1	!	1200	1	blank2r.bmp	1330	0	0	0
020218	12:12:42	1	17	5.0.10.0	d070_A12_A2_pleasB	dA12_valB_070	4	26	300	300	0	0	1342	18	0	1	blank2r.bmp	0	1	+	0	8	C4r.bmp	500	1	blank2r.bmp	800	1	DHJF	800	1	blank2r.bmp	870	3	kuss	870	1	!	1200	1	blank2r.bmp	1330	0	0	0
020218	12:12:42	1	17	5.0.10.0	d070_A12_A2_pleasB	dA12_valB_070	4	27	300	300	0	0	11	18	0	1	blank2r.bmp	0	1	+	0	7	C3r.bmp	500	1	blank2r.bmp	800	1	DHJF	800	1	blank2r.bmp	870	6	kreativ	870	1	!	1200	1	blank2r.bmp	1330	0	0	0
020218	12:12:42	1	17	5.0.10.0	d070_A12_A1_pleasB	dA12_valB_070	4	28	300	300	0	0	138	18	1	1	blank2r.bmp	0	1	+	0	4	B4r.bmp	500	1	blank2r.bmp	800	1	NPLW	800	1	blank2r.bmp	870	6	kreativ	870	1	!	1200	1	blank2r.bmp	1330	0	0	0
020218	12:12:42	1	17	5.0.10.0	d070_A12_A2_unplB	dA12_valB_070	4	29	300	300	0	0	2452	23	1	1	blank2r.bmp	0	1	+	0	6	C2r.bmp	500	1	blank2r.bmp	800	1	DHJF	800	1	blank2r.bmp	870	2	geizig	870	1	!	1200	1	blank2r.bmp	1330	0	0	0
020218	12:12:42	1	17	5.0.10.0	d070_A12_A2_unplB	dA12_valB_070	4	30	300	300	0	0	83	23	1	1	blank2r.bmp	0	1	+	0	3	B3r.bmp	500	1	blank2r.bmp	800	1	DHJF	800	1	blank2r.bmp	870	3	ärger	870	1	!	1200	1	blank2r.bmp	1330	0	0	0
020218	12:12:42	1	17	5.0.10.0	d070_A12_A2_unplB	dA12_valB_070	4	31	300	300	0	0	1859	23	1	1	blank2r.bmp	0	1	+	0	2	B2r.bmp	500	1	blank2r.bmp	800	1	DHJF	800	1	blank2r.bmp	870	6	traurig	870	1	!	1200	1	blank2r.bmp	1330	0	0	0
020218	12:12:42	1	17	5.0.10.0	d070_A12_A1_pleasB	dA12_valB_070	4	32	300	300	0	0	131	18	1	1	blank2r.bmp	0	1	+	0	5	C1r.bmp	500	1	blank2r.bmp	800	1	NPLW	800	1	blank2r.bmp	870	5	begabt	870	1	!	1200	1	blank2r.bmp	1330	0	0	0
020218	12:12:42	1	17	5.0.10.0	d070_A12_A1_pleasB	dA12_valB_070	4	33	300	300	0	0	153	18	1	1	blank2r.bmp	0	1	+	0	4	B4r.bmp	500	1	blank2r.bmp	800	1	NPLW	800	1	blank2r.bmp	870	2	mutig	870	1	!	1200	1	blank2r.bmp	1330	0	0	0
020218	12:12:42	1	17	5.0.10.0	d070_A12_A1_unplB	dA12_valB_070	4	34	300	300	0	0	319	23	0	1	blank2r.bmp	0	1	+	0	1	B1r.bmp	500	1	blank2r.bmp	800	1	NPLW	800	1	blank2r.bmp	870	2	geizig	870	1	!	1200	1	blank2r.bmp	1330	0	0	0
020218	12:12:42	1	17	5.0.10.0	d070_A12_A1_pleasB	dA12_valB_070	4	35	300	300	0	0	71	18	1	1	blank2r.bmp	0	1	+	0	7	C3r.bmp	500	1	blank2r.bmp	800	1	NPLW	800	1	blank2r.bmp	870	3	kuss	870	1	!	1200	1	blank2r.bmp	1330	0	0	0
020218	12:12:42	1	17	5.0.10.0	d070_A12_A2_pleasB	dA12_valB_070	4	36	300	300	0	0	160	18	0	1	blank2r.bmp	0	1	+	0	3	B3r.bmp	500	1	blank2r.bmp	800	1	DHJF	800	1	blank2r.bmp	870	1	gut	870	1	!	1200	1	blank2r.bmp	1330	0	0	0
020218	12:12:42	1	17	5.0.10.0	d070_A12_A2_pleasB	dA12_valB_070	4	37	300	300	0	0	3	18	0	1	blank2r.bmp	0	1	+	0	8	C4r.bmp	500	1	blank2r.bmp	800	1	DHJF	800	1	blank2r.bmp	870	4	treu	870	1	!	1200	1	blank2r.bmp	1330	0	0	0
020218	12:12:42	1	17	5.0.10.0	d070_A12_A2_pleasB	dA12_valB_070	4	38	300	300	0	0	239	18	0	1	blank2r.bmp	0	1	+	0	6	C2r.bmp	500	1	blank2r.bmp	800	1	DHJF	800	1	blank2r.bmp	870	1	gut	870	1	!	1200	1	blank2r.bmp	1330	0	0	0
020218	12:12:42	1	17	5.0.10.0	d070_A12_A2_pleasB	dA12_valB_070	4	39	300	300	0	0	2703	18	0	1	blank2r.bmp	0	1	+	0	5	C1r.bmp	500	1	blank2r.bmp	800	1	DHJF	800	1	blank2r.bmp	870	6	kreativ	870	1	!	1200	1	blank2r.bmp	1330	0	0	0
020218	12:12:42	1	17	5.0.10.0	d070_A12_A1_unplB	dA12_valB_070	4	40	300	300	0	0	3354	23	0	1	blank2r.bmp	0	1	+	0	2	B2r.bmp	500	1	blank2r.bmp	800	1	NPLW	800	1	blank2r.bmp	870	6	traurig	870	1	!	1200	1	blank2r.bmp	1330	0	0	0
020218	12:12:42	1	17	5.0.10.0	d070_A12_A2_pleasB	dA12_valB_070	4	41	300	300	0	0	49	18	0	1	blank2r.bmp	0	1	+	0	1	B1r.bmp	500	1	blank2r.bmp	800	1	DHJF	800	1	blank2r.bmp	870	3	kuss	870	1	!	1200	1	blank2r.bmp	1330	0	0	0
020218	12:12:42	1	17	5.0.10.0	d070_A12_A2_unplB	dA12_valB_070	4	42	300	300	0	0	2387	23	1	1	blank2r.bmp	0	1	+	0	4	B4r.bmp	500	1	blank2r.bmp	800	1	DHJF	800	1	blank2r.bmp	870	4	böse	870	1	!	1200	1	blank2r.bmp	1330	0	0	0
020218	12:12:42	1	17	5.0.10.0	d070_A12_A1_unplB	dA12_valB_070	4	43	300	300	0	0	130	18	1	1	blank2r.bmp	0	1	+	0	8	C4r.bmp	500	1	blank2r.bmp	800	1	NPLW	800	1	blank2r.bmp	870	3	ärger	870	1	!	1200	1	blank2r.bmp	1330	0	0	0
020218	12:12:42	1	17	5.0.10.0	d070_A12_A1_unplB	dA12_valB_070	4	44	300	300	0	0	36	23	0	1	blank2r.bmp	0	1	+	0	6	C2r.bmp	500	1	blank2r.bmp	800	1	NPLW	800	1	blank2r.bmp	870	1	grausam	870	1	!	1200	1	blank2r.bmp	1330	0	0	0
020218	12:12:42	1	17	5.0.10.0	d070_A12_A2_pleasB	dA12_valB_070	4	45	300	300	0	0	92	18	0	1	blank2r.bmp	0	1	+	0	2	B2r.bmp	500	1	blank2r.bmp	800	1	DHJF	800	1	blank2r.bmp	870	4	treu	870	1	!	1200	1	blank2r.bmp	1330	0	0	0
020218	12:12:42	1	17	5.0.10.0	d070_A12_A2_unplB	dA12_valB_070	4	46	300	300	0	0	341	23	1	1	blank2r.bmp	0	1	+	0	5	C1r.bmp	500	1	blank2r.bmp	800	1	DHJF	800	1	blank2r.bmp	870	5	kummer	870	1	!	1200	1	blank2r.bmp	1330	0	0	0
020218	12:12:42	1	17	5.0.10.0	d070_A12_A1_pleasB	dA12_valB_070	4	47	300	300	0	0	1121	18	1	1	blank2r.bmp	0	1	+	0	3	B3r.bmp	500	1	blank2r.bmp	800	1	NPLW	800	1	blank2r.bmp	870	2	mutig	870	1	!	1200	1	blank2r.bmp	1330	0	0	0
020218	12:12:42	1	17	5.0.10.0	d070_A12_A1_pleasB	dA12_valB_070	4	48	300	300	0	0	155	18	1	1	blank2r.bmp	0	1	+	0	7	C3r.bmp	500	1	blank2r.bmp	800	1	NPLW	800	1	blank2r.bmp	870	5	begabt	870	1	!	1200	1	blank2r.bmp	1330	0	0	0
020218	12:12:42	1	17	5.0.10.0	dL_B12_B1_unplA	dB12_valA_pract1	6	1	300	300	0	0	1175	18	1	1	blank2r.bmp	0	1	+	0	7	C3r.bmp	500	1	blank2r.bmp	700	1	BMVZ	700	4	B4r.bmp	830	1	blank2r.bmp	870	4	elend	870	1	!	1200	1	blank2r.bmp	1330
020218	12:12:42	1	17	5.0.10.0	dL_B12_B2_pleasA	dB12_valA_pract1	6	2	300	300	0	0	326	23	1	1	blank2r.bmp	0	1	+	0	4	B4r.bmp	500	1	blank2r.bmp	700	1	GKQX	700	5	C1r.bmp	830	1	blank2r.bmp	870	6	froh	870	1	!	1200	1	blank2r.bmp	1330
020218	12:12:42	1	17	5.0.10.0	dL_B12_B1_pleasA	dB12_valA_pract1	6	3	300	300	0	0	2133	18	1	1	blank2r.bmp	0	1	+	0	6	C2r.bmp	500	1	blank2r.bmp	700	1	BMVZ	700	8	C4r.bmp	830	1	blank2r.bmp	870	3	freund	870	1	!	1200	1	blank2r.bmp	1330
020218	12:12:42	1	17	5.0.10.0	dL_B12_B2_pleasA	dB12_valA_pract1	6	4	300	300	0	0	1337	23	1	1	blank2r.bmp	0	1	+	0	2	B2r.bmp	500	1	blank2r.bmp	700	1	GKQX	700	7	C3r.bmp	830	1	blank2r.bmp	870	2	schön	870	1	!	1200	1	blank2r.bmp	1330
020218	12:12:42	1	17	5.0.10.0	dL_B12_B1_unplA	dB12_valA_pract1	6	5	300	300	0	0	8	18	1	1	blank2r.bmp	0	1	+	0	5	C1r.bmp	500	1	blank2r.bmp	700	1	BMVZ	700	6	C2r.bmp	830	1	blank2r.bmp	870	3	töten	870	1	!	1200	1	blank2r.bmp	1330
020218	12:12:42	1	17	5.0.10.0	dL_B12_B1_unplA	dB12_valA_pract1	6	6	300	300	0	0	1122	18	1	1	blank2r.bmp	0	1	+	0	3	B3r.bmp	500	1	blank2r.bmp	700	1	BMVZ	700	1	B1r.bmp	830	1	blank2r.bmp	870	5	schlecht	870	1	!	1200	1	blank2r.bmp	1330
020218	12:12:42	1	17	5.0.10.0	dL_B12_B2_unplA	dB12_valA_pract1	6	7	300	300	0	0	948	23	1	1	blank2r.bmp	0	1	+	0	1	B1r.bmp	500	1	blank2r.bmp	700	1	GKQX	700	3	B3r.bmp	830	1	blank2r.bmp	870	1	unfair	870	1	!	1200	1	blank2r.bmp	1330
020218	12:12:42	1	17	5.0.10.0	dL_B12_B1_pleasA	dB12_valA_pract1	6	8	300	300	0	0	908	18	1	1	blank2r.bmp	0	1	+	0	8	C4r.bmp	500	1	blank2r.bmp	700	1	BMVZ	700	2	B2r.bmp	830	1	blank2r.bmp	870	1	toll	870	1	!	1200	1	blank2r.bmp	1330
020218	12:12:42	1	17	5.0.10.0	dL_B12_B1_pleasA	dB12_valA_pract1	6	9	300	300	0	0	974	18	1	1	blank2r.bmp	0	1	+	0	3	B3r.bmp	500	1	blank2r.bmp	700	1	BMVZ	700	6	C2r.bmp	830	1	blank2r.bmp	870	5	friedlich	870	1	!	1200	1	blank2r.bmp	1330
020218	12:12:42	1	17	5.0.10.0	dL_B12_B2_unplA	dB12_valA_pract1	6	10	300	300	0	0	122	23	1	1	blank2r.bmp	0	1	+	0	2	B2r.bmp	500	1	blank2r.bmp	700	1	GKQX	700	4	B4r.bmp	830	1	blank2r.bmp	870	2	neidisch	870	1	!	1200	1	blank2r.bmp	1330
020218	12:12:42	1	17	5.0.10.0	dL_B12_B2_unplA	dB12_valA_pract1	6	11	300	300	0	0	1499	23	1	1	blank2r.bmp	0	1	+	0	5	C1r.bmp	500	1	blank2r.bmp	700	1	GKQX	700	8	C4r.bmp	830	1	blank2r.bmp	870	6	leiden	870	1	!	1200	1	blank2r.bmp	1330
020218	12:12:42	1	17	5.0.10.0	dL_B12_B2_pleasA	dB12_valA_pract1	6	12	300	300	0	0	1625	23	1	1	blank2r.bmp	0	1	+	0	7	C3r.bmp	500	1	blank2r.bmp	700	1	GKQX	700	2	B2r.bmp	830	1	blank2r.bmp	870	4	heiter	870	1	!	1200	1	blank2r.bmp	1330
020218	12:12:42	1	17	5.0.10.0	dM_B12_B1_pleasA	dB12_valA_pract2	7	1	300	300	0	0	332	18	1	1	blank2r.bmp	0	1	+	0	4	B4r.bmp	500	1	blank2r.bmp	730	1	BMVZ	730	1	B1r.bmp	830	1	blank2r.bmp	870	5	friedlich	870	1	!	1200	1	blank2r.bmp	1330
020218	12:12:42	1	17	5.0.10.0	dM_B12_B1_pleasA	dB12_valA_pract2	7	2	300	300	0	0	217	18	1	1	blank2r.bmp	0	1	+	0	8	C4r.bmp	500	1	blank2r.bmp	730	1	BMVZ	730	5	C1r.bmp	830	1	blank2r.bmp	870	2	schön	870	1	!	1200	1	blank2r.bmp	1330
020218	12:12:42	1	17	5.0.10.0	dM_B12_B2_pleasA	dB12_valA_pract2	7	3	300	300	0	0	16	23	1	1	blank2r.bmp	0	1	+	0	1	B1r.bmp	500	1	blank2r.bmp	730	1	GKQX	730	3	B3r.bmp	830	1	blank2r.bmp	870	4	heiter	870	1	!	1200	1	blank2r.bmp	1330
020218	12:12:42	1	17	5.0.10.0	dM_B12_B1_unplA	dB12_valA_pract2	7	4	300	300	0	0	1917	18	1	1	blank2r.bmp	0	1	+	0	6	C2r.bmp	500	1	blank2r.bmp	730	1	BMVZ	730	7	C3r.bmp	830	1	blank2r.bmp	870	6	leiden	870	1	!	1200	1	blank2r.bmp	1330
020218	12:12:42	1	17	5.0.10.0	dM_B12_B2_pleasA	dB12_valA_pract2	7	5	300	300	0	0	990	23	1	1	blank2r.bmp	0	1	+	0	3	B3r.bmp	500	1	blank2r.bmp	730	1	GKQX	730	5	C1r.bmp	830	1	blank2r.bmp	870	6	froh	870	1	!	1200	1	blank2r.bmp	1330
020218	12:12:42	1	17	5.0.10.0	dM_B12_B1_unplA	dB12_valA_pract2	7	6	300	300	0	0	65	18	1	1	blank2r.bmp	0	1	+	0	8	C4r.bmp	500	1	blank2r.bmp	730	1	BMVZ	730	1	B1r.bmp	830	1	blank2r.bmp	870	2	neidisch	870	1	!	1200	1	blank2r.bmp	1330
020218	12:12:42	1	17	5.0.10.0	dM_B12_B2_unplA	dB12_valA_pract2	7	7	300	300	0	0	1620	23	1	1	blank2r.bmp	0	1	+	0	6	C2r.bmp	500	1	blank2r.bmp	730	1	GKQX	730	8	C4r.bmp	830	1	blank2r.bmp	870	5	schlecht	870	1	!	1200	1	blank2r.bmp	1330
020218	12:12:42	1	17	5.0.10.0	dM_B12_B2_pleasA	dB12_valA_pract2	7	8	300	300	0	0	68	23	1	1	blank2r.bmp	0	1	+	0	5	C1r.bmp	500	1	blank2r.bmp	730	1	GKQX	730	7	C3r.bmp	830	1	blank2r.bmp	870	1	toll	870	1	!	1200	1	blank2r.bmp	1330
020218	12:12:42	1	17	5.0.10.0	dM_B12_B1_pleasA	dB12_valA_pract2	7	9	300	300	0	0	99	18	1	1	blank2r.bmp	0	1	+	0	4	B4r.bmp	500	1	blank2r.bmp	730	1	BMVZ	730	3	B3r.bmp	830	1	blank2r.bmp	870	3	freund	870	1	!	1200	1	blank2r.bmp	1330
020218	12:12:42	1	17	5.0.10.0	dM_B12_B2_unplA	dB12_valA_pract2	7	10	300	300	0	0	380	23	1	1	blank2r.bmp	0	1	+	0	1	B1r.bmp	500	1	blank2r.bmp	730	1	GKQX	730	6	C2r.bmp	830	1	blank2r.bmp	870	3	töten	870	1	!	1200	1	blank2r.bmp	1330
020218	12:12:42	1	17	5.0.10.0	dM_B12_B1_unplA	dB12_valA_pract2	7	11	300	300	0	0	222	18	1	1	blank2r.bmp	0	1	+	0	7	C3r.bmp	500	1	blank2r.bmp	730	1	BMVZ	730	4	B4r.bmp	830	1	blank2r.bmp	870	4	elend	870	1	!	1200	1	blank2r.bmp	1330
020218	12:12:42	1	17	5.0.10.0	dM_B12_B2_unplA	dB12_valA_pract2	7	12	300	300	0	0	146	23	1	1	blank2r.bmp	0	1	+	0	2	B2r.bmp	500	1	blank2r.bmp	730	1	GKQX	730	2	B2r.bmp	830	1	blank2r.bmp	870	1	unfair	870	1	!	1200	1	blank2r.bmp	1330
020218	12:12:42	1	17	5.0.10.0	d080_B12_B2_pleasA	dB12_valA_080	8	1	300	300	0	0	1086	23	1	1	blank2r.bmp	0	1	+	0	5	C1r.bmp	500	1	blank2r.bmp	800	1	GKQX	800	1	blank2r.bmp	880	3	freund	880	1	!	1210	1	blank2r.bmp	1340	0	0	0
020218	12:12:42	1	17	5.0.10.0	d080_B12_B2_unplA	dB12_valA_080	8	2	300	300	0	0	0	23	1	1	blank2r.bmp	0	1	+	0	6	C2r.bmp	500	1	blank2r.bmp	800	1	GKQX	800	1	blank2r.bmp	880	3	töten	880	1	!	1210	1	blank2r.bmp	1340	0	0	0
020218	12:12:42	1	17	5.0.10.0	d080_B12_B2_pleasA	dB12_valA_080	8	3	300	300	0	0	6	23	1	1	blank2r.bmp	0	1	+	0	8	C4r.bmp	500	1	blank2r.bmp	800	1	GKQX	800	1	blank2r.bmp	880	2	schön	880	1	!	1210	1	blank2r.bmp	1340	0	0	0
020218	12:12:42	1	17	5.0.10.0	d080_B12_B1_unplA	dB12_valA_080	8	4	300	300	0	0	1222	18	1	1	blank2r.bmp	0	1	+	0	1	B1r.bmp	500	1	blank2r.bmp	800	1	BMVZ	800	1	blank2r.bmp	880	1	unfair	880	1	!	1210	1	blank2r.bmp	1340	0	0	0
020218	12:12:42	1	17	5.0.10.0	d080_B12_B2_pleasA	dB12_valA_080	8	5	300	300	0	0	532	23	1	1	blank2r.bmp	0	1	+	0	2	B2r.bmp	500	1	blank2r.bmp	800	1	GKQX	800	1	blank2r.bmp	880	5	friedlich	880	1	!	1210	1	blank2r.bmp	1340	0	0	0
020218	12:12:42	1	17	5.0.10.0	d080_B12_B2_unplA	dB12_valA_080	8	6	300	300	0	0	63	23	1	1	blank2r.bmp	0	1	+	0	7	C3r.bmp	500	1	blank2r.bmp	800	1	GKQX	800	1	blank2r.bmp	880	5	schlecht	880	1	!	1210	1	blank2r.bmp	1340	0	0	0
020218	12:12:42	1	17	5.0.10.0	d080_B12_B2_pleasA	dB12_valA_080	8	7	300	300	0	0	1272	23	1	1	blank2r.bmp	0	1	+	0	3	B3r.bmp	500	1	blank2r.bmp	800	1	GKQX	800	1	blank2r.bmp	880	4	heiter	880	1	!	1210	1	blank2r.bmp	1340	0	0	0
020218	12:12:42	1	17	5.0.10.0	d080_B12_B1_pleasA	dB12_valA_080	8	8	300	300	0	0	909	18	1	1	blank2r.bmp	0	1	+	0	4	B4r.bmp	500	1	blank2r.bmp	800	1	BMVZ	800	1	blank2r.bmp	880	6	froh	880	1	!	1210	1	blank2r.bmp	1340	0	0	0
020218	12:12:42	1	17	5.0.10.0	d080_B12_B1_unplA	dB12_valA_080	8	9	300	300	0	0	87	18	1	1	blank2r.bmp	0	1	+	0	6	C2r.bmp	500	1	blank2r.bmp	800	1	BMVZ	800	1	blank2r.bmp	880	6	leiden	880	1	!	1210	1	blank2r.bmp	1340	0	0	0
020218	12:12:42	1	17	5.0.10.0	d080_B12_B1_pleasA	dB12_valA_080	8	10	300	300	0	0	22	18	1	1	blank2r.bmp	0	1	+	0	2	B2r.bmp	500	1	blank2r.bmp	800	1	BMVZ	800	1	blank2r.bmp	880	1	toll	880	1	!	1210	1	blank2r.bmp	1340	0	0	0
020218	12:12:42	1	17	5.0.10.0	d080_B12_B1_unplA	dB12_valA_080	8	11	300	300	0	0	112	23	0	1	blank2r.bmp	0	1	+	0	7	C3r.bmp	500	1	blank2r.bmp	800	1	BMVZ	800	1	blank2r.bmp	880	4	elend	880	1	!	1210	1	blank2r.bmp	1340	0	0	0
020218	12:12:42	1	17	5.0.10.0	d080_B12_B1_unplA	dB12_valA_080	8	12	300	300	0	0	57	18	1	1	blank2r.bmp	0	1	+	0	3	B3r.bmp	500	1	blank2r.bmp	800	1	BMVZ	800	1	blank2r.bmp	880	2	neidisch	880	1	!	1210	1	blank2r.bmp	1340	0	0	0
020218	12:12:42	1	17	5.0.10.0	d080_B12_B2_pleasA	dB12_valA_080	8	13	300	300	0	0	1388	23	1	1	blank2r.bmp	0	1	+	0	8	C4r.bmp	500	1	blank2r.bmp	800	1	GKQX	800	1	blank2r.bmp	880	1	toll	880	1	!	1210	1	blank2r.bmp	1340	0	0	0
020218	12:12:42	1	17	5.0.10.0	d080_B12_B1_pleasA	dB12_valA_080	8	14	300	300	0	0	27	18	1	1	blank2r.bmp	0	1	+	0	1	B1r.bmp	500	1	blank2r.bmp	800	1	BMVZ	800	1	blank2r.bmp	880	3	freund	880	1	!	1210	1	blank2r.bmp	1340	0	0	0
020218	12:12:42	1	17	5.0.10.0	d080_B12_B2_unplA	dB12_valA_080	8	15	300	300	0	0	1	23	1	1	blank2r.bmp	0	1	+	0	4	B4r.bmp	500	1	blank2r.bmp	800	1	GKQX	800	1	blank2r.bmp	880	5	schlecht	880	1	!	1210	1	blank2r.bmp	1340	0	0	0
020218	12:12:42	1	17	5.0.10.0	d080_B12_B1_unplA	dB12_valA_080	8	16	300	300	0	0	1376	18	1	1	blank2r.bmp	0	1	+	0	5	C1r.bmp	500	1	blank2r.bmp	800	1	BMVZ	800	1	blank2r.bmp	880	2	neidisch	880	1	!	1210	1	blank2r.bmp	1340	0	0	0
020218	12:12:42	1	17	5.0.10.0	d080_B12_B1_pleasA	dB12_valA_080	8	17	300	300	0	0	13	18	1	1	blank2r.bmp	0	1	+	0	4	B4r.bmp	500	1	blank2r.bmp	800	1	BMVZ	800	1	blank2r.bmp	880	4	heiter	880	1	!	1210	1	blank2r.bmp	1340	0	0	0
020218	12:12:42	1	17	5.0.10.0	d080_B12_B2_unplA	dB12_valA_080	8	18	300	300	0	0	1338	23	1	1	blank2r.bmp	0	1	+	0	2	B2r.bmp	500	1	blank2r.bmp	800	1	GKQX	800	1	blank2r.bmp	880	1	unfair	880	1	!	1210	1	blank2r.bmp	1340	0	0	0
020218	12:12:42	1	17	5.0.10.0	d080_B12_B2_unplA	dB12_valA_080	8	19	300	300	0	0	1079	23	1	1	blank2r.bmp	0	1	+	0	6	C2r.bmp	500	1	blank2r.bmp	800	1	GKQX	800	1	blank2r.bmp	880	6	leiden	880	1	!	1210	1	blank2r.bmp	1340	0	0	0
020218	12:12:42	1	17	5.0.10.0	d080_B12_B1_pleasA	dB12_valA_080	8	20	300	300	0	0	1484	18	1	1	blank2r.bmp	0	1	+	0	1	B1r.bmp	500	1	blank2r.bmp	800	1	BMVZ	800	1	blank2r.bmp	880	6	froh	880	1	!	1210	1	blank2r.bmp	1340	0	0	0
020218	12:12:42	1	17	5.0.10.0	d080_B12_B2_pleasA	dB12_valA_080	8	21	300	300	0	0	753	23	1	1	blank2r.bmp	0	1	+	0	3	B3r.bmp	500	1	blank2r.bmp	800	1	GKQX	800	1	blank2r.bmp	880	5	friedlich	880	1	!	1210	1	blank2r.bmp	1340	0	0	0
020218	12:12:42	1	17	5.0.10.0	d080_B12_B1_unplA	dB12_valA_080	8	22	300	300	0	0	942	18	1	1	blank2r.bmp	0	1	+	0	7	C3r.bmp	500	1	blank2r.bmp	800	1	BMVZ	800	1	blank2r.bmp	880	4	elend	880	1	!	1210	1	blank2r.bmp	1340	0	0	0
020218	12:12:42	1	17	5.0.10.0	d080_B12_B1_unplA	dB12_valA_080	8	23	300	300	0	0	990	18	1	1	blank2r.bmp	0	1	+	0	8	C4r.bmp	500	1	blank2r.bmp	800	1	BMVZ	800	1	blank2r.bmp	880	3	töten	880	1	!	1210	1	blank2r.bmp	1340	0	0	0
020218	12:12:42	1	17	5.0.10.0	d080_B12_B1_unplA	dB12_valA_080	8	24	300	300	0	0	45	18	1	1	blank2r.bmp	0	1	+	0	5	C1r.bmp	500	1	blank2r.bmp	800	1	BMVZ	800	1	blank2r.bmp	880	4	elend	880	1	!	1210	1	blank2r.bmp	1340	0	0	0
020218	12:12:42	1	17	5.0.10.0	d080_B12_B2_unplA	dB12_valA_080	8	25	300	300	0	0	36	23	1	1	blank2r.bmp	0	1	+	0	7	C3r.bmp	500	1	blank2r.bmp	800	1	GKQX	800	1	blank2r.bmp	880	6	leiden	880	1	!	1210	1	blank2r.bmp	1340	0	0	0
020218	12:12:42	1	17	5.0.10.0	d080_B12_B1_unplA	dB12_valA_080	8	26	300	300	0	0	1052	18	1	1	blank2r.bmp	0	1	+	0	8	C4r.bmp	500	1	blank2r.bmp	800	1	BMVZ	800	1	blank2r.bmp	880	1	unfair	880	1	!	1210	1	blank2r.bmp	1340	0	0	0
020218	12:12:42	1	17	5.0.10.0	d080_B12_B2_pleasA	dB12_valA_080	8	27	300	300	0	0	1089	23	1	1	blank2r.bmp	0	1	+	0	1	B1r.bmp	500	1	blank2r.bmp	800	1	GKQX	800	1	blank2r.bmp	880	2	schön	880	1	!	1210	1	blank2r.bmp	1340	0	0	0
020218	12:12:42	1	17	5.0.10.0	d080_B12_B2_unplA	dB12_valA_080	8	28	300	300	0	0	1131	23	1	1	blank2r.bmp	0	1	+	0	4	B4r.bmp	500	1	blank2r.bmp	800	1	GKQX	800	1	blank2r.bmp	880	2	neidisch	880	1	!	1210	1	blank2r.bmp	1340	0	0	0
020218	12:12:42	1	17	5.0.10.0	d080_B12_B2_unplA	dB12_valA_080	8	29	300	300	0	0	927	23	1	1	blank2r.bmp	0	1	+	0	2	B2r.bmp	500	1	blank2r.bmp	800	1	GKQX	800	1	blank2r.bmp	880	3	töten	880	1	!	1210	1	blank2r.bmp	1340	0	0	0
020218	12:12:42	1	17	5.0.10.0	d080_B12_B1_pleasA	dB12_valA_080	8	30	300	300	0	0	53	18	1	1	blank2r.bmp	0	1	+	0	6	C2r.bmp	500	1	blank2r.bmp	800	1	BMVZ	800	1	blank2r.bmp	880	1	toll	880	1	!	1210	1	blank2r.bmp	1340	0	0	0
020218	12:12:42	1	17	5.0.10.0	d080_B12_B1_pleasA	dB12_valA_080	8	31	300	300	0	0	90	18	1	1	blank2r.bmp	0	1	+	0	5	C1r.bmp	500	1	blank2r.bmp	800	1	BMVZ	800	1	blank2r.bmp	880	2	schön	880	1	!	1210	1	blank2r.bmp	1340	0	0	0
020218	12:12:42	1	17	5.0.10.0	d080_B12_B1_pleasA	dB12_valA_080	8	32	300	300	0	0	90	18	1	1	blank2r.bmp	0	1	+	0	3	B3r.bmp	500	1	blank2r.bmp	800	1	BMVZ	800	1	blank2r.bmp	880	3	freund	880	1	!	1210	1	blank2r.bmp	1340	0	0	0
020218	12:12:42	1	17	5.0.10.0	d080_B12_B2_pleasA	dB12_valA_080	8	33	300	300	0	0	64	23	1	1	blank2r.bmp	0	1	+	0	1	B1r.bmp	500	1	blank2r.bmp	800	1	GKQX	800	1	blank2r.bmp	880	6	froh	880	1	!	1210	1	blank2r.bmp	1340	0	0	0
020218	12:12:42	1	17	5.0.10.0	d080_B12_B2_pleasA	dB12_valA_080	8	34	300	300	0	0	43	23	1	1	blank2r.bmp	0	1	+	0	2	B2r.bmp	500	1	blank2r.bmp	800	1	GKQX	800	1	blank2r.bmp	880	4	heiter	880	1	!	1210	1	blank2r.bmp	1340	0	0	0
020218	12:12:42	1	17	5.0.10.0	d080_B12_B2_pleasA	dB12_valA_080	8	35	300	300	0	0	275	18	0	1	blank2r.bmp	0	1	+	0	8	C4r.bmp	500	1	blank2r.bmp	800	1	GKQX	800	1	blank2r.bmp	880	5	friedlich	880	1	!	1210	1	blank2r.bmp	1340	0	0	0
020218	12:12:42	1	17	5.0.10.0	d080_B12_B2_unplA	dB12_valA_080	8	36	300	300	0	0	4119	23	1	1	blank2r.bmp	0	1	+	0	4	B4r.bmp	500	1	blank2r.bmp	800	1	GKQX	800	1	blank2r.bmp	880	5	schlecht	880	1	!	1210	1	blank2r.bmp	1340	0	0	0
020218	12:12:42	1	17	5.0.10.0	d080_B12_B2_unplA	dB12_valA_080	8	37	300	300	0	0	1008	23	1	1	blank2r.bmp	0	1	+	0	5	C1r.bmp	500	1	blank2r.bmp	800	1	GKQX	800	1	blank2r.bmp	880	6	leiden	880	1	!	1210	1	blank2r.bmp	1340	0	0	0
020218	12:12:42	1	17	5.0.10.0	d080_B12_B2_pleasA	dB12_valA_080	8	38	300	300	0	0	205	23	1	1	blank2r.bmp	0	1	+	0	6	C2r.bmp	500	1	blank2r.bmp	800	1	GKQX	800	1	blank2r.bmp	880	6	froh	880	1	!	1210	1	blank2r.bmp	1340	0	0	0
020218	12:12:42	1	17	5.0.10.0	d080_B12_B2_unplA	dB12_valA_080	8	39	300	300	0	0	48	23	1	1	blank2r.bmp	0	1	+	0	3	B3r.bmp	500	1	blank2r.bmp	800	1	GKQX	800	1	blank2r.bmp	880	4	elend	880	1	!	1210	1	blank2r.bmp	1340	0	0	0
020218	12:12:42	1	17	5.0.10.0	d080_B12_B1_pleasA	dB12_valA_080	8	40	300	300	0	0	139	18	1	1	blank2r.bmp	0	1	+	0	7	C3r.bmp	500	1	blank2r.bmp	800	1	BMVZ	800	1	blank2r.bmp	880	2	schön	880	1	!	1210	1	blank2r.bmp	1340	0	0	0
020218	12:12:42	1	17	5.0.10.0	d080_B12_B1_pleasA	dB12_valA_080	8	41	300	300	0	0	1579	18	1	1	blank2r.bmp	0	1	+	0	3	B3r.bmp	500	1	blank2r.bmp	800	1	BMVZ	800	1	blank2r.bmp	880	4	heiter	880	1	!	1210	1	blank2r.bmp	1340	0	0	0
020218	12:12:42	1	17	5.0.10.0	d080_B12_B1_pleasA	dB12_valA_080	8	42	300	300	0	0	234	18	1	1	blank2r.bmp	0	1	+	0	7	C3r.bmp	500	1	blank2r.bmp	800	1	BMVZ	800	1	blank2r.bmp	880	3	freund	880	1	!	1210	1	blank2r.bmp	1340	0	0	0
020218	12:12:42	1	17	5.0.10.0	d080_B12_B1_unplA	dB12_valA_080	8	43	300	300	0	0	65	18	1	1	blank2r.bmp	0	1	+	0	5	C1r.bmp	500	1	blank2r.bmp	800	1	BMVZ	800	1	blank2r.bmp	880	1	unfair	880	1	!	1210	1	blank2r.bmp	1340	0	0	0
020218	12:12:42	1	17	5.0.10.0	d080_B12_B1_pleasA	dB12_valA_080	8	44	300	300	0	0	1591	18	1	1	blank2r.bmp	0	1	+	0	6	C2r.bmp	500	1	blank2r.bmp	800	1	BMVZ	800	1	blank2r.bmp	880	5	friedlich	880	1	!	1210	1	blank2r.bmp	1340	0	0	0
020218	12:12:42	1	17	5.0.10.0	d080_B12_B1_unplA	dB12_valA_080	8	45	300	300	0	0	21	18	1	1	blank2r.bmp	0	1	+	0	8	C4r.bmp	500	1	blank2r.bmp	800	1	BMVZ	800	1	blank2r.bmp	880	2	neidisch	880	1	!	1210	1	blank2r.bmp	1340	0	0	0
020218	12:12:42	1	17	5.0.10.0	d080_B12_B2_unplA	dB12_valA_080	8	46	300	300	0	0	1237	23	1	1	blank2r.bmp	0	1	+	0	2	B2r.bmp	500	1	blank2r.bmp	800	1	GKQX	800	1	blank2r.bmp	880	3	töten	880	1	!	1210	1	blank2r.bmp	1340	0	0	0
020218	12:12:42	1	17	5.0.10.0	d080_B12_B1_unplA	dB12_valA_080	8	47	300	300	0	0	1021	18	1	1	blank2r.bmp	0	1	+	0	4	B4r.bmp	500	1	blank2r.bmp	800	1	BMVZ	800	1	blank2r.bmp	880	5	schlecht	880	1	!	1210	1	blank2r.bmp	1340	0	0	0
020218	12:12:42	1	17	5.0.10.0	d080_B12_B2_pleasA	dB12_valA_080	8	48	300	300	0	0	50	23	1	1	blank2r.bmp	0	1	+	0	1	B1r.bmp	500	1	blank2r.bmp	800	1	GKQX	800	1	blank2r.bmp	880	1	toll	880	1	!	1210	1	blank2r.bmp	1340	0	0	0
020218	12:12:42	1	17	5.0.10.0	d080_B12_B1_pleasA	dB12_valA_080	9	1	300	300	0	0	720	18	1	1	blank2r.bmp	0	1	+	0	8	C4r.bmp	500	1	blank2r.bmp	800	1	BMVZ	800	1	blank2r.bmp	880	5	friedlich	880	1	!	1210	1	blank2r.bmp	1340	0	0	0
020218	12:12:42	1	17	5.0.10.0	d080_B12_B2_unplA	dB12_valA_080	9	2	300	300	0	0	977	23	1	1	blank2r.bmp	0	1	+	0	1	B1r.bmp	500	1	blank2r.bmp	800	1	GKQX	800	1	blank2r.bmp	880	4	elend	880	1	!	1210	1	blank2r.bmp	1340	0	0	0
020218	12:12:42	1	17	5.0.10.0	d080_B12_B2_pleasA	dB12_valA_080	9	3	300	300	0	0	1483	23	1	1	blank2r.bmp	0	1	+	0	3	B3r.bmp	500	1	blank2r.bmp	800	1	GKQX	800	1	blank2r.bmp	880	3	freund	880	1	!	1210	1	blank2r.bmp	1340	0	0	0
020218	12:12:42	1	17	5.0.10.0	d080_B12_B2_unplA	dB12_valA_080	9	4	300	300	0	0	23	23	1	1	blank2r.bmp	0	1	+	0	6	C2r.bmp	500	1	blank2r.bmp	800	1	GKQX	800	1	blank2r.bmp	880	5	schlecht	880	1	!	1210	1	blank2r.bmp	1340	0	0	0
020218	12:12:42	1	17	5.0.10.0	d080_B12_B1_pleasA	dB12_valA_080	9	5	300	300	0	0	1111	18	1	1	blank2r.bmp	0	1	+	0	5	C1r.bmp	500	1	blank2r.bmp	800	1	BMVZ	800	1	blank2r.bmp	880	1	toll	880	1	!	1210	1	blank2r.bmp	1340	0	0	0
020218	12:12:42	1	17	5.0.10.0	d080_B12_B1_pleasA	dB12_valA_080	9	6	300	300	0	0	66	18	1	1	blank2r.bmp	0	1	+	0	2	B2r.bmp	500	1	blank2r.bmp	800	1	BMVZ	800	1	blank2r.bmp	880	2	schön	880	1	!	1210	1	blank2r.bmp	1340	0	0	0
020218	12:12:42	1	17	5.0.10.0	d080_B12_B2_pleasA	dB12_valA_080	9	7	300	300	0	0	15	23	1	1	blank2r.bmp	0	1	+	0	4	B4r.bmp	500	1	blank2r.bmp	800	1	GKQX	800	1	blank2r.bmp	880	4	heiter	880	1	!	1210	1	blank2r.bmp	1340	0	0	0
020218	12:12:42	1	17	5.0.10.0	d080_B12_B2_unplA	dB12_valA_080	9	8	300	300	0	0	996	23	1	1	blank2r.bmp	0	1	+	0	7	C3r.bmp	500	1	blank2r.bmp	800	1	GKQX	800	1	blank2r.bmp	880	3	töten	880	1	!	1210	1	blank2r.bmp	1340	0	0	0
020218	12:12:42	1	17	5.0.10.0	d080_B12_B2_pleasA	dB12_valA_080	9	9	300	300	0	0	44	23	1	1	blank2r.bmp	0	1	+	0	2	B2r.bmp	500	1	blank2r.bmp	800	1	GKQX	800	1	blank2r.bmp	880	6	froh	880	1	!	1210	1	blank2r.bmp	1340	0	0	0
020218	12:12:42	1	17	5.0.10.0	d080_B12_B1_unplA	dB12_valA_080	9	10	300	300	0	0	918	18	1	1	blank2r.bmp	0	1	+	0	3	B3r.bmp	500	1	blank2r.bmp	800	1	BMVZ	800	1	blank2r.bmp	880	1	unfair	880	1	!	1210	1	blank2r.bmp	1340	0	0	0
020218	12:12:42	1	17	5.0.10.0	d080_B12_B1_pleasA	dB12_valA_080	9	11	300	300	0	0	21	18	1	1	blank2r.bmp	0	1	+	0	7	C3r.bmp	500	1	blank2r.bmp	800	1	BMVZ	800	1	blank2r.bmp	880	5	friedlich	880	1	!	1210	1	blank2r.bmp	1340	0	0	0
020218	12:12:42	1	17	5.0.10.0	d080_B12_B1_unplA	dB12_valA_080	9	12	300	300	0	0	1547	18	1	1	blank2r.bmp	0	1	+	0	8	C4r.bmp	500	1	blank2r.bmp	800	1	BMVZ	800	1	blank2r.bmp	880	6	leiden	880	1	!	1210	1	blank2r.bmp	1340	0	0	0
020218	12:12:42	1	17	5.0.10.0	d080_B12_B1_unplA	dB12_valA_080	9	13	300	300	0	0	39	18	1	1	blank2r.bmp	0	1	+	0	6	C2r.bmp	500	1	blank2r.bmp	800	1	BMVZ	800	1	blank2r.bmp	880	2	neidisch	880	1	!	1210	1	blank2r.bmp	1340	0	0	0
020218	12:12:42	1	17	5.0.10.0	d080_B12_B1_pleasA	dB12_valA_080	9	14	300	300	0	0	1293	18	1	1	blank2r.bmp	0	1	+	0	4	B4r.bmp	500	1	blank2r.bmp	800	1	BMVZ	800	1	blank2r.bmp	880	1	toll	880	1	!	1210	1	blank2r.bmp	1340	0	0	0
020218	12:12:42	1	17	5.0.10.0	d080_B12_B1_pleasA	dB12_valA_080	9	15	300	300	0	0	1190	18	1	1	blank2r.bmp	0	1	+	0	5	C1r.bmp	500	1	blank2r.bmp	800	1	BMVZ	800	1	blank2r.bmp	880	3	freund	880	1	!	1210	1	blank2r.bmp	1340	0	0	0
020218	12:12:42	1	17	5.0.10.0	d080_B12_B2_unplA	dB12_valA_080	9	16	300	300	0	0	877	23	1	1	blank2r.bmp	0	1	+	0	1	B1r.bmp	500	1	blank2r.bmp	800	1	GKQX	800	1	blank2r.bmp	880	3	töten	880	1	!	1210	1	blank2r.bmp	1340	0	0	0
020218	12:12:42	1	17	5.0.10.0	d080_B12_B2_pleasA	dB12_valA_080	9	17	300	300	0	0	864	23	1	1	blank2r.bmp	0	1	+	0	2	B2r.bmp	500	1	blank2r.bmp	800	1	GKQX	800	1	blank2r.bmp	880	2	schön	880	1	!	1210	1	blank2r.bmp	1340	0	0	0
020218	12:12:42	1	17	5.0.10.0	d080_B12_B2_pleasA	dB12_valA_080	9	18	300	300	0	0	2	23	1	1	blank2r.bmp	0	1	+	0	1	B1r.bmp	500	1	blank2r.bmp	800	1	GKQX	800	1	blank2r.bmp	880	4	heiter	880	1	!	1210	1	blank2r.bmp	1340	0	0	0
020218	12:12:42	1	17	5.0.10.0	d080_B12_B1_pleasA	dB12_valA_080	9	19	300	300	0	0	557	18	1	1	blank2r.bmp	0	1	+	0	6	C2r.bmp	500	1	blank2r.bmp	800	1	BMVZ	800	1	blank2r.bmp	880	6	froh	880	1	!	1210	1	blank2r.bmp	1340	0	0	0
020218	12:12:42	1	17	5.0.10.0	d080_B12_B2_unplA	dB12_valA_080	9	20	300	300	0	0	8	23	1	1	blank2r.bmp	0	1	+	0	5	C1r.bmp	500	1	blank2r.bmp	800	1	GKQX	800	1	blank2r.bmp	880	1	unfair	880	1	!	1210	1	blank2r.bmp	1340	0	0	0
020218	12:12:42	1	17	5.0.10.0	d080_B12_B1_unplA	dB12_valA_080	9	21	300	300	0	0	1324	18	1	1	blank2r.bmp	0	1	+	0	8	C4r.bmp	500	1	blank2r.bmp	800	1	BMVZ	800	1	blank2r.bmp	880	2	neidisch	880	1	!	1210	1	blank2r.bmp	1340	0	0	0
020218	12:12:42	1	17	5.0.10.0	d080_B12_B2_pleasA	dB12_valA_080	9	22	300	300	0	0	788	23	1	1	blank2r.bmp	0	1	+	0	3	B3r.bmp	500	1	blank2r.bmp	800	1	GKQX	800	1	blank2r.bmp	880	2	schön	880	1	!	1210	1	blank2r.bmp	1340	0	0	0
020218	12:12:42	1	17	5.0.10.0	d080_B12_B1_pleasA	dB12_valA_080	9	23	300	300	0	0	39	18	1	1	blank2r.bmp	0	1	+	0	7	C3r.bmp	500	1	blank2r.bmp	800	1	BMVZ	800	1	blank2r.bmp	880	4	heiter	880	1	!	1210	1	blank2r.bmp	1340	0	0	0
020218	12:12:42	1	17	5.0.10.0	d080_B12_B2_unplA	dB12_valA_080	9	24	300	300	0	0	86	23	1	1	blank2r.bmp	0	1	+	0	4	B4r.bmp	500	1	blank2r.bmp	800	1	GKQX	800	1	blank2r.bmp	880	5	schlecht	880	1	!	1210	1	blank2r.bmp	1340	0	0	0
020218	12:12:42	1	17	5.0.10.0	d080_B12_B2_pleasA	dB12_valA_080	9	25	300	300	0	0	63	23	1	1	blank2r.bmp	0	1	+	0	2	B2r.bmp	500	1	blank2r.bmp	800	1	GKQX	800	1	blank2r.bmp	880	1	toll	880	1	!	1210	1	blank2r.bmp	1340	0	0	0
020218	12:12:42	1	17	5.0.10.0	d080_B12_B2_pleasA	dB12_valA_080	9	26	300	300	0	0	40	18	0	1	blank2r.bmp	0	1	+	0	7	C3r.bmp	500	1	blank2r.bmp	800	1	GKQX	800	1	blank2r.bmp	880	3	freund	880	1	!	1210	1	blank2r.bmp	1340	0	0	0
020218	12:12:42	1	17	5.0.10.0	d080_B12_B1_unplA	dB12_valA_080	9	27	300	300	0	0	34	18	1	1	blank2r.bmp	0	1	+	0	5	C1r.bmp	500	1	blank2r.bmp	800	1	BMVZ	800	1	blank2r.bmp	880	6	leiden	880	1	!	1210	1	blank2r.bmp	1340	0	0	0
020218	12:12:42	1	17	5.0.10.0	d080_B12_B2_unplA	dB12_valA_080	9	28	300	300	0	0	23	23	1	1	blank2r.bmp	0	1	+	0	1	B1r.bmp	500	1	blank2r.bmp	800	1	GKQX	800	1	blank2r.bmp	880	4	elend	880	1	!	1210	1	blank2r.bmp	1340	0	0	0
020218	12:12:42	1	17	5.0.10.0	d080_B12_B2_pleasA	dB12_valA_080	9	29	300	300	0	0	1616	23	1	1	blank2r.bmp	0	1	+	0	6	C2r.bmp	500	1	blank2r.bmp	800	1	GKQX	800	1	blank2r.bmp	880	5	friedlich	880	1	!	1210	1	blank2r.bmp	1340	0	0	0
020218	12:12:42	1	17	5.0.10.0	d080_B12_B1_pleasA	dB12_valA_080	9	30	300	300	0	0	8	18	1	1	blank2r.bmp	0	1	+	0	3	B3r.bmp	500	1	blank2r.bmp	800	1	BMVZ	800	1	blank2r.bmp	880	6	froh	880	1	!	1210	1	blank2r.bmp	1340	0	0	0
020218	12:12:42	1	17	5.0.10.0	d080_B12_B2_unplA	dB12_valA_080	9	31	300	300	0	0	46	23	1	1	blank2r.bmp	0	1	+	0	4	B4r.bmp	500	1	blank2r.bmp	800	1	GKQX	800	1	blank2r.bmp	880	3	töten	880	1	!	1210	1	blank2r.bmp	1340	0	0	0
020218	12:12:42	1	17	5.0.10.0	d080_B12_B2_unplA	dB12_valA_080	9	32	300	300	0	0	1120	23	1	1	blank2r.bmp	0	1	+	0	8	C4r.bmp	500	1	blank2r.bmp	800	1	GKQX	800	1	blank2r.bmp	880	2	neidisch	880	1	!	1210	1	blank2r.bmp	1340	0	0	0
020218	12:12:42	1	17	5.0.10.0	d080_B12_B1_pleasA	dB12_valA_080	9	33	300	300	0	0	907	18	1	1	blank2r.bmp	0	1	+	0	7	C3r.bmp	500	1	blank2r.bmp	800	1	BMVZ	800	1	blank2r.bmp	880	4	heiter	880	1	!	1210	1	blank2r.bmp	1340	0	0	0
020218	12:12:42	1	17	5.0.10.0	d080_B12_B1_unplA	dB12_valA_080	9	34	300	300	0	0	1037	18	1	1	blank2r.bmp	0	1	+	0	1	B1r.bmp	500	1	blank2r.bmp	800	1	BMVZ	800	1	blank2r.bmp	880	1	unfair	880	1	!	1210	1	blank2r.bmp	1340	0	0	0
020218	12:12:42	1	17	5.0.10.0	d080_B12_B1_unplA	dB12_valA_080	9	35	300	300	0	0	201	18	1	1	blank2r.bmp	0	1	+	0	6	C2r.bmp	500	1	blank2r.bmp	800	1	BMVZ	800	1	blank2r.bmp	880	5	schlecht	880	1	!	1210	1	blank2r.bmp	1340	0	0	0
020218	12:12:42	1	17	5.0.10.0	d080_B12_B2_unplA	dB12_valA_080	9	36	300	300	0	0	987	23	1	1	blank2r.bmp	0	1	+	0	4	B4r.bmp	500	1	blank2r.bmp	800	1	GKQX	800	1	blank2r.bmp	880	6	leiden	880	1	!	1210	1	blank2r.bmp	1340	0	0	0
020218	12:12:42	1	17	5.0.10.0	d080_B12_B1_unplA	dB12_valA_080	9	37	300	300	0	0	1	18	1	1	blank2r.bmp	0	1	+	0	5	C1r.bmp	500	1	blank2r.bmp	800	1	BMVZ	800	1	blank2r.bmp	880	4	elend	880	1	!	1210	1	blank2r.bmp	1340	0	0	0
020218	12:12:42	1	17	5.0.10.0	d080_B12_B2_pleasA	dB12_valA_080	9	38	300	300	0	0	37	23	1	1	blank2r.bmp	0	1	+	0	8	C4r.bmp	500	1	blank2r.bmp	800	1	GKQX	800	1	blank2r.bmp	880	6	froh	880	1	!	1210	1	blank2r.bmp	1340	0	0	0
020218	12:12:42	1	17	5.0.10.0	d080_B12_B1_unplA	dB12_valA_080	9	39	300	300	0	0	77	18	1	1	blank2r.bmp	0	1	+	0	2	B2r.bmp	500	1	blank2r.bmp	800	1	BMVZ	800	1	blank2r.bmp	880	2	neidisch	880	1	!	1210	1	blank2r.bmp	1340	0	0	0
020218	12:12:42	1	17	5.0.10.0	d080_B12_B1_unplA	dB12_valA_080	9	40	300	300	0	0	1801	18	1	1	blank2r.bmp	0	1	+	0	3	B3r.bmp	500	1	blank2r.bmp	800	1	BMVZ	800	1	blank2r.bmp	880	4	elend	880	1	!	1210	1	blank2r.bmp	1340	0	0	0
020218	12:12:42	1	17	5.0.10.0	d080_B12_B1_unplA	dB12_valA_080	9	41	300	300	0	0	87	18	1	1	blank2r.bmp	0	1	+	0	6	C2r.bmp	500	1	blank2r.bmp	800	1	BMVZ	800	1	blank2r.bmp	880	5	schlecht	880	1	!	1210	1	blank2r.bmp	1340	0	0	0
020218	12:12:42	1	17	5.0.10.0	d080_B12_B1_unplA	dB12_valA_080	9	42	300	300	0	0	117	18	1	1	blank2r.bmp	0	1	+	0	3	B3r.bmp	500	1	blank2r.bmp	800	1	BMVZ	800	1	blank2r.bmp	880	1	unfair	880	1	!	1210	1	blank2r.bmp	1340	0	0	0
020218	12:12:42	1	17	5.0.10.0	d080_B12_B2_unplA	dB12_valA_080	9	43	300	300	0	0	1699	23	1	1	blank2r.bmp	0	1	+	0	4	B4r.bmp	500	1	blank2r.bmp	800	1	GKQX	800	1	blank2r.bmp	880	3	töten	880	1	!	1210	1	blank2r.bmp	1340	0	0	0
020218	12:12:42	1	17	5.0.10.0	d080_B12_B2_pleasA	dB12_valA_080	9	44	300	300	0	0	1612	18	0	1	blank2r.bmp	0	1	+	0	2	B2r.bmp	500	1	blank2r.bmp	800	1	GKQX	800	1	blank2r.bmp	880	2	schön	880	1	!	1210	1	blank2r.bmp	1340	0	0	0
020218	12:12:42	1	17	5.0.10.0	d080_B12_B2_unplA	dB12_valA_080	9	45	300	300	0	0	118	23	1	1	blank2r.bmp	0	1	+	0	5	C1r.bmp	500	1	blank2r.bmp	800	1	GKQX	800	1	blank2r.bmp	880	6	leiden	880	1	!	1210	1	blank2r.bmp	1340	0	0	0
020218	12:12:42	1	17	5.0.10.0	d080_B12_B1_pleasA	dB12_valA_080	9	46	300	300	0	0	118	18	1	1	blank2r.bmp	0	1	+	0	1	B1r.bmp	500	1	blank2r.bmp	800	1	BMVZ	800	1	blank2r.bmp	880	5	friedlich	880	1	!	1210	1	blank2r.bmp	1340	0	0	0
020218	12:12:42	1	17	5.0.10.0	d080_B12_B2_pleasA	dB12_valA_080	9	47	300	300	0	0	1863	23	1	1	blank2r.bmp	0	1	+	0	7	C3r.bmp	500	1	blank2r.bmp	800	1	GKQX	800	1	blank2r.bmp	880	1	toll	880	1	!	1210	1	blank2r.bmp	1340	0	0	0
020218	12:12:42	1	17	5.0.10.0	d080_B12_B1_pleasA	dB12_valA_080	9	48	300	300	0	0	26	18	1	1	blank2r.bmp	0	1	+	0	8	C4r.bmp	500	1	blank2r.bmp	800	1	BMVZ	800	1	blank2r.bmp	880	3	freund	880	1	!	1210	1	blank2r.bmp	1340	0	0	0
020218	12:12:42	1	17	5.0.10.0	endtrial	endblock	10	1	300	300	0	0	1878509	Ctrl+'Q'	1	0	0	0	0	0	0	0	0	0	0	0	0	0	0	0	0	0	0	0	0	0	0	0	0	0	0	0	0	0	0
