date	time	group	subject	build	trialcode	blockcode	blocknum	trialnum	pretrialpause	posttrialpause	trialduration	trialtimeout	latency	response	correct	stimulusnumber1	stimulusitem1	stimulusonset1	stimulusnumber2	stimulusitem2	stimulusonset2	stimulusnumber3	stimulusitem3	stimulusonset3	stimulusnumber4	stimulusitem4	stimulusonset4	stimulusnumber5	stimulusitem5	stimulusonset5	stimulusnumber6	stimulusitem6	stimulusonset6	stimulusnumber7	stimulusitem7	stimulusonset7	stimulusnumber8	stimulusitem8	stimulusonset8	stimulusnumber9	stimulusitem9	stimulusonset9	stimulusnumber10	stimulusitem10	stimulusonset10
020218	09:07:04	1	13	5.0.10.0	dL_A12_A2_unplB	dA12_valB_pract1	1	1	300	300	0	0	4761	23	1	1	blank2r.bmp	0	1	+	0	2	B2r.bmp	500	1	blank2r.bmp	700	1	DHJF	700	8	C4r.bmp	830	1	blank2r.bmp	870	2	geizig	870	1	!	1200	1	blank2r.bmp	1330
020218	09:07:04	1	13	5.0.10.0	dL_A12_A1_pleasB	dA12_valB_pract1	1	2	300	300	0	0	24	18	1	1	blank2r.bmp	0	1	+	0	5	C1r.bmp	500	1	blank2r.bmp	700	1	NPLW	700	3	B3r.bmp	830	1	blank2r.bmp	870	3	kuss	870	1	!	1200	1	blank2r.bmp	1330
020218	09:07:04	1	13	5.0.10.0	dL_A12_A1_pleasB	dA12_valB_pract1	1	3	300	300	0	0	3116	18	1	1	blank2r.bmp	0	1	+	0	6	C2r.bmp	500	1	blank2r.bmp	700	1	NPLW	700	5	C1r.bmp	830	1	blank2r.bmp	870	4	treu	870	1	!	1200	1	blank2r.bmp	1330
020218	09:07:04	1	13	5.0.10.0	dL_A12_A1_unplB	dA12_valB_pract1	1	4	300	300	0	0	3267	18	1	1	blank2r.bmp	0	1	+	0	1	B1r.bmp	500	1	blank2r.bmp	700	1	NPLW	700	6	C2r.bmp	830	1	blank2r.bmp	870	3	ärger	870	1	!	1200	1	blank2r.bmp	1330
020218	09:07:04	1	13	5.0.10.0	dL_A12_A2_unplB	dA12_valB_pract1	1	5	300	300	0	0	463	23	1	1	blank2r.bmp	0	1	+	0	8	C4r.bmp	500	1	blank2r.bmp	700	1	DHJF	700	4	B4r.bmp	830	1	blank2r.bmp	870	4	böse	870	1	!	1200	1	blank2r.bmp	1330
020218	09:07:04	1	13	5.0.10.0	dL_A12_A1_unplB	dA12_valB_pract1	1	6	300	300	0	0	277	18	1	1	blank2r.bmp	0	1	+	0	7	C3r.bmp	500	1	blank2r.bmp	700	1	NPLW	700	2	B2r.bmp	830	1	blank2r.bmp	870	5	kummer	870	1	!	1200	1	blank2r.bmp	1330
020218	09:07:04	1	13	5.0.10.0	dL_A12_A2_pleasB	dA12_valB_pract1	1	7	300	300	0	0	210	18	0	1	blank2r.bmp	0	1	+	0	4	B4r.bmp	500	1	blank2r.bmp	700	1	DHJF	700	1	B1r.bmp	830	1	blank2r.bmp	870	5	begabt	870	1	!	1200	1	blank2r.bmp	1330
020218	09:07:04	1	13	5.0.10.0	dL_A12_A1_pleasB	dA12_valB_pract1	1	8	300	300	0	0	158	23	0	1	blank2r.bmp	0	1	+	0	3	B3r.bmp	500	1	blank2r.bmp	700	1	NPLW	700	7	C3r.bmp	830	1	blank2r.bmp	870	1	gut	870	1	!	1200	1	blank2r.bmp	1330
020218	09:07:04	1	13	5.0.10.0	dL_A12_A1_unplB	dA12_valB_pract1	1	9	300	300	0	0	54	18	1	1	blank2r.bmp	0	1	+	0	2	B2r.bmp	500	1	blank2r.bmp	700	1	NPLW	700	4	B4r.bmp	830	1	blank2r.bmp	870	1	grausam	870	1	!	1200	1	blank2r.bmp	1330
020218	09:07:04	1	13	5.0.10.0	dL_A12_A2_unplB	dA12_valB_pract1	1	10	300	300	0	0	2023	23	1	1	blank2r.bmp	0	1	+	0	1	B1r.bmp	500	1	blank2r.bmp	700	1	DHJF	700	6	C2r.bmp	830	1	blank2r.bmp	870	6	traurig	870	1	!	1200	1	blank2r.bmp	1330
020218	09:07:04	1	13	5.0.10.0	dL_A12_A2_pleasB	dA12_valB_pract1	1	11	300	300	0	0	45	23	1	1	blank2r.bmp	0	1	+	0	4	B4r.bmp	500	1	blank2r.bmp	700	1	DHJF	700	5	C1r.bmp	830	1	blank2r.bmp	870	6	kreativ	870	1	!	1200	1	blank2r.bmp	1330
020218	09:07:04	1	13	5.0.10.0	dL_A12_A2_pleasB	dA12_valB_pract1	1	12	300	300	0	0	166	23	1	1	blank2r.bmp	0	1	+	0	8	C4r.bmp	500	1	blank2r.bmp	700	1	DHJF	700	1	B1r.bmp	830	1	blank2r.bmp	870	2	mutig	870	1	!	1200	1	blank2r.bmp	1330
020218	09:07:04	1	13	5.0.10.0	dM_A12_A2_unplB	dA12_valB_pract2	2	1	300	300	0	0	118	23	1	1	blank2r.bmp	0	1	+	0	3	B3r.bmp	500	1	blank2r.bmp	730	1	DHJF	730	8	C4r.bmp	830	1	blank2r.bmp	870	2	geizig	870	1	!	1200	1	blank2r.bmp	1330
020218	09:07:04	1	13	5.0.10.0	dM_A12_A2_pleasB	dA12_valB_pract2	2	2	300	300	0	0	833	23	1	1	blank2r.bmp	0	1	+	0	6	C2r.bmp	500	1	blank2r.bmp	730	1	DHJF	730	2	B2r.bmp	830	1	blank2r.bmp	870	5	begabt	870	1	!	1200	1	blank2r.bmp	1330
020218	09:07:04	1	13	5.0.10.0	dM_A12_A1_pleasB	dA12_valB_pract2	2	3	300	300	0	0	1166	18	1	1	blank2r.bmp	0	1	+	0	5	C1r.bmp	500	1	blank2r.bmp	730	1	NPLW	730	3	B3r.bmp	830	1	blank2r.bmp	870	3	kuss	870	1	!	1200	1	blank2r.bmp	1330
020218	09:07:04	1	13	5.0.10.0	dM_A12_A1_pleasB	dA12_valB_pract2	2	4	300	300	0	0	222	18	1	1	blank2r.bmp	0	1	+	0	7	C3r.bmp	500	1	blank2r.bmp	730	1	NPLW	730	7	C3r.bmp	830	1	blank2r.bmp	870	4	treu	870	1	!	1200	1	blank2r.bmp	1330
020218	09:07:04	1	13	5.0.10.0	dM_A12_A2_unplB	dA12_valB_pract2	2	5	300	300	0	0	353	18	0	1	blank2r.bmp	0	1	+	0	5	C1r.bmp	500	1	blank2r.bmp	730	1	DHJF	730	3	B3r.bmp	830	1	blank2r.bmp	870	4	böse	870	1	!	1200	1	blank2r.bmp	1330
020218	09:07:04	1	13	5.0.10.0	dM_A12_A1_unplB	dA12_valB_pract2	2	6	300	300	0	0	168	18	1	1	blank2r.bmp	0	1	+	0	8	C4r.bmp	500	1	blank2r.bmp	730	1	NPLW	730	5	C1r.bmp	830	1	blank2r.bmp	870	3	ärger	870	1	!	1200	1	blank2r.bmp	1330
020218	09:07:04	1	13	5.0.10.0	dM_A12_A1_unplB	dA12_valB_pract2	2	7	300	300	0	0	27	18	1	1	blank2r.bmp	0	1	+	0	7	C3r.bmp	500	1	blank2r.bmp	730	1	NPLW	730	4	B4r.bmp	830	1	blank2r.bmp	870	1	grausam	870	1	!	1200	1	blank2r.bmp	1330
020218	09:07:04	1	13	5.0.10.0	dM_A12_A2_unplB	dA12_valB_pract2	2	8	300	300	0	0	462	18	0	1	blank2r.bmp	0	1	+	0	2	B2r.bmp	500	1	blank2r.bmp	730	1	DHJF	730	6	C2r.bmp	830	1	blank2r.bmp	870	6	traurig	870	1	!	1200	1	blank2r.bmp	1330
020218	09:07:04	1	13	5.0.10.0	dM_A12_A1_unplB	dA12_valB_pract2	2	9	300	300	0	0	183	18	1	1	blank2r.bmp	0	1	+	0	3	B3r.bmp	500	1	blank2r.bmp	730	1	NPLW	730	2	B2r.bmp	830	1	blank2r.bmp	870	5	kummer	870	1	!	1200	1	blank2r.bmp	1330
020218	09:07:04	1	13	5.0.10.0	dM_A12_A2_pleasB	dA12_valB_pract2	2	10	300	300	0	0	61	23	1	1	blank2r.bmp	0	1	+	0	6	C2r.bmp	500	1	blank2r.bmp	730	1	DHJF	730	1	B1r.bmp	830	1	blank2r.bmp	870	2	mutig	870	1	!	1200	1	blank2r.bmp	1330
020218	09:07:04	1	13	5.0.10.0	dM_A12_A1_pleasB	dA12_valB_pract2	2	11	300	300	0	0	1302	23	0	1	blank2r.bmp	0	1	+	0	4	B4r.bmp	500	1	blank2r.bmp	730	1	NPLW	730	8	C4r.bmp	830	1	blank2r.bmp	870	1	gut	870	1	!	1200	1	blank2r.bmp	1330
020218	09:07:04	1	13	5.0.10.0	dM_A12_A2_pleasB	dA12_valB_pract2	2	12	300	300	0	0	90	23	1	1	blank2r.bmp	0	1	+	0	1	B1r.bmp	500	1	blank2r.bmp	730	1	DHJF	730	7	C3r.bmp	830	1	blank2r.bmp	870	6	kreativ	870	1	!	1200	1	blank2r.bmp	1330
020218	09:07:04	1	13	5.0.10.0	d070_A12_A2_pleasB	dA12_valB_070	3	1	300	300	0	0	219	23	1	1	blank2r.bmp	0	1	+	0	1	B1r.bmp	500	1	blank2r.bmp	800	1	DHJF	800	1	blank2r.bmp	870	4	treu	870	1	!	1200	1	blank2r.bmp	1330	0	0	0
020218	09:07:04	1	13	5.0.10.0	d070_A12_A2_unplB	dA12_valB_070	3	2	300	300	0	0	139	23	1	1	blank2r.bmp	0	1	+	0	4	B4r.bmp	500	1	blank2r.bmp	800	1	DHJF	800	1	blank2r.bmp	870	3	ärger	870	1	!	1200	1	blank2r.bmp	1330	0	0	0
020218	09:07:04	1	13	5.0.10.0	d070_A12_A1_unplB	dA12_valB_070	3	3	300	300	0	0	132	23	0	1	blank2r.bmp	0	1	+	0	8	C4r.bmp	500	1	blank2r.bmp	800	1	NPLW	800	1	blank2r.bmp	870	1	grausam	870	1	!	1200	1	blank2r.bmp	1330	0	0	0
020218	09:07:04	1	13	5.0.10.0	d070_A12_A2_pleasB	dA12_valB_070	3	4	300	300	0	0	1215	23	1	1	blank2r.bmp	0	1	+	0	5	C1r.bmp	500	1	blank2r.bmp	800	1	DHJF	800	1	blank2r.bmp	870	1	gut	870	1	!	1200	1	blank2r.bmp	1330	0	0	0
020218	09:07:04	1	13	5.0.10.0	d070_A12_A2_unplB	dA12_valB_070	3	5	300	300	0	0	279	18	0	1	blank2r.bmp	0	1	+	0	2	B2r.bmp	500	1	blank2r.bmp	800	1	DHJF	800	1	blank2r.bmp	870	5	kummer	870	1	!	1200	1	blank2r.bmp	1330	0	0	0
020218	09:07:04	1	13	5.0.10.0	d070_A12_A2_unplB	dA12_valB_070	3	6	300	300	0	0	481	18	0	1	blank2r.bmp	0	1	+	0	3	B3r.bmp	500	1	blank2r.bmp	800	1	DHJF	800	1	blank2r.bmp	870	2	geizig	870	1	!	1200	1	blank2r.bmp	1330	0	0	0
020218	09:07:04	1	13	5.0.10.0	d070_A12_A1_pleasB	dA12_valB_070	3	7	300	300	0	0	1170	18	1	1	blank2r.bmp	0	1	+	0	7	C3r.bmp	500	1	blank2r.bmp	800	1	NPLW	800	1	blank2r.bmp	870	2	mutig	870	1	!	1200	1	blank2r.bmp	1330	0	0	0
020218	09:07:04	1	13	5.0.10.0	d070_A12_A1_unplB	dA12_valB_070	3	8	300	300	0	0	417	23	0	1	blank2r.bmp	0	1	+	0	6	C2r.bmp	500	1	blank2r.bmp	800	1	NPLW	800	1	blank2r.bmp	870	4	böse	870	1	!	1200	1	blank2r.bmp	1330	0	0	0
020218	09:07:04	1	13	5.0.10.0	d070_A12_A2_pleasB	dA12_valB_070	3	9	300	300	0	0	407	18	0	1	blank2r.bmp	0	1	+	0	7	C3r.bmp	500	1	blank2r.bmp	800	1	DHJF	800	1	blank2r.bmp	870	5	begabt	870	1	!	1200	1	blank2r.bmp	1330	0	0	0
020218	09:07:04	1	13	5.0.10.0	d070_A12_A2_unplB	dA12_valB_070	3	10	300	300	0	0	566	18	0	1	blank2r.bmp	0	1	+	0	4	B4r.bmp	500	1	blank2r.bmp	800	1	DHJF	800	1	blank2r.bmp	870	6	traurig	870	1	!	1200	1	blank2r.bmp	1330	0	0	0
020218	09:07:04	1	13	5.0.10.0	d070_A12_A2_pleasB	dA12_valB_070	3	11	300	300	0	0	196	23	1	1	blank2r.bmp	0	1	+	0	5	C1r.bmp	500	1	blank2r.bmp	800	1	DHJF	800	1	blank2r.bmp	870	3	kuss	870	1	!	1200	1	blank2r.bmp	1330	0	0	0
020218	09:07:04	1	13	5.0.10.0	d070_A12_A1_unplB	dA12_valB_070	3	12	300	300	0	0	168	18	1	1	blank2r.bmp	0	1	+	0	1	B1r.bmp	500	1	blank2r.bmp	800	1	NPLW	800	1	blank2r.bmp	870	6	traurig	870	1	!	1200	1	blank2r.bmp	1330	0	0	0
020218	09:07:04	1	13	5.0.10.0	d070_A12_A1_pleasB	dA12_valB_070	3	13	300	300	0	0	720	18	1	1	blank2r.bmp	0	1	+	0	3	B3r.bmp	500	1	blank2r.bmp	800	1	NPLW	800	1	blank2r.bmp	870	6	kreativ	870	1	!	1200	1	blank2r.bmp	1330	0	0	0
020218	09:07:04	1	13	5.0.10.0	d070_A12_A2_pleasB	dA12_valB_070	3	14	300	300	0	0	208	23	1	1	blank2r.bmp	0	1	+	0	2	B2r.bmp	500	1	blank2r.bmp	800	1	DHJF	800	1	blank2r.bmp	870	5	begabt	870	1	!	1200	1	blank2r.bmp	1330	0	0	0
020218	09:07:04	1	13	5.0.10.0	d070_A12_A1_pleasB	dA12_valB_070	3	15	300	300	0	0	89	18	1	1	blank2r.bmp	0	1	+	0	8	C4r.bmp	500	1	blank2r.bmp	800	1	NPLW	800	1	blank2r.bmp	870	6	kreativ	870	1	!	1200	1	blank2r.bmp	1330	0	0	0
020218	09:07:04	1	13	5.0.10.0	d070_A12_A1_unplB	dA12_valB_070	3	16	300	300	0	0	161	18	1	1	blank2r.bmp	0	1	+	0	6	C2r.bmp	500	1	blank2r.bmp	800	1	NPLW	800	1	blank2r.bmp	870	3	ärger	870	1	!	1200	1	blank2r.bmp	1330	0	0	0
020218	09:07:04	1	13	5.0.10.0	d070_A12_A1_pleasB	dA12_valB_070	3	17	300	300	0	0	234	18	1	1	blank2r.bmp	0	1	+	0	6	C2r.bmp	500	1	blank2r.bmp	800	1	NPLW	800	1	blank2r.bmp	870	1	gut	870	1	!	1200	1	blank2r.bmp	1330	0	0	0
020218	09:07:04	1	13	5.0.10.0	d070_A12_A1_pleasB	dA12_valB_070	3	18	300	300	0	0	28	18	1	1	blank2r.bmp	0	1	+	0	5	C1r.bmp	500	1	blank2r.bmp	800	1	NPLW	800	1	blank2r.bmp	870	4	treu	870	1	!	1200	1	blank2r.bmp	1330	0	0	0
020218	09:07:04	1	13	5.0.10.0	d070_A12_A2_unplB	dA12_valB_070	3	19	300	300	0	0	156	23	1	1	blank2r.bmp	0	1	+	0	2	B2r.bmp	500	1	blank2r.bmp	800	1	DHJF	800	1	blank2r.bmp	870	1	grausam	870	1	!	1200	1	blank2r.bmp	1330	0	0	0
020218	09:07:04	1	13	5.0.10.0	d070_A12_A1_unplB	dA12_valB_070	3	20	300	300	0	0	79	23	0	1	blank2r.bmp	0	1	+	0	8	C4r.bmp	500	1	blank2r.bmp	800	1	NPLW	800	1	blank2r.bmp	870	2	geizig	870	1	!	1200	1	blank2r.bmp	1330	0	0	0
020218	09:07:04	1	13	5.0.10.0	d070_A12_A1_unplB	dA12_valB_070	3	21	300	300	0	0	78	18	1	1	blank2r.bmp	0	1	+	0	7	C3r.bmp	500	1	blank2r.bmp	800	1	NPLW	800	1	blank2r.bmp	870	4	böse	870	1	!	1200	1	blank2r.bmp	1330	0	0	0
020218	09:07:04	1	13	5.0.10.0	d070_A12_A1_pleasB	dA12_valB_070	3	22	300	300	0	0	90	18	1	1	blank2r.bmp	0	1	+	0	4	B4r.bmp	500	1	blank2r.bmp	800	1	NPLW	800	1	blank2r.bmp	870	2	mutig	870	1	!	1200	1	blank2r.bmp	1330	0	0	0
020218	09:07:04	1	13	5.0.10.0	d070_A12_A1_unplB	dA12_valB_070	3	23	300	300	0	0	195	18	1	1	blank2r.bmp	0	1	+	0	1	B1r.bmp	500	1	blank2r.bmp	800	1	NPLW	800	1	blank2r.bmp	870	5	kummer	870	1	!	1200	1	blank2r.bmp	1330	0	0	0
020218	09:07:04	1	13	5.0.10.0	d070_A12_A1_pleasB	dA12_valB_070	3	24	300	300	0	0	105	23	0	1	blank2r.bmp	0	1	+	0	3	B3r.bmp	500	1	blank2r.bmp	800	1	NPLW	800	1	blank2r.bmp	870	3	kuss	870	1	!	1200	1	blank2r.bmp	1330	0	0	0
020218	09:07:04	1	13	5.0.10.0	d070_A12_A2_unplB	dA12_valB_070	3	25	300	300	0	0	106	18	0	1	blank2r.bmp	0	1	+	0	7	C3r.bmp	500	1	blank2r.bmp	800	1	DHJF	800	1	blank2r.bmp	870	4	böse	870	1	!	1200	1	blank2r.bmp	1330	0	0	0
020218	09:07:04	1	13	5.0.10.0	d070_A12_A1_pleasB	dA12_valB_070	3	26	300	300	0	0	170	23	0	1	blank2r.bmp	0	1	+	0	8	C4r.bmp	500	1	blank2r.bmp	800	1	NPLW	800	1	blank2r.bmp	870	4	treu	870	1	!	1200	1	blank2r.bmp	1330	0	0	0
020218	09:07:04	1	13	5.0.10.0	d070_A12_A2_unplB	dA12_valB_070	3	27	300	300	0	0	968	18	0	1	blank2r.bmp	0	1	+	0	1	B1r.bmp	500	1	blank2r.bmp	800	1	DHJF	800	1	blank2r.bmp	870	5	kummer	870	1	!	1200	1	blank2r.bmp	1330	0	0	0
020218	09:07:04	1	13	5.0.10.0	d070_A12_A2_unplB	dA12_valB_070	3	28	300	300	0	0	311	18	0	1	blank2r.bmp	0	1	+	0	5	C1r.bmp	500	1	blank2r.bmp	800	1	DHJF	800	1	blank2r.bmp	870	1	grausam	870	1	!	1200	1	blank2r.bmp	1330	0	0	0
020218	09:07:04	1	13	5.0.10.0	d070_A12_A2_pleasB	dA12_valB_070	3	29	300	300	0	0	124	23	1	1	blank2r.bmp	0	1	+	0	3	B3r.bmp	500	1	blank2r.bmp	800	1	DHJF	800	1	blank2r.bmp	870	5	begabt	870	1	!	1200	1	blank2r.bmp	1330	0	0	0
020218	09:07:04	1	13	5.0.10.0	d070_A12_A1_unplB	dA12_valB_070	3	30	300	300	0	0	1158	23	0	1	blank2r.bmp	0	1	+	0	4	B4r.bmp	500	1	blank2r.bmp	800	1	NPLW	800	1	blank2r.bmp	870	2	geizig	870	1	!	1200	1	blank2r.bmp	1330	0	0	0
020218	09:07:04	1	13	5.0.10.0	d070_A12_A1_pleasB	dA12_valB_070	3	31	300	300	0	0	1828	23	0	1	blank2r.bmp	0	1	+	0	6	C2r.bmp	500	1	blank2r.bmp	800	1	NPLW	800	1	blank2r.bmp	870	3	kuss	870	1	!	1200	1	blank2r.bmp	1330	0	0	0
020218	09:07:04	1	13	5.0.10.0	d070_A12_A1_unplB	dA12_valB_070	3	32	300	300	0	0	249	23	0	1	blank2r.bmp	0	1	+	0	2	B2r.bmp	500	1	blank2r.bmp	800	1	NPLW	800	1	blank2r.bmp	870	6	traurig	870	1	!	1200	1	blank2r.bmp	1330	0	0	0
020218	09:07:04	1	13	5.0.10.0	d070_A12_A2_unplB	dA12_valB_070	3	33	300	300	0	0	265	23	1	1	blank2r.bmp	0	1	+	0	4	B4r.bmp	500	1	blank2r.bmp	800	1	DHJF	800	1	blank2r.bmp	870	3	ärger	870	1	!	1200	1	blank2r.bmp	1330	0	0	0
020218	09:07:04	1	13	5.0.10.0	d070_A12_A2_pleasB	dA12_valB_070	3	34	300	300	0	0	254	18	0	1	blank2r.bmp	0	1	+	0	5	C1r.bmp	500	1	blank2r.bmp	800	1	DHJF	800	1	blank2r.bmp	870	2	mutig	870	1	!	1200	1	blank2r.bmp	1330	0	0	0
020218	09:07:04	1	13	5.0.10.0	d070_A12_A2_pleasB	dA12_valB_070	3	35	300	300	0	0	807	18	0	1	blank2r.bmp	0	1	+	0	7	C3r.bmp	500	1	blank2r.bmp	800	1	DHJF	800	1	blank2r.bmp	870	6	kreativ	870	1	!	1200	1	blank2r.bmp	1330	0	0	0
020218	09:07:04	1	13	5.0.10.0	d070_A12_A1_unplB	dA12_valB_070	3	36	300	300	0	0	55	23	0	1	blank2r.bmp	0	1	+	0	6	C2r.bmp	500	1	blank2r.bmp	800	1	NPLW	800	1	blank2r.bmp	870	6	traurig	870	1	!	1200	1	blank2r.bmp	1330	0	0	0
020218	09:07:04	1	13	5.0.10.0	d070_A12_A2_unplB	dA12_valB_070	3	37	300	300	0	0	278	18	0	1	blank2r.bmp	0	1	+	0	3	B3r.bmp	500	1	blank2r.bmp	800	1	DHJF	800	1	blank2r.bmp	870	3	ärger	870	1	!	1200	1	blank2r.bmp	1330	0	0	0
020218	09:07:04	1	13	5.0.10.0	d070_A12_A1_pleasB	dA12_valB_070	3	38	300	300	0	0	3014	18	1	1	blank2r.bmp	0	1	+	0	2	B2r.bmp	500	1	blank2r.bmp	800	1	NPLW	800	1	blank2r.bmp	870	1	gut	870	1	!	1200	1	blank2r.bmp	1330	0	0	0
020218	09:07:04	1	13	5.0.10.0	d070_A12_A2_pleasB	dA12_valB_070	3	39	300	300	0	0	129	23	1	1	blank2r.bmp	0	1	+	0	1	B1r.bmp	500	1	blank2r.bmp	800	1	DHJF	800	1	blank2r.bmp	870	3	kuss	870	1	!	1200	1	blank2r.bmp	1330	0	0	0
020218	09:07:04	1	13	5.0.10.0	d070_A12_A1_pleasB	dA12_valB_070	3	40	300	300	0	0	36	18	1	1	blank2r.bmp	0	1	+	0	8	C4r.bmp	500	1	blank2r.bmp	800	1	NPLW	800	1	blank2r.bmp	870	1	gut	870	1	!	1200	1	blank2r.bmp	1330	0	0	0
020218	09:07:04	1	13	5.0.10.0	d070_A12_A2_unplB	dA12_valB_070	3	41	300	300	0	0	363	23	1	1	blank2r.bmp	0	1	+	0	6	C2r.bmp	500	1	blank2r.bmp	800	1	DHJF	800	1	blank2r.bmp	870	4	böse	870	1	!	1200	1	blank2r.bmp	1330	0	0	0
020218	09:07:04	1	13	5.0.10.0	d070_A12_A1_unplB	dA12_valB_070	3	42	300	300	0	0	139	18	1	1	blank2r.bmp	0	1	+	0	1	B1r.bmp	500	1	blank2r.bmp	800	1	NPLW	800	1	blank2r.bmp	870	5	kummer	870	1	!	1200	1	blank2r.bmp	1330	0	0	0
020218	09:07:04	1	13	5.0.10.0	d070_A12_A2_pleasB	dA12_valB_070	3	43	300	300	0	0	325	18	0	1	blank2r.bmp	0	1	+	0	5	C1r.bmp	500	1	blank2r.bmp	800	1	DHJF	800	1	blank2r.bmp	870	2	mutig	870	1	!	1200	1	blank2r.bmp	1330	0	0	0
020218	09:07:04	1	13	5.0.10.0	d070_A12_A2_pleasB	dA12_valB_070	3	44	300	300	0	0	42	23	1	1	blank2r.bmp	0	1	+	0	2	B2r.bmp	500	1	blank2r.bmp	800	1	DHJF	800	1	blank2r.bmp	870	5	begabt	870	1	!	1200	1	blank2r.bmp	1330	0	0	0
020218	09:07:04	1	13	5.0.10.0	d070_A12_A2_pleasB	dA12_valB_070	3	45	300	300	0	0	219	23	1	1	blank2r.bmp	0	1	+	0	3	B3r.bmp	500	1	blank2r.bmp	800	1	DHJF	800	1	blank2r.bmp	870	6	kreativ	870	1	!	1200	1	blank2r.bmp	1330	0	0	0
020218	09:07:04	1	13	5.0.10.0	d070_A12_A2_unplB	dA12_valB_070	3	46	300	300	0	0	128	23	1	1	blank2r.bmp	0	1	+	0	8	C4r.bmp	500	1	blank2r.bmp	800	1	DHJF	800	1	blank2r.bmp	870	2	geizig	870	1	!	1200	1	blank2r.bmp	1330	0	0	0
020218	09:07:04	1	13	5.0.10.0	d070_A12_A1_unplB	dA12_valB_070	3	47	300	300	0	0	161	18	1	1	blank2r.bmp	0	1	+	0	7	C3r.bmp	500	1	blank2r.bmp	800	1	NPLW	800	1	blank2r.bmp	870	1	grausam	870	1	!	1200	1	blank2r.bmp	1330	0	0	0
020218	09:07:04	1	13	5.0.10.0	d070_A12_A1_pleasB	dA12_valB_070	3	48	300	300	0	0	146	23	0	1	blank2r.bmp	0	1	+	0	4	B4r.bmp	500	1	blank2r.bmp	800	1	NPLW	800	1	blank2r.bmp	870	4	treu	870	1	!	1200	1	blank2r.bmp	1330	0	0	0
020218	09:07:04	1	13	5.0.10.0	d070_A12_A1_unplB	dA12_valB_070	4	1	300	300	0	0	2104	18	1	1	blank2r.bmp	0	1	+	0	7	C3r.bmp	500	1	blank2r.bmp	800	1	NPLW	800	1	blank2r.bmp	870	1	grausam	870	1	!	1200	1	blank2r.bmp	1330	0	0	0
020218	09:07:04	1	13	5.0.10.0	d070_A12_A1_pleasB	dA12_valB_070	4	2	300	300	0	0	148	23	0	1	blank2r.bmp	0	1	+	0	5	C1r.bmp	500	1	blank2r.bmp	800	1	NPLW	800	1	blank2r.bmp	870	5	begabt	870	1	!	1200	1	blank2r.bmp	1330	0	0	0
020218	09:07:04	1	13	5.0.10.0	d070_A12_A2_unplB	dA12_valB_070	4	3	300	300	0	0	2	18	0	1	blank2r.bmp	0	1	+	0	8	C4r.bmp	500	1	blank2r.bmp	800	1	DHJF	800	1	blank2r.bmp	870	3	ärger	870	1	!	1200	1	blank2r.bmp	1330	0	0	0
020218	09:07:04	1	13	5.0.10.0	d070_A12_A1_unplB	dA12_valB_070	4	4	300	300	0	0	36	23	0	1	blank2r.bmp	0	1	+	0	6	C2r.bmp	500	1	blank2r.bmp	800	1	NPLW	800	1	blank2r.bmp	870	2	geizig	870	1	!	1200	1	blank2r.bmp	1330	0	0	0
020218	09:07:04	1	13	5.0.10.0	d070_A12_A1_pleasB	dA12_valB_070	4	5	300	300	0	0	1789	23	0	1	blank2r.bmp	0	1	+	0	4	B4r.bmp	500	1	blank2r.bmp	800	1	NPLW	800	1	blank2r.bmp	870	1	gut	870	1	!	1200	1	blank2r.bmp	1330	0	0	0
020218	09:07:04	1	13	5.0.10.0	d070_A12_A2_pleasB	dA12_valB_070	4	6	300	300	0	0	353	23	1	1	blank2r.bmp	0	1	+	0	1	B1r.bmp	500	1	blank2r.bmp	800	1	DHJF	800	1	blank2r.bmp	870	2	mutig	870	1	!	1200	1	blank2r.bmp	1330	0	0	0
020218	09:07:04	1	13	5.0.10.0	d070_A12_A1_pleasB	dA12_valB_070	4	7	300	300	0	0	271	23	0	1	blank2r.bmp	0	1	+	0	2	B2r.bmp	500	1	blank2r.bmp	800	1	NPLW	800	1	blank2r.bmp	870	6	kreativ	870	1	!	1200	1	blank2r.bmp	1330	0	0	0
020218	09:07:04	1	13	5.0.10.0	d070_A12_A2_unplB	dA12_valB_070	4	8	300	300	0	0	1868	18	0	1	blank2r.bmp	0	1	+	0	3	B3r.bmp	500	1	blank2r.bmp	800	1	DHJF	800	1	blank2r.bmp	870	6	traurig	870	1	!	1200	1	blank2r.bmp	1330	0	0	0
020218	09:07:04	1	13	5.0.10.0	d070_A12_A1_pleasB	dA12_valB_070	4	9	300	300	0	0	119	18	1	1	blank2r.bmp	0	1	+	0	6	C2r.bmp	500	1	blank2r.bmp	800	1	NPLW	800	1	blank2r.bmp	870	3	kuss	870	1	!	1200	1	blank2r.bmp	1330	0	0	0
020218	09:07:04	1	13	5.0.10.0	d070_A12_A2_unplB	dA12_valB_070	4	10	300	300	0	0	93	18	0	1	blank2r.bmp	0	1	+	0	1	B1r.bmp	500	1	blank2r.bmp	800	1	DHJF	800	1	blank2r.bmp	870	5	kummer	870	1	!	1200	1	blank2r.bmp	1330	0	0	0
020218	09:07:04	1	13	5.0.10.0	d070_A12_A2_unplB	dA12_valB_070	4	11	300	300	0	0	174	18	0	1	blank2r.bmp	0	1	+	0	8	C4r.bmp	500	1	blank2r.bmp	800	1	DHJF	800	1	blank2r.bmp	870	4	böse	870	1	!	1200	1	blank2r.bmp	1330	0	0	0
020218	09:07:04	1	13	5.0.10.0	d070_A12_A2_pleasB	dA12_valB_070	4	12	300	300	0	0	231	23	1	1	blank2r.bmp	0	1	+	0	3	B3r.bmp	500	1	blank2r.bmp	800	1	DHJF	800	1	blank2r.bmp	870	4	treu	870	1	!	1200	1	blank2r.bmp	1330	0	0	0
020218	09:07:04	1	13	5.0.10.0	d070_A12_A2_unplB	dA12_valB_070	4	13	300	300	0	0	376	18	0	1	blank2r.bmp	0	1	+	0	5	C1r.bmp	500	1	blank2r.bmp	800	1	DHJF	800	1	blank2r.bmp	870	5	kummer	870	1	!	1200	1	blank2r.bmp	1330	0	0	0
020218	09:07:04	1	13	5.0.10.0	d070_A12_A1_unplB	dA12_valB_070	4	14	300	300	0	0	44	18	1	1	blank2r.bmp	0	1	+	0	4	B4r.bmp	500	1	blank2r.bmp	800	1	NPLW	800	1	blank2r.bmp	870	3	ärger	870	1	!	1200	1	blank2r.bmp	1330	0	0	0
020218	09:07:04	1	13	5.0.10.0	d070_A12_A1_pleasB	dA12_valB_070	4	15	300	300	0	0	15	23	0	1	blank2r.bmp	0	1	+	0	2	B2r.bmp	500	1	blank2r.bmp	800	1	NPLW	800	1	blank2r.bmp	870	2	mutig	870	1	!	1200	1	blank2r.bmp	1330	0	0	0
020218	09:07:04	1	13	5.0.10.0	d070_A12_A1_unplB	dA12_valB_070	4	16	300	300	0	0	91	18	1	1	blank2r.bmp	0	1	+	0	7	C3r.bmp	500	1	blank2r.bmp	800	1	NPLW	800	1	blank2r.bmp	870	1	grausam	870	1	!	1200	1	blank2r.bmp	1330	0	0	0
020218	09:07:04	1	13	5.0.10.0	d070_A12_A1_pleasB	dA12_valB_070	4	17	300	300	0	0	32	23	0	1	blank2r.bmp	0	1	+	0	8	C4r.bmp	500	1	blank2r.bmp	800	1	NPLW	800	1	blank2r.bmp	870	1	gut	870	1	!	1200	1	blank2r.bmp	1330	0	0	0
020218	09:07:04	1	13	5.0.10.0	d070_A12_A1_unplB	dA12_valB_070	4	18	300	300	0	0	1004	18	1	1	blank2r.bmp	0	1	+	0	4	B4r.bmp	500	1	blank2r.bmp	800	1	NPLW	800	1	blank2r.bmp	870	2	geizig	870	1	!	1200	1	blank2r.bmp	1330	0	0	0
020218	09:07:04	1	13	5.0.10.0	d070_A12_A1_pleasB	dA12_valB_070	4	19	300	300	0	0	149	18	1	1	blank2r.bmp	0	1	+	0	7	C3r.bmp	500	1	blank2r.bmp	800	1	NPLW	800	1	blank2r.bmp	870	3	kuss	870	1	!	1200	1	blank2r.bmp	1330	0	0	0
020218	09:07:04	1	13	5.0.10.0	d070_A12_A1_pleasB	dA12_valB_070	4	20	300	300	0	0	56	23	0	1	blank2r.bmp	0	1	+	0	5	C1r.bmp	500	1	blank2r.bmp	800	1	NPLW	800	1	blank2r.bmp	870	4	treu	870	1	!	1200	1	blank2r.bmp	1330	0	0	0
020218	09:07:04	1	13	5.0.10.0	d070_A12_A2_pleasB	dA12_valB_070	4	21	300	300	0	0	2499	23	1	1	blank2r.bmp	0	1	+	0	6	C2r.bmp	500	1	blank2r.bmp	800	1	DHJF	800	1	blank2r.bmp	870	6	kreativ	870	1	!	1200	1	blank2r.bmp	1330	0	0	0
020218	09:07:04	1	13	5.0.10.0	d070_A12_A2_unplB	dA12_valB_070	4	22	300	300	0	0	39	18	0	1	blank2r.bmp	0	1	+	0	3	B3r.bmp	500	1	blank2r.bmp	800	1	DHJF	800	1	blank2r.bmp	870	4	böse	870	1	!	1200	1	blank2r.bmp	1330	0	0	0
020218	09:07:04	1	13	5.0.10.0	d070_A12_A2_pleasB	dA12_valB_070	4	23	300	300	0	0	2309	23	1	1	blank2r.bmp	0	1	+	0	1	B1r.bmp	500	1	blank2r.bmp	800	1	DHJF	800	1	blank2r.bmp	870	5	begabt	870	1	!	1200	1	blank2r.bmp	1330	0	0	0
020218	09:07:04	1	13	5.0.10.0	d070_A12_A2_pleasB	dA12_valB_070	4	24	300	300	0	0	191	23	1	1	blank2r.bmp	0	1	+	0	2	B2r.bmp	500	1	blank2r.bmp	800	1	DHJF	800	1	blank2r.bmp	870	6	kreativ	870	1	!	1200	1	blank2r.bmp	1330	0	0	0
020218	09:07:04	1	13	5.0.10.0	d070_A12_A2_pleasB	dA12_valB_070	4	25	300	300	0	0	149	23	1	1	blank2r.bmp	0	1	+	0	7	C3r.bmp	500	1	blank2r.bmp	800	1	DHJF	800	1	blank2r.bmp	870	1	gut	870	1	!	1200	1	blank2r.bmp	1330	0	0	0
020218	09:07:04	1	13	5.0.10.0	d070_A12_A2_unplB	dA12_valB_070	4	26	300	300	0	0	3145	18	0	1	blank2r.bmp	0	1	+	0	5	C1r.bmp	500	1	blank2r.bmp	800	1	DHJF	800	1	blank2r.bmp	870	6	traurig	870	1	!	1200	1	blank2r.bmp	1330	0	0	0
020218	09:07:04	1	13	5.0.10.0	d070_A12_A2_pleasB	dA12_valB_070	4	27	300	300	0	0	198	23	1	1	blank2r.bmp	0	1	+	0	3	B3r.bmp	500	1	blank2r.bmp	800	1	DHJF	800	1	blank2r.bmp	870	4	treu	870	1	!	1200	1	blank2r.bmp	1330	0	0	0
020218	09:07:04	1	13	5.0.10.0	d070_A12_A1_unplB	dA12_valB_070	4	28	300	300	0	0	391	18	1	1	blank2r.bmp	0	1	+	0	8	C4r.bmp	500	1	blank2r.bmp	800	1	NPLW	800	1	blank2r.bmp	870	2	geizig	870	1	!	1200	1	blank2r.bmp	1330	0	0	0
020218	09:07:04	1	13	5.0.10.0	d070_A12_A2_unplB	dA12_valB_070	4	29	300	300	0	0	18	18	0	1	blank2r.bmp	0	1	+	0	1	B1r.bmp	500	1	blank2r.bmp	800	1	DHJF	800	1	blank2r.bmp	870	6	traurig	870	1	!	1200	1	blank2r.bmp	1330	0	0	0
020218	09:07:04	1	13	5.0.10.0	d070_A12_A1_pleasB	dA12_valB_070	4	30	300	300	0	0	379	18	1	1	blank2r.bmp	0	1	+	0	4	B4r.bmp	500	1	blank2r.bmp	800	1	NPLW	800	1	blank2r.bmp	870	5	begabt	870	1	!	1200	1	blank2r.bmp	1330	0	0	0
020218	09:07:04	1	13	5.0.10.0	d070_A12_A2_pleasB	dA12_valB_070	4	31	300	300	0	0	375	18	0	1	blank2r.bmp	0	1	+	0	2	B2r.bmp	500	1	blank2r.bmp	800	1	DHJF	800	1	blank2r.bmp	870	2	mutig	870	1	!	1200	1	blank2r.bmp	1330	0	0	0
020218	09:07:04	1	13	5.0.10.0	d070_A12_A2_pleasB	dA12_valB_070	4	32	300	300	0	0	592	23	1	1	blank2r.bmp	0	1	+	0	6	C2r.bmp	500	1	blank2r.bmp	800	1	DHJF	800	1	blank2r.bmp	870	3	kuss	870	1	!	1200	1	blank2r.bmp	1330	0	0	0
020218	09:07:04	1	13	5.0.10.0	d070_A12_A1_pleasB	dA12_valB_070	4	33	300	300	0	0	903	18	1	1	blank2r.bmp	0	1	+	0	5	C1r.bmp	500	1	blank2r.bmp	800	1	NPLW	800	1	blank2r.bmp	870	1	gut	870	1	!	1200	1	blank2r.bmp	1330	0	0	0
020218	09:07:04	1	13	5.0.10.0	d070_A12_A1_unplB	dA12_valB_070	4	34	300	300	0	0	341	23	0	1	blank2r.bmp	0	1	+	0	2	B2r.bmp	500	1	blank2r.bmp	800	1	NPLW	800	1	blank2r.bmp	870	4	böse	870	1	!	1200	1	blank2r.bmp	1330	0	0	0
020218	09:07:04	1	13	5.0.10.0	d070_A12_A1_unplB	dA12_valB_070	4	35	300	300	0	0	198	23	0	1	blank2r.bmp	0	1	+	0	6	C2r.bmp	500	1	blank2r.bmp	800	1	NPLW	800	1	blank2r.bmp	870	3	ärger	870	1	!	1200	1	blank2r.bmp	1330	0	0	0
020218	09:07:04	1	13	5.0.10.0	d070_A12_A1_unplB	dA12_valB_070	4	36	300	300	0	0	88	23	0	1	blank2r.bmp	0	1	+	0	4	B4r.bmp	500	1	blank2r.bmp	800	1	NPLW	800	1	blank2r.bmp	870	1	grausam	870	1	!	1200	1	blank2r.bmp	1330	0	0	0
020218	09:07:04	1	13	5.0.10.0	d070_A12_A1_pleasB	dA12_valB_070	4	37	300	300	0	0	153	23	0	1	blank2r.bmp	0	1	+	0	3	B3r.bmp	500	1	blank2r.bmp	800	1	NPLW	800	1	blank2r.bmp	870	5	begabt	870	1	!	1200	1	blank2r.bmp	1330	0	0	0
020218	09:07:04	1	13	5.0.10.0	d070_A12_A2_pleasB	dA12_valB_070	4	38	300	300	0	0	1895	23	1	1	blank2r.bmp	0	1	+	0	1	B1r.bmp	500	1	blank2r.bmp	800	1	DHJF	800	1	blank2r.bmp	870	4	treu	870	1	!	1200	1	blank2r.bmp	1330	0	0	0
020218	09:07:04	1	13	5.0.10.0	d070_A12_A2_pleasB	dA12_valB_070	4	39	300	300	0	0	316	23	1	1	blank2r.bmp	0	1	+	0	8	C4r.bmp	500	1	blank2r.bmp	800	1	DHJF	800	1	blank2r.bmp	870	3	kuss	870	1	!	1200	1	blank2r.bmp	1330	0	0	0
020218	09:07:04	1	13	5.0.10.0	d070_A12_A2_unplB	dA12_valB_070	4	40	300	300	0	0	855	18	0	1	blank2r.bmp	0	1	+	0	7	C3r.bmp	500	1	blank2r.bmp	800	1	DHJF	800	1	blank2r.bmp	870	5	kummer	870	1	!	1200	1	blank2r.bmp	1330	0	0	0
020218	09:07:04	1	13	5.0.10.0	d070_A12_A2_pleasB	dA12_valB_070	4	41	300	300	0	0	176	23	1	1	blank2r.bmp	0	1	+	0	8	C4r.bmp	500	1	blank2r.bmp	800	1	DHJF	800	1	blank2r.bmp	870	6	kreativ	870	1	!	1200	1	blank2r.bmp	1330	0	0	0
020218	09:07:04	1	13	5.0.10.0	d070_A12_A1_unplB	dA12_valB_070	4	42	300	300	0	0	768	18	1	1	blank2r.bmp	0	1	+	0	3	B3r.bmp	500	1	blank2r.bmp	800	1	NPLW	800	1	blank2r.bmp	870	5	kummer	870	1	!	1200	1	blank2r.bmp	1330	0	0	0
020218	09:07:04	1	13	5.0.10.0	d070_A12_A1_unplB	dA12_valB_070	4	43	300	300	0	0	2083	18	1	1	blank2r.bmp	0	1	+	0	5	C1r.bmp	500	1	blank2r.bmp	800	1	NPLW	800	1	blank2r.bmp	870	6	traurig	870	1	!	1200	1	blank2r.bmp	1330	0	0	0
020218	09:07:04	1	13	5.0.10.0	d070_A12_A2_unplB	dA12_valB_070	4	44	300	300	0	0	159	18	0	1	blank2r.bmp	0	1	+	0	7	C3r.bmp	500	1	blank2r.bmp	800	1	DHJF	800	1	blank2r.bmp	870	4	böse	870	1	!	1200	1	blank2r.bmp	1330	0	0	0
020218	09:07:04	1	13	5.0.10.0	d070_A12_A1_pleasB	dA12_valB_070	4	45	300	300	0	0	470	23	0	1	blank2r.bmp	0	1	+	0	2	B2r.bmp	500	1	blank2r.bmp	800	1	NPLW	800	1	blank2r.bmp	870	2	mutig	870	1	!	1200	1	blank2r.bmp	1330	0	0	0
020218	09:07:04	1	13	5.0.10.0	d070_A12_A2_unplB	dA12_valB_070	4	46	300	300	0	0	220	18	0	1	blank2r.bmp	0	1	+	0	4	B4r.bmp	500	1	blank2r.bmp	800	1	DHJF	800	1	blank2r.bmp	870	2	geizig	870	1	!	1200	1	blank2r.bmp	1330	0	0	0
020218	09:07:04	1	13	5.0.10.0	d070_A12_A2_unplB	dA12_valB_070	4	47	300	300	0	0	26	18	0	1	blank2r.bmp	0	1	+	0	1	B1r.bmp	500	1	blank2r.bmp	800	1	DHJF	800	1	blank2r.bmp	870	3	ärger	870	1	!	1200	1	blank2r.bmp	1330	0	0	0
020218	09:07:04	1	13	5.0.10.0	d070_A12_A1_unplB	dA12_valB_070	4	48	300	300	0	0	49	18	1	1	blank2r.bmp	0	1	+	0	6	C2r.bmp	500	1	blank2r.bmp	800	1	NPLW	800	1	blank2r.bmp	870	1	grausam	870	1	!	1200	1	blank2r.bmp	1330	0	0	0
020218	09:07:04	1	13	5.0.10.0	dL_B12_B1_pleasA	dB12_valA_pract1	6	1	300	300	0	0	1522	18	1	1	blank2r.bmp	0	1	+	0	6	C2r.bmp	500	1	blank2r.bmp	700	1	BMVZ	700	8	C4r.bmp	830	1	blank2r.bmp	870	3	freund	870	1	!	1200	1	blank2r.bmp	1330
020218	09:07:04	1	13	5.0.10.0	dL_B12_B2_pleasA	dB12_valA_pract1	6	2	300	300	0	0	229	23	1	1	blank2r.bmp	0	1	+	0	3	B3r.bmp	500	1	blank2r.bmp	700	1	GKQX	700	5	C1r.bmp	830	1	blank2r.bmp	870	2	schön	870	1	!	1200	1	blank2r.bmp	1330
020218	09:07:04	1	13	5.0.10.0	dL_B12_B1_pleasA	dB12_valA_pract1	6	3	300	300	0	0	44	23	0	1	blank2r.bmp	0	1	+	0	5	C1r.bmp	500	1	blank2r.bmp	700	1	BMVZ	700	2	B2r.bmp	830	1	blank2r.bmp	870	4	heiter	870	1	!	1200	1	blank2r.bmp	1330
020218	09:07:04	1	13	5.0.10.0	dL_B12_B1_unplA	dB12_valA_pract1	6	4	300	300	0	0	2005	23	0	1	blank2r.bmp	0	1	+	0	4	B4r.bmp	500	1	blank2r.bmp	700	1	BMVZ	700	7	C3r.bmp	830	1	blank2r.bmp	870	4	elend	870	1	!	1200	1	blank2r.bmp	1330
020218	09:07:04	1	13	5.0.10.0	dL_B12_B1_unplA	dB12_valA_pract1	6	5	300	300	0	0	1438	18	1	1	blank2r.bmp	0	1	+	0	8	C4r.bmp	500	1	blank2r.bmp	700	1	BMVZ	700	6	C2r.bmp	830	1	blank2r.bmp	870	6	leiden	870	1	!	1200	1	blank2r.bmp	1330
020218	09:07:04	1	13	5.0.10.0	dL_B12_B2_unplA	dB12_valA_pract1	6	6	300	300	0	0	964	23	1	1	blank2r.bmp	0	1	+	0	2	B2r.bmp	500	1	blank2r.bmp	700	1	GKQX	700	1	B1r.bmp	830	1	blank2r.bmp	870	1	unfair	870	1	!	1200	1	blank2r.bmp	1330
020218	09:07:04	1	13	5.0.10.0	dL_B12_B2_pleasA	dB12_valA_pract1	6	7	300	300	0	0	801	18	0	1	blank2r.bmp	0	1	+	0	1	B1r.bmp	500	1	blank2r.bmp	700	1	GKQX	700	3	B3r.bmp	830	1	blank2r.bmp	870	6	froh	870	1	!	1200	1	blank2r.bmp	1330
020218	09:07:04	1	13	5.0.10.0	dL_B12_B2_unplA	dB12_valA_pract1	6	8	300	300	0	0	211	23	1	1	blank2r.bmp	0	1	+	0	7	C3r.bmp	500	1	blank2r.bmp	700	1	GKQX	700	4	B4r.bmp	830	1	blank2r.bmp	870	2	neidisch	870	1	!	1200	1	blank2r.bmp	1330
020218	09:07:04	1	13	5.0.10.0	dL_B12_B2_pleasA	dB12_valA_pract1	6	9	300	300	0	0	164	23	1	1	blank2r.bmp	0	1	+	0	7	C3r.bmp	500	1	blank2r.bmp	700	1	GKQX	700	8	C4r.bmp	830	1	blank2r.bmp	870	1	toll	870	1	!	1200	1	blank2r.bmp	1330
020218	09:07:04	1	13	5.0.10.0	dL_B12_B2_unplA	dB12_valA_pract1	6	10	300	300	0	0	270	23	1	1	blank2r.bmp	0	1	+	0	8	C4r.bmp	500	1	blank2r.bmp	700	1	GKQX	700	1	B1r.bmp	830	1	blank2r.bmp	870	3	töten	870	1	!	1200	1	blank2r.bmp	1330
020218	09:07:04	1	13	5.0.10.0	dL_B12_B1_pleasA	dB12_valA_pract1	6	11	300	300	0	0	1349	23	0	1	blank2r.bmp	0	1	+	0	3	B3r.bmp	500	1	blank2r.bmp	700	1	BMVZ	700	2	B2r.bmp	830	1	blank2r.bmp	870	5	friedlich	870	1	!	1200	1	blank2r.bmp	1330
020218	09:07:04	1	13	5.0.10.0	dL_B12_B1_unplA	dB12_valA_pract1	6	12	300	300	0	0	124	18	1	1	blank2r.bmp	0	1	+	0	1	B1r.bmp	500	1	blank2r.bmp	700	1	BMVZ	700	5	C1r.bmp	830	1	blank2r.bmp	870	5	schlecht	870	1	!	1200	1	blank2r.bmp	1330
020218	09:07:04	1	13	5.0.10.0	dM_B12_B2_pleasA	dB12_valA_pract2	7	1	300	300	0	0	154	23	1	1	blank2r.bmp	0	1	+	0	6	C2r.bmp	500	1	blank2r.bmp	730	1	GKQX	730	4	B4r.bmp	830	1	blank2r.bmp	870	3	freund	870	1	!	1200	1	blank2r.bmp	1330
020218	09:07:04	1	13	5.0.10.0	dM_B12_B1_unplA	dB12_valA_pract2	7	2	300	300	0	0	979	23	0	1	blank2r.bmp	0	1	+	0	4	B4r.bmp	500	1	blank2r.bmp	730	1	BMVZ	730	6	C2r.bmp	830	1	blank2r.bmp	870	2	neidisch	870	1	!	1200	1	blank2r.bmp	1330
020218	09:07:04	1	13	5.0.10.0	dM_B12_B1_pleasA	dB12_valA_pract2	7	3	300	300	0	0	361	18	1	1	blank2r.bmp	0	1	+	0	2	B2r.bmp	500	1	blank2r.bmp	730	1	BMVZ	730	7	C3r.bmp	830	1	blank2r.bmp	870	4	heiter	870	1	!	1200	1	blank2r.bmp	1330
020218	09:07:04	1	13	5.0.10.0	dM_B12_B2_unplA	dB12_valA_pract2	7	4	300	300	0	0	85	23	1	1	blank2r.bmp	0	1	+	0	5	C1r.bmp	500	1	blank2r.bmp	730	1	GKQX	730	3	B3r.bmp	830	1	blank2r.bmp	870	1	unfair	870	1	!	1200	1	blank2r.bmp	1330
020218	09:07:04	1	13	5.0.10.0	dM_B12_B2_unplA	dB12_valA_pract2	7	5	300	300	0	0	1449	23	1	1	blank2r.bmp	0	1	+	0	7	C3r.bmp	500	1	blank2r.bmp	730	1	GKQX	730	4	B4r.bmp	830	1	blank2r.bmp	870	6	leiden	870	1	!	1200	1	blank2r.bmp	1330
020218	09:07:04	1	13	5.0.10.0	dM_B12_B2_pleasA	dB12_valA_pract2	7	6	300	300	0	0	785	18	0	1	blank2r.bmp	0	1	+	0	2	B2r.bmp	500	1	blank2r.bmp	730	1	GKQX	730	1	B1r.bmp	830	1	blank2r.bmp	870	2	schön	870	1	!	1200	1	blank2r.bmp	1330
020218	09:07:04	1	13	5.0.10.0	dM_B12_B1_pleasA	dB12_valA_pract2	7	7	300	300	0	0	51	23	0	1	blank2r.bmp	0	1	+	0	1	B1r.bmp	500	1	blank2r.bmp	730	1	BMVZ	730	8	C4r.bmp	830	1	blank2r.bmp	870	6	froh	870	1	!	1200	1	blank2r.bmp	1330
020218	09:07:04	1	13	5.0.10.0	dM_B12_B2_unplA	dB12_valA_pract2	7	8	300	300	0	0	626	23	1	1	blank2r.bmp	0	1	+	0	6	C2r.bmp	500	1	blank2r.bmp	730	1	GKQX	730	3	B3r.bmp	830	1	blank2r.bmp	870	3	töten	870	1	!	1200	1	blank2r.bmp	1330
020218	09:07:04	1	13	5.0.10.0	dM_B12_B2_pleasA	dB12_valA_pract2	7	9	300	300	0	0	1385	18	0	1	blank2r.bmp	0	1	+	0	5	C1r.bmp	500	1	blank2r.bmp	730	1	GKQX	730	7	C3r.bmp	830	1	blank2r.bmp	870	5	friedlich	870	1	!	1200	1	blank2r.bmp	1330
020218	09:07:04	1	13	5.0.10.0	dM_B12_B1_unplA	dB12_valA_pract2	7	10	300	300	0	0	517	18	1	1	blank2r.bmp	0	1	+	0	8	C4r.bmp	500	1	blank2r.bmp	730	1	BMVZ	730	5	C1r.bmp	830	1	blank2r.bmp	870	5	schlecht	870	1	!	1200	1	blank2r.bmp	1330
020218	09:07:04	1	13	5.0.10.0	dM_B12_B1_unplA	dB12_valA_pract2	7	11	300	300	0	0	561	23	0	1	blank2r.bmp	0	1	+	0	4	B4r.bmp	500	1	blank2r.bmp	730	1	BMVZ	730	6	C2r.bmp	830	1	blank2r.bmp	870	4	elend	870	1	!	1200	1	blank2r.bmp	1330
020218	09:07:04	1	13	5.0.10.0	dM_B12_B1_pleasA	dB12_valA_pract2	7	12	300	300	0	0	537	18	1	1	blank2r.bmp	0	1	+	0	3	B3r.bmp	500	1	blank2r.bmp	730	1	BMVZ	730	2	B2r.bmp	830	1	blank2r.bmp	870	1	toll	870	1	!	1200	1	blank2r.bmp	1330
020218	09:07:04	1	13	5.0.10.0	d080_B12_B2_unplA	dB12_valA_080	8	1	300	300	0	0	104	23	1	1	blank2r.bmp	0	1	+	0	3	B3r.bmp	500	1	blank2r.bmp	800	1	GKQX	800	1	blank2r.bmp	880	4	elend	880	1	!	1210	1	blank2r.bmp	1340	0	0	0
020218	09:07:04	1	13	5.0.10.0	d080_B12_B1_unplA	dB12_valA_080	8	2	300	300	0	0	1062	23	0	1	blank2r.bmp	0	1	+	0	1	B1r.bmp	500	1	blank2r.bmp	800	1	BMVZ	800	1	blank2r.bmp	880	2	neidisch	880	1	!	1210	1	blank2r.bmp	1340	0	0	0
020218	09:07:04	1	13	5.0.10.0	d080_B12_B1_pleasA	dB12_valA_080	8	3	300	300	0	0	197	18	1	1	blank2r.bmp	0	1	+	0	2	B2r.bmp	500	1	blank2r.bmp	800	1	BMVZ	800	1	blank2r.bmp	880	1	toll	880	1	!	1210	1	blank2r.bmp	1340	0	0	0
020218	09:07:04	1	13	5.0.10.0	d080_B12_B1_unplA	dB12_valA_080	8	4	300	300	0	0	451	18	1	1	blank2r.bmp	0	1	+	0	4	B4r.bmp	500	1	blank2r.bmp	800	1	BMVZ	800	1	blank2r.bmp	880	5	schlecht	880	1	!	1210	1	blank2r.bmp	1340	0	0	0
020218	09:07:04	1	13	5.0.10.0	d080_B12_B2_pleasA	dB12_valA_080	8	5	300	300	0	0	69	18	0	1	blank2r.bmp	0	1	+	0	7	C3r.bmp	500	1	blank2r.bmp	800	1	GKQX	800	1	blank2r.bmp	880	4	heiter	880	1	!	1210	1	blank2r.bmp	1340	0	0	0
020218	09:07:04	1	13	5.0.10.0	d080_B12_B1_unplA	dB12_valA_080	8	6	300	300	0	0	1005	23	0	1	blank2r.bmp	0	1	+	0	6	C2r.bmp	500	1	blank2r.bmp	800	1	BMVZ	800	1	blank2r.bmp	880	1	unfair	880	1	!	1210	1	blank2r.bmp	1340	0	0	0
020218	09:07:04	1	13	5.0.10.0	d080_B12_B2_pleasA	dB12_valA_080	8	7	300	300	0	0	280	23	1	1	blank2r.bmp	0	1	+	0	8	C4r.bmp	500	1	blank2r.bmp	800	1	GKQX	800	1	blank2r.bmp	880	2	schön	880	1	!	1210	1	blank2r.bmp	1340	0	0	0
020218	09:07:04	1	13	5.0.10.0	d080_B12_B1_pleasA	dB12_valA_080	8	8	300	300	0	0	528	23	0	1	blank2r.bmp	0	1	+	0	5	C1r.bmp	500	1	blank2r.bmp	800	1	BMVZ	800	1	blank2r.bmp	880	5	friedlich	880	1	!	1210	1	blank2r.bmp	1340	0	0	0
020218	09:07:04	1	13	5.0.10.0	d080_B12_B1_pleasA	dB12_valA_080	8	9	300	300	0	0	1090	18	1	1	blank2r.bmp	0	1	+	0	5	C1r.bmp	500	1	blank2r.bmp	800	1	BMVZ	800	1	blank2r.bmp	880	6	froh	880	1	!	1210	1	blank2r.bmp	1340	0	0	0
020218	09:07:04	1	13	5.0.10.0	d080_B12_B2_unplA	dB12_valA_080	8	10	300	300	0	0	290	23	1	1	blank2r.bmp	0	1	+	0	2	B2r.bmp	500	1	blank2r.bmp	800	1	GKQX	800	1	blank2r.bmp	880	3	töten	880	1	!	1210	1	blank2r.bmp	1340	0	0	0
020218	09:07:04	1	13	5.0.10.0	d080_B12_B1_pleasA	dB12_valA_080	8	11	300	300	0	0	129	23	0	1	blank2r.bmp	0	1	+	0	8	C4r.bmp	500	1	blank2r.bmp	800	1	BMVZ	800	1	blank2r.bmp	880	3	freund	880	1	!	1210	1	blank2r.bmp	1340	0	0	0
020218	09:07:04	1	13	5.0.10.0	d080_B12_B2_pleasA	dB12_valA_080	8	12	300	300	0	0	817	18	0	1	blank2r.bmp	0	1	+	0	6	C2r.bmp	500	1	blank2r.bmp	800	1	GKQX	800	1	blank2r.bmp	880	1	toll	880	1	!	1210	1	blank2r.bmp	1340	0	0	0
020218	09:07:04	1	13	5.0.10.0	d080_B12_B2_unplA	dB12_valA_080	8	13	300	300	0	0	1152	23	1	1	blank2r.bmp	0	1	+	0	3	B3r.bmp	500	1	blank2r.bmp	800	1	GKQX	800	1	blank2r.bmp	880	6	leiden	880	1	!	1210	1	blank2r.bmp	1340	0	0	0
020218	09:07:04	1	13	5.0.10.0	d080_B12_B2_unplA	dB12_valA_080	8	14	300	300	0	0	258	23	1	1	blank2r.bmp	0	1	+	0	1	B1r.bmp	500	1	blank2r.bmp	800	1	GKQX	800	1	blank2r.bmp	880	3	töten	880	1	!	1210	1	blank2r.bmp	1340	0	0	0
020218	09:07:04	1	13	5.0.10.0	d080_B12_B1_pleasA	dB12_valA_080	8	15	300	300	0	0	327	18	1	1	blank2r.bmp	0	1	+	0	4	B4r.bmp	500	1	blank2r.bmp	800	1	BMVZ	800	1	blank2r.bmp	880	3	freund	880	1	!	1210	1	blank2r.bmp	1340	0	0	0
020218	09:07:04	1	13	5.0.10.0	d080_B12_B2_unplA	dB12_valA_080	8	16	300	300	0	0	999	23	1	1	blank2r.bmp	0	1	+	0	7	C3r.bmp	500	1	blank2r.bmp	800	1	GKQX	800	1	blank2r.bmp	880	5	schlecht	880	1	!	1210	1	blank2r.bmp	1340	0	0	0
020218	09:07:04	1	13	5.0.10.0	d080_B12_B1_unplA	dB12_valA_080	8	17	300	300	0	0	377	23	0	1	blank2r.bmp	0	1	+	0	2	B2r.bmp	500	1	blank2r.bmp	800	1	BMVZ	800	1	blank2r.bmp	880	2	neidisch	880	1	!	1210	1	blank2r.bmp	1340	0	0	0
020218	09:07:04	1	13	5.0.10.0	d080_B12_B2_unplA	dB12_valA_080	8	18	300	300	0	0	308	23	1	1	blank2r.bmp	0	1	+	0	1	B1r.bmp	500	1	blank2r.bmp	800	1	GKQX	800	1	blank2r.bmp	880	4	elend	880	1	!	1210	1	blank2r.bmp	1340	0	0	0
020218	09:07:04	1	13	5.0.10.0	d080_B12_B2_pleasA	dB12_valA_080	8	19	300	300	0	0	2430	23	1	1	blank2r.bmp	0	1	+	0	7	C3r.bmp	500	1	blank2r.bmp	800	1	GKQX	800	1	blank2r.bmp	880	5	friedlich	880	1	!	1210	1	blank2r.bmp	1340	0	0	0
020218	09:07:04	1	13	5.0.10.0	d080_B12_B2_unplA	dB12_valA_080	8	20	300	300	0	0	350	18	0	1	blank2r.bmp	0	1	+	0	8	C4r.bmp	500	1	blank2r.bmp	800	1	GKQX	800	1	blank2r.bmp	880	1	unfair	880	1	!	1210	1	blank2r.bmp	1340	0	0	0
020218	09:07:04	1	13	5.0.10.0	d080_B12_B2_pleasA	dB12_valA_080	8	21	300	300	0	0	265	23	1	1	blank2r.bmp	0	1	+	0	4	B4r.bmp	500	1	blank2r.bmp	800	1	GKQX	800	1	blank2r.bmp	880	4	heiter	880	1	!	1210	1	blank2r.bmp	1340	0	0	0
020218	09:07:04	1	13	5.0.10.0	d080_B12_B2_unplA	dB12_valA_080	8	22	300	300	0	0	1609	23	1	1	blank2r.bmp	0	1	+	0	6	C2r.bmp	500	1	blank2r.bmp	800	1	GKQX	800	1	blank2r.bmp	880	6	leiden	880	1	!	1210	1	blank2r.bmp	1340	0	0	0
020218	09:07:04	1	13	5.0.10.0	d080_B12_B1_unplA	dB12_valA_080	8	23	300	300	0	0	374	18	1	1	blank2r.bmp	0	1	+	0	5	C1r.bmp	500	1	blank2r.bmp	800	1	BMVZ	800	1	blank2r.bmp	880	1	unfair	880	1	!	1210	1	blank2r.bmp	1340	0	0	0
020218	09:07:04	1	13	5.0.10.0	d080_B12_B1_unplA	dB12_valA_080	8	24	300	300	0	0	334	23	0	1	blank2r.bmp	0	1	+	0	3	B3r.bmp	500	1	blank2r.bmp	800	1	BMVZ	800	1	blank2r.bmp	880	6	leiden	880	1	!	1210	1	blank2r.bmp	1340	0	0	0
020218	09:07:04	1	13	5.0.10.0	d080_B12_B1_unplA	dB12_valA_080	8	25	300	300	0	0	306	23	0	1	blank2r.bmp	0	1	+	0	8	C4r.bmp	500	1	blank2r.bmp	800	1	BMVZ	800	1	blank2r.bmp	880	5	schlecht	880	1	!	1210	1	blank2r.bmp	1340	0	0	0
020218	09:07:04	1	13	5.0.10.0	d080_B12_B2_unplA	dB12_valA_080	8	26	300	300	0	0	1618	18	0	1	blank2r.bmp	0	1	+	0	4	B4r.bmp	500	1	blank2r.bmp	800	1	GKQX	800	1	blank2r.bmp	880	4	elend	880	1	!	1210	1	blank2r.bmp	1340	0	0	0
020218	09:07:04	1	13	5.0.10.0	d080_B12_B1_unplA	dB12_valA_080	8	27	300	300	0	0	745	23	0	1	blank2r.bmp	0	1	+	0	1	B1r.bmp	500	1	blank2r.bmp	800	1	BMVZ	800	1	blank2r.bmp	880	2	neidisch	880	1	!	1210	1	blank2r.bmp	1340	0	0	0
020218	09:07:04	1	13	5.0.10.0	d080_B12_B2_pleasA	dB12_valA_080	8	28	300	300	0	0	1222	18	0	1	blank2r.bmp	0	1	+	0	6	C2r.bmp	500	1	blank2r.bmp	800	1	GKQX	800	1	blank2r.bmp	880	6	froh	880	1	!	1210	1	blank2r.bmp	1340	0	0	0
020218	09:07:04	1	13	5.0.10.0	d080_B12_B1_unplA	dB12_valA_080	8	29	300	300	0	0	168	18	1	1	blank2r.bmp	0	1	+	0	7	C3r.bmp	500	1	blank2r.bmp	800	1	BMVZ	800	1	blank2r.bmp	880	3	töten	880	1	!	1210	1	blank2r.bmp	1340	0	0	0
020218	09:07:04	1	13	5.0.10.0	d080_B12_B1_pleasA	dB12_valA_080	8	30	300	300	0	0	620	23	0	1	blank2r.bmp	0	1	+	0	2	B2r.bmp	500	1	blank2r.bmp	800	1	BMVZ	800	1	blank2r.bmp	880	2	schön	880	1	!	1210	1	blank2r.bmp	1340	0	0	0
020218	09:07:04	1	13	5.0.10.0	d080_B12_B2_pleasA	dB12_valA_080	8	31	300	300	0	0	587	18	0	1	blank2r.bmp	0	1	+	0	3	B3r.bmp	500	1	blank2r.bmp	800	1	GKQX	800	1	blank2r.bmp	880	5	friedlich	880	1	!	1210	1	blank2r.bmp	1340	0	0	0
020218	09:07:04	1	13	5.0.10.0	d080_B12_B1_pleasA	dB12_valA_080	8	32	300	300	0	0	333	23	0	1	blank2r.bmp	0	1	+	0	5	C1r.bmp	500	1	blank2r.bmp	800	1	BMVZ	800	1	blank2r.bmp	880	1	toll	880	1	!	1210	1	blank2r.bmp	1340	0	0	0
020218	09:07:04	1	13	5.0.10.0	d080_B12_B1_unplA	dB12_valA_080	8	33	300	300	0	0	173	23	0	1	blank2r.bmp	0	1	+	0	2	B2r.bmp	500	1	blank2r.bmp	800	1	BMVZ	800	1	blank2r.bmp	880	1	unfair	880	1	!	1210	1	blank2r.bmp	1340	0	0	0
020218	09:07:04	1	13	5.0.10.0	d080_B12_B1_pleasA	dB12_valA_080	8	34	300	300	0	0	407	18	1	1	blank2r.bmp	0	1	+	0	1	B1r.bmp	500	1	blank2r.bmp	800	1	BMVZ	800	1	blank2r.bmp	880	4	heiter	880	1	!	1210	1	blank2r.bmp	1340	0	0	0
020218	09:07:04	1	13	5.0.10.0	d080_B12_B1_pleasA	dB12_valA_080	8	35	300	300	0	0	873	23	0	1	blank2r.bmp	0	1	+	0	3	B3r.bmp	500	1	blank2r.bmp	800	1	BMVZ	800	1	blank2r.bmp	880	6	froh	880	1	!	1210	1	blank2r.bmp	1340	0	0	0
020218	09:07:04	1	13	5.0.10.0	d080_B12_B2_pleasA	dB12_valA_080	8	36	300	300	0	0	361	23	1	1	blank2r.bmp	0	1	+	0	8	C4r.bmp	500	1	blank2r.bmp	800	1	GKQX	800	1	blank2r.bmp	880	3	freund	880	1	!	1210	1	blank2r.bmp	1340	0	0	0
020218	09:07:04	1	13	5.0.10.0	d080_B12_B1_pleasA	dB12_valA_080	8	37	300	300	0	0	315	23	0	1	blank2r.bmp	0	1	+	0	4	B4r.bmp	500	1	blank2r.bmp	800	1	BMVZ	800	1	blank2r.bmp	880	2	schön	880	1	!	1210	1	blank2r.bmp	1340	0	0	0
020218	09:07:04	1	13	5.0.10.0	d080_B12_B2_unplA	dB12_valA_080	8	38	300	300	0	0	113	23	1	1	blank2r.bmp	0	1	+	0	7	C3r.bmp	500	1	blank2r.bmp	800	1	GKQX	800	1	blank2r.bmp	880	4	elend	880	1	!	1210	1	blank2r.bmp	1340	0	0	0
020218	09:07:04	1	13	5.0.10.0	d080_B12_B2_pleasA	dB12_valA_080	8	39	300	300	0	0	402	23	1	1	blank2r.bmp	0	1	+	0	6	C2r.bmp	500	1	blank2r.bmp	800	1	GKQX	800	1	blank2r.bmp	880	3	freund	880	1	!	1210	1	blank2r.bmp	1340	0	0	0
020218	09:07:04	1	13	5.0.10.0	d080_B12_B2_unplA	dB12_valA_080	8	40	300	300	0	0	364	18	0	1	blank2r.bmp	0	1	+	0	5	C1r.bmp	500	1	blank2r.bmp	800	1	GKQX	800	1	blank2r.bmp	880	6	leiden	880	1	!	1210	1	blank2r.bmp	1340	0	0	0
020218	09:07:04	1	13	5.0.10.0	d080_B12_B2_pleasA	dB12_valA_080	8	41	300	300	0	0	198	23	1	1	blank2r.bmp	0	1	+	0	2	B2r.bmp	500	1	blank2r.bmp	800	1	GKQX	800	1	blank2r.bmp	880	4	heiter	880	1	!	1210	1	blank2r.bmp	1340	0	0	0
020218	09:07:04	1	13	5.0.10.0	d080_B12_B1_pleasA	dB12_valA_080	8	42	300	300	0	0	372	18	1	1	blank2r.bmp	0	1	+	0	7	C3r.bmp	500	1	blank2r.bmp	800	1	BMVZ	800	1	blank2r.bmp	880	2	schön	880	1	!	1210	1	blank2r.bmp	1340	0	0	0
020218	09:07:04	1	13	5.0.10.0	d080_B12_B2_pleasA	dB12_valA_080	8	43	300	300	0	0	14	23	1	1	blank2r.bmp	0	1	+	0	1	B1r.bmp	500	1	blank2r.bmp	800	1	GKQX	800	1	blank2r.bmp	880	6	froh	880	1	!	1210	1	blank2r.bmp	1340	0	0	0
020218	09:07:04	1	13	5.0.10.0	d080_B12_B1_unplA	dB12_valA_080	8	44	300	300	0	0	825	23	0	1	blank2r.bmp	0	1	+	0	5	C1r.bmp	500	1	blank2r.bmp	800	1	BMVZ	800	1	blank2r.bmp	880	5	schlecht	880	1	!	1210	1	blank2r.bmp	1340	0	0	0
020218	09:07:04	1	13	5.0.10.0	d080_B12_B1_unplA	dB12_valA_080	8	45	300	300	0	0	893	23	0	1	blank2r.bmp	0	1	+	0	4	B4r.bmp	500	1	blank2r.bmp	800	1	BMVZ	800	1	blank2r.bmp	880	2	neidisch	880	1	!	1210	1	blank2r.bmp	1340	0	0	0
020218	09:07:04	1	13	5.0.10.0	d080_B12_B1_pleasA	dB12_valA_080	8	46	300	300	0	0	334	18	1	1	blank2r.bmp	0	1	+	0	3	B3r.bmp	500	1	blank2r.bmp	800	1	BMVZ	800	1	blank2r.bmp	880	5	friedlich	880	1	!	1210	1	blank2r.bmp	1340	0	0	0
020218	09:07:04	1	13	5.0.10.0	d080_B12_B2_pleasA	dB12_valA_080	8	47	300	300	0	0	131	23	1	1	blank2r.bmp	0	1	+	0	8	C4r.bmp	500	1	blank2r.bmp	800	1	GKQX	800	1	blank2r.bmp	880	1	toll	880	1	!	1210	1	blank2r.bmp	1340	0	0	0
020218	09:07:04	1	13	5.0.10.0	d080_B12_B2_unplA	dB12_valA_080	8	48	300	300	0	0	242	23	1	1	blank2r.bmp	0	1	+	0	6	C2r.bmp	500	1	blank2r.bmp	800	1	GKQX	800	1	blank2r.bmp	880	3	töten	880	1	!	1210	1	blank2r.bmp	1340	0	0	0
020218	09:07:04	1	13	5.0.10.0	d080_B12_B1_unplA	dB12_valA_080	9	1	300	300	0	0	190	23	0	1	blank2r.bmp	0	1	+	0	8	C4r.bmp	500	1	blank2r.bmp	800	1	BMVZ	800	1	blank2r.bmp	880	4	elend	880	1	!	1210	1	blank2r.bmp	1340	0	0	0
020218	09:07:04	1	13	5.0.10.0	d080_B12_B2_pleasA	dB12_valA_080	9	2	300	300	0	0	176	18	0	1	blank2r.bmp	0	1	+	0	3	B3r.bmp	500	1	blank2r.bmp	800	1	GKQX	800	1	blank2r.bmp	880	2	schön	880	1	!	1210	1	blank2r.bmp	1340	0	0	0
020218	09:07:04	1	13	5.0.10.0	d080_B12_B2_pleasA	dB12_valA_080	9	3	300	300	0	0	123	23	1	1	blank2r.bmp	0	1	+	0	5	C1r.bmp	500	1	blank2r.bmp	800	1	GKQX	800	1	blank2r.bmp	880	3	freund	880	1	!	1210	1	blank2r.bmp	1340	0	0	0
020218	09:07:04	1	13	5.0.10.0	d080_B12_B1_unplA	dB12_valA_080	9	4	300	300	0	0	30	18	1	1	blank2r.bmp	0	1	+	0	6	C2r.bmp	500	1	blank2r.bmp	800	1	BMVZ	800	1	blank2r.bmp	880	3	töten	880	1	!	1210	1	blank2r.bmp	1340	0	0	0
020218	09:07:04	1	13	5.0.10.0	d080_B12_B2_pleasA	dB12_valA_080	9	5	300	300	0	0	121	23	1	1	blank2r.bmp	0	1	+	0	4	B4r.bmp	500	1	blank2r.bmp	800	1	GKQX	800	1	blank2r.bmp	880	1	toll	880	1	!	1210	1	blank2r.bmp	1340	0	0	0
020218	09:07:04	1	13	5.0.10.0	d080_B12_B2_pleasA	dB12_valA_080	9	6	300	300	0	0	203	23	1	1	blank2r.bmp	0	1	+	0	7	C3r.bmp	500	1	blank2r.bmp	800	1	GKQX	800	1	blank2r.bmp	880	6	froh	880	1	!	1210	1	blank2r.bmp	1340	0	0	0
020218	09:07:04	1	13	5.0.10.0	d080_B12_B1_pleasA	dB12_valA_080	9	7	300	300	0	0	25	18	1	1	blank2r.bmp	0	1	+	0	2	B2r.bmp	500	1	blank2r.bmp	800	1	BMVZ	800	1	blank2r.bmp	880	4	heiter	880	1	!	1210	1	blank2r.bmp	1340	0	0	0
020218	09:07:04	1	13	5.0.10.0	d080_B12_B1_pleasA	dB12_valA_080	9	8	300	300	0	0	42	23	0	1	blank2r.bmp	0	1	+	0	1	B1r.bmp	500	1	blank2r.bmp	800	1	BMVZ	800	1	blank2r.bmp	880	5	friedlich	880	1	!	1210	1	blank2r.bmp	1340	0	0	0
020218	09:07:04	1	13	5.0.10.0	d080_B12_B1_unplA	dB12_valA_080	9	9	300	300	0	0	66	18	1	1	blank2r.bmp	0	1	+	0	4	B4r.bmp	500	1	blank2r.bmp	800	1	BMVZ	800	1	blank2r.bmp	880	6	leiden	880	1	!	1210	1	blank2r.bmp	1340	0	0	0
020218	09:07:04	1	13	5.0.10.0	d080_B12_B2_unplA	dB12_valA_080	9	10	300	300	0	0	635	18	0	1	blank2r.bmp	0	1	+	0	6	C2r.bmp	500	1	blank2r.bmp	800	1	GKQX	800	1	blank2r.bmp	880	2	neidisch	880	1	!	1210	1	blank2r.bmp	1340	0	0	0
020218	09:07:04	1	13	5.0.10.0	d080_B12_B2_unplA	dB12_valA_080	9	11	300	300	0	0	294	23	1	1	blank2r.bmp	0	1	+	0	8	C4r.bmp	500	1	blank2r.bmp	800	1	GKQX	800	1	blank2r.bmp	880	5	schlecht	880	1	!	1210	1	blank2r.bmp	1340	0	0	0
020218	09:07:04	1	13	5.0.10.0	d080_B12_B2_pleasA	dB12_valA_080	9	12	300	300	0	0	47	23	1	1	blank2r.bmp	0	1	+	0	5	C1r.bmp	500	1	blank2r.bmp	800	1	GKQX	800	1	blank2r.bmp	880	2	schön	880	1	!	1210	1	blank2r.bmp	1340	0	0	0
020218	09:07:04	1	13	5.0.10.0	d080_B12_B2_unplA	dB12_valA_080	9	13	300	300	0	0	4410	23	1	1	blank2r.bmp	0	1	+	0	7	C3r.bmp	500	1	blank2r.bmp	800	1	GKQX	800	1	blank2r.bmp	880	1	unfair	880	1	!	1210	1	blank2r.bmp	1340	0	0	0
020218	09:07:04	1	13	5.0.10.0	d080_B12_B1_pleasA	dB12_valA_080	9	14	300	300	0	0	324	18	1	1	blank2r.bmp	0	1	+	0	1	B1r.bmp	500	1	blank2r.bmp	800	1	BMVZ	800	1	blank2r.bmp	880	3	freund	880	1	!	1210	1	blank2r.bmp	1340	0	0	0
020218	09:07:04	1	13	5.0.10.0	d080_B12_B2_unplA	dB12_valA_080	9	15	300	300	0	0	839	23	1	1	blank2r.bmp	0	1	+	0	3	B3r.bmp	500	1	blank2r.bmp	800	1	GKQX	800	1	blank2r.bmp	880	5	schlecht	880	1	!	1210	1	blank2r.bmp	1340	0	0	0
020218	09:07:04	1	13	5.0.10.0	d080_B12_B1_pleasA	dB12_valA_080	9	16	300	300	0	0	619	18	1	1	blank2r.bmp	0	1	+	0	2	B2r.bmp	500	1	blank2r.bmp	800	1	BMVZ	800	1	blank2r.bmp	880	4	heiter	880	1	!	1210	1	blank2r.bmp	1340	0	0	0
020218	09:07:04	1	13	5.0.10.0	d080_B12_B2_unplA	dB12_valA_080	9	17	300	300	0	0	315	23	1	1	blank2r.bmp	0	1	+	0	5	C1r.bmp	500	1	blank2r.bmp	800	1	GKQX	800	1	blank2r.bmp	880	1	unfair	880	1	!	1210	1	blank2r.bmp	1340	0	0	0
020218	09:07:04	1	13	5.0.10.0	d080_B12_B2_unplA	dB12_valA_080	9	18	300	300	0	0	674	23	1	1	blank2r.bmp	0	1	+	0	4	B4r.bmp	500	1	blank2r.bmp	800	1	GKQX	800	1	blank2r.bmp	880	3	töten	880	1	!	1210	1	blank2r.bmp	1340	0	0	0
020218	09:07:04	1	13	5.0.10.0	d080_B12_B2_pleasA	dB12_valA_080	9	19	300	300	0	0	1500	18	0	1	blank2r.bmp	0	1	+	0	2	B2r.bmp	500	1	blank2r.bmp	800	1	GKQX	800	1	blank2r.bmp	880	6	froh	880	1	!	1210	1	blank2r.bmp	1340	0	0	0
020218	09:07:04	1	13	5.0.10.0	d080_B12_B1_unplA	dB12_valA_080	9	20	300	300	0	0	214	23	0	1	blank2r.bmp	0	1	+	0	8	C4r.bmp	500	1	blank2r.bmp	800	1	BMVZ	800	1	blank2r.bmp	880	2	neidisch	880	1	!	1210	1	blank2r.bmp	1340	0	0	0
020218	09:07:04	1	13	5.0.10.0	d080_B12_B1_pleasA	dB12_valA_080	9	21	300	300	0	0	289	18	1	1	blank2r.bmp	0	1	+	0	6	C2r.bmp	500	1	blank2r.bmp	800	1	BMVZ	800	1	blank2r.bmp	880	5	friedlich	880	1	!	1210	1	blank2r.bmp	1340	0	0	0
020218	09:07:04	1	13	5.0.10.0	d080_B12_B1_unplA	dB12_valA_080	9	22	300	300	0	0	75	18	1	1	blank2r.bmp	0	1	+	0	3	B3r.bmp	500	1	blank2r.bmp	800	1	BMVZ	800	1	blank2r.bmp	880	6	leiden	880	1	!	1210	1	blank2r.bmp	1340	0	0	0
020218	09:07:04	1	13	5.0.10.0	d080_B12_B1_unplA	dB12_valA_080	9	23	300	300	0	0	542	23	0	1	blank2r.bmp	0	1	+	0	7	C3r.bmp	500	1	blank2r.bmp	800	1	BMVZ	800	1	blank2r.bmp	880	4	elend	880	1	!	1210	1	blank2r.bmp	1340	0	0	0
020218	09:07:04	1	13	5.0.10.0	d080_B12_B1_pleasA	dB12_valA_080	9	24	300	300	0	0	705	23	0	1	blank2r.bmp	0	1	+	0	1	B1r.bmp	500	1	blank2r.bmp	800	1	BMVZ	800	1	blank2r.bmp	880	1	toll	880	1	!	1210	1	blank2r.bmp	1340	0	0	0
020218	09:07:04	1	13	5.0.10.0	d080_B12_B2_pleasA	dB12_valA_080	9	25	300	300	0	0	799	23	1	1	blank2r.bmp	0	1	+	0	2	B2r.bmp	500	1	blank2r.bmp	800	1	GKQX	800	1	blank2r.bmp	880	3	freund	880	1	!	1210	1	blank2r.bmp	1340	0	0	0
020218	09:07:04	1	13	5.0.10.0	d080_B12_B1_pleasA	dB12_valA_080	9	26	300	300	0	0	507	18	1	1	blank2r.bmp	0	1	+	0	3	B3r.bmp	500	1	blank2r.bmp	800	1	BMVZ	800	1	blank2r.bmp	880	6	froh	880	1	!	1210	1	blank2r.bmp	1340	0	0	0
020218	09:07:04	1	13	5.0.10.0	d080_B12_B2_pleasA	dB12_valA_080	9	27	300	300	0	0	68	18	0	1	blank2r.bmp	0	1	+	0	4	B4r.bmp	500	1	blank2r.bmp	800	1	GKQX	800	1	blank2r.bmp	880	1	toll	880	1	!	1210	1	blank2r.bmp	1340	0	0	0
020218	09:07:04	1	13	5.0.10.0	d080_B12_B1_pleasA	dB12_valA_080	9	28	300	300	0	0	130	23	0	1	blank2r.bmp	0	1	+	0	8	C4r.bmp	500	1	blank2r.bmp	800	1	BMVZ	800	1	blank2r.bmp	880	4	heiter	880	1	!	1210	1	blank2r.bmp	1340	0	0	0
020218	09:07:04	1	13	5.0.10.0	d080_B12_B1_pleasA	dB12_valA_080	9	29	300	300	0	0	291	23	0	1	blank2r.bmp	0	1	+	0	6	C2r.bmp	500	1	blank2r.bmp	800	1	BMVZ	800	1	blank2r.bmp	880	5	friedlich	880	1	!	1210	1	blank2r.bmp	1340	0	0	0
020218	09:07:04	1	13	5.0.10.0	d080_B12_B1_pleasA	dB12_valA_080	9	30	300	300	0	0	42	18	1	1	blank2r.bmp	0	1	+	0	1	B1r.bmp	500	1	blank2r.bmp	800	1	BMVZ	800	1	blank2r.bmp	880	2	schön	880	1	!	1210	1	blank2r.bmp	1340	0	0	0
020218	09:07:04	1	13	5.0.10.0	d080_B12_B2_unplA	dB12_valA_080	9	31	300	300	0	0	205	23	1	1	blank2r.bmp	0	1	+	0	5	C1r.bmp	500	1	blank2r.bmp	800	1	GKQX	800	1	blank2r.bmp	880	2	neidisch	880	1	!	1210	1	blank2r.bmp	1340	0	0	0
020218	09:07:04	1	13	5.0.10.0	d080_B12_B2_unplA	dB12_valA_080	9	32	300	300	0	0	487	23	1	1	blank2r.bmp	0	1	+	0	7	C3r.bmp	500	1	blank2r.bmp	800	1	GKQX	800	1	blank2r.bmp	880	5	schlecht	880	1	!	1210	1	blank2r.bmp	1340	0	0	0
020218	09:07:04	1	13	5.0.10.0	d080_B12_B2_pleasA	dB12_valA_080	9	33	300	300	0	0	176	18	0	1	blank2r.bmp	0	1	+	0	7	C3r.bmp	500	1	blank2r.bmp	800	1	GKQX	800	1	blank2r.bmp	880	3	freund	880	1	!	1210	1	blank2r.bmp	1340	0	0	0
020218	09:07:04	1	13	5.0.10.0	d080_B12_B2_unplA	dB12_valA_080	9	34	300	300	0	0	10	23	1	1	blank2r.bmp	0	1	+	0	3	B3r.bmp	500	1	blank2r.bmp	800	1	GKQX	800	1	blank2r.bmp	880	6	leiden	880	1	!	1210	1	blank2r.bmp	1340	0	0	0
020218	09:07:04	1	13	5.0.10.0	d080_B12_B1_pleasA	dB12_valA_080	9	35	300	300	0	0	64	18	1	1	blank2r.bmp	0	1	+	0	2	B2r.bmp	500	1	blank2r.bmp	800	1	BMVZ	800	1	blank2r.bmp	880	2	schön	880	1	!	1210	1	blank2r.bmp	1340	0	0	0
020218	09:07:04	1	13	5.0.10.0	d080_B12_B1_unplA	dB12_valA_080	9	36	300	300	0	0	571	23	0	1	blank2r.bmp	0	1	+	0	8	C4r.bmp	500	1	blank2r.bmp	800	1	BMVZ	800	1	blank2r.bmp	880	1	unfair	880	1	!	1210	1	blank2r.bmp	1340	0	0	0
020218	09:07:04	1	13	5.0.10.0	d080_B12_B2_pleasA	dB12_valA_080	9	37	300	300	0	0	843	18	0	1	blank2r.bmp	0	1	+	0	5	C1r.bmp	500	1	blank2r.bmp	800	1	GKQX	800	1	blank2r.bmp	880	5	friedlich	880	1	!	1210	1	blank2r.bmp	1340	0	0	0
020218	09:07:04	1	13	5.0.10.0	d080_B12_B1_pleasA	dB12_valA_080	9	38	300	300	0	0	1169	23	0	1	blank2r.bmp	0	1	+	0	6	C2r.bmp	500	1	blank2r.bmp	800	1	BMVZ	800	1	blank2r.bmp	880	1	toll	880	1	!	1210	1	blank2r.bmp	1340	0	0	0
020218	09:07:04	1	13	5.0.10.0	d080_B12_B1_unplA	dB12_valA_080	9	39	300	300	0	0	532	23	0	1	blank2r.bmp	0	1	+	0	4	B4r.bmp	500	1	blank2r.bmp	800	1	BMVZ	800	1	blank2r.bmp	880	3	töten	880	1	!	1210	1	blank2r.bmp	1340	0	0	0
020218	09:07:04	1	13	5.0.10.0	d080_B12_B1_unplA	dB12_valA_080	9	40	300	300	0	0	428	23	0	1	blank2r.bmp	0	1	+	0	1	B1r.bmp	500	1	blank2r.bmp	800	1	BMVZ	800	1	blank2r.bmp	880	4	elend	880	1	!	1210	1	blank2r.bmp	1340	0	0	0
020218	09:07:04	1	13	5.0.10.0	d080_B12_B2_unplA	dB12_valA_080	9	41	300	300	0	0	173	18	0	1	blank2r.bmp	0	1	+	0	2	B2r.bmp	500	1	blank2r.bmp	800	1	GKQX	800	1	blank2r.bmp	880	1	unfair	880	1	!	1210	1	blank2r.bmp	1340	0	0	0
020218	09:07:04	1	13	5.0.10.0	d080_B12_B2_pleasA	dB12_valA_080	9	42	300	300	0	0	50	23	1	1	blank2r.bmp	0	1	+	0	8	C4r.bmp	500	1	blank2r.bmp	800	1	GKQX	800	1	blank2r.bmp	880	6	froh	880	1	!	1210	1	blank2r.bmp	1340	0	0	0
020218	09:07:04	1	13	5.0.10.0	d080_B12_B2_unplA	dB12_valA_080	9	43	300	300	0	0	274	18	0	1	blank2r.bmp	0	1	+	0	1	B1r.bmp	500	1	blank2r.bmp	800	1	GKQX	800	1	blank2r.bmp	880	3	töten	880	1	!	1210	1	blank2r.bmp	1340	0	0	0
020218	09:07:04	1	13	5.0.10.0	d080_B12_B1_unplA	dB12_valA_080	9	44	300	300	0	0	257	18	1	1	blank2r.bmp	0	1	+	0	4	B4r.bmp	500	1	blank2r.bmp	800	1	BMVZ	800	1	blank2r.bmp	880	6	leiden	880	1	!	1210	1	blank2r.bmp	1340	0	0	0
020218	09:07:04	1	13	5.0.10.0	d080_B12_B2_pleasA	dB12_valA_080	9	45	300	300	0	0	1095	23	1	1	blank2r.bmp	0	1	+	0	5	C1r.bmp	500	1	blank2r.bmp	800	1	GKQX	800	1	blank2r.bmp	880	4	heiter	880	1	!	1210	1	blank2r.bmp	1340	0	0	0
020218	09:07:04	1	13	5.0.10.0	d080_B12_B2_unplA	dB12_valA_080	9	46	300	300	0	0	89	23	1	1	blank2r.bmp	0	1	+	0	7	C3r.bmp	500	1	blank2r.bmp	800	1	GKQX	800	1	blank2r.bmp	880	4	elend	880	1	!	1210	1	blank2r.bmp	1340	0	0	0
020218	09:07:04	1	13	5.0.10.0	d080_B12_B1_unplA	dB12_valA_080	9	47	300	300	0	0	153	18	1	1	blank2r.bmp	0	1	+	0	6	C2r.bmp	500	1	blank2r.bmp	800	1	BMVZ	800	1	blank2r.bmp	880	2	neidisch	880	1	!	1210	1	blank2r.bmp	1340	0	0	0
020218	09:07:04	1	13	5.0.10.0	d080_B12_B1_unplA	dB12_valA_080	9	48	300	300	0	0	308	18	1	1	blank2r.bmp	0	1	+	0	3	B3r.bmp	500	1	blank2r.bmp	800	1	BMVZ	800	1	blank2r.bmp	880	5	schlecht	880	1	!	1210	1	blank2r.bmp	1340	0	0	0
020218	09:07:04	1	13	5.0.10.0	endtrial	endblock	10	1	300	300	0	0	2475525	Ctrl+'Q'	1	0	0	0	0	0	0	0	0	0	0	0	0	0	0	0	0	0	0	0	0	0	0	0	0	0	0	0	0	0	0
