date	time	group	subject	build	trialcode	blockcode	blocknum	trialnum	pretrialpause	posttrialpause	trialduration	trialtimeout	latency	response	correct	stimulusnumber1	stimulusitem1	stimulusonset1	stimulusnumber2	stimulusitem2	stimulusonset2	stimulusnumber3	stimulusitem3	stimulusonset3	stimulusnumber4	stimulusitem4	stimulusonset4	stimulusnumber5	stimulusitem5	stimulusonset5	stimulusnumber6	stimulusitem6	stimulusonset6	stimulusnumber7	stimulusitem7	stimulusonset7	stimulusnumber8	stimulusitem8	stimulusonset8	stimulusnumber9	stimulusitem9	stimulusonset9	stimulusnumber10	stimulusitem10	stimulusonset10
020118	13:35:30	1	9	5.0.10.0	dL_A12_A1_pleasB	dA12_valB_pract1	1	1	300	300	0	0	128	18	1	1	blank2r.bmp	0	1	+	0	7	C3r.bmp	500	1	blank2r.bmp	700	1	NPLW	700	1	B1r.bmp	830	1	blank2r.bmp	870	5	begabt	870	1	!	1200	1	blank2r.bmp	1330
020118	13:35:30	1	9	5.0.10.0	dL_A12_A1_unplB	dA12_valB_pract1	1	2	300	300	0	0	2604	18	1	1	blank2r.bmp	0	1	+	0	1	B1r.bmp	500	1	blank2r.bmp	700	1	NPLW	700	3	B3r.bmp	830	1	blank2r.bmp	870	3	ärger	870	1	!	1200	1	blank2r.bmp	1330
020118	13:35:30	1	9	5.0.10.0	dL_A12_A2_pleasB	dA12_valB_pract1	1	3	300	300	0	0	5055	18	0	1	blank2r.bmp	0	1	+	0	5	C1r.bmp	500	1	blank2r.bmp	700	1	DHJF	700	8	C4r.bmp	830	1	blank2r.bmp	870	2	mutig	870	1	!	1200	1	blank2r.bmp	1330
020118	13:35:30	1	9	5.0.10.0	dL_A12_A2_pleasB	dA12_valB_pract1	1	4	300	300	0	0	1525	23	1	1	blank2r.bmp	0	1	+	0	3	B3r.bmp	500	1	blank2r.bmp	700	1	DHJF	700	4	B4r.bmp	830	1	blank2r.bmp	870	6	kreativ	870	1	!	1200	1	blank2r.bmp	1330
020118	13:35:30	1	9	5.0.10.0	dL_A12_A1_pleasB	dA12_valB_pract1	1	5	300	300	0	0	1029	18	1	1	blank2r.bmp	0	1	+	0	2	B2r.bmp	500	1	blank2r.bmp	700	1	NPLW	700	5	C1r.bmp	830	1	blank2r.bmp	870	4	treu	870	1	!	1200	1	blank2r.bmp	1330
020118	13:35:30	1	9	5.0.10.0	dL_A12_A2_unplB	dA12_valB_pract1	1	6	300	300	0	0	493	23	1	1	blank2r.bmp	0	1	+	0	4	B4r.bmp	500	1	blank2r.bmp	700	1	DHJF	700	2	B2r.bmp	830	1	blank2r.bmp	870	5	kummer	870	1	!	1200	1	blank2r.bmp	1330
020118	13:35:30	1	9	5.0.10.0	dL_A12_A1_unplB	dA12_valB_pract1	1	7	300	300	0	0	603	18	1	1	blank2r.bmp	0	1	+	0	8	C4r.bmp	500	1	blank2r.bmp	700	1	NPLW	700	6	C2r.bmp	830	1	blank2r.bmp	870	4	böse	870	1	!	1200	1	blank2r.bmp	1330
020118	13:35:30	1	9	5.0.10.0	dL_A12_A2_unplB	dA12_valB_pract1	1	8	300	300	0	0	1075	23	1	1	blank2r.bmp	0	1	+	0	6	C2r.bmp	500	1	blank2r.bmp	700	1	DHJF	700	7	C3r.bmp	830	1	blank2r.bmp	870	2	geizig	870	1	!	1200	1	blank2r.bmp	1330
020118	13:35:30	1	9	5.0.10.0	dL_A12_A2_unplB	dA12_valB_pract1	1	9	300	300	0	0	499	18	0	1	blank2r.bmp	0	1	+	0	1	B1r.bmp	500	1	blank2r.bmp	700	1	DHJF	700	4	B4r.bmp	830	1	blank2r.bmp	870	6	traurig	870	1	!	1200	1	blank2r.bmp	1330
020118	13:35:30	1	9	5.0.10.0	dL_A12_A1_pleasB	dA12_valB_pract1	1	10	300	300	0	0	635	18	1	1	blank2r.bmp	0	1	+	0	6	C2r.bmp	500	1	blank2r.bmp	700	1	NPLW	700	7	C3r.bmp	830	1	blank2r.bmp	870	3	kuss	870	1	!	1200	1	blank2r.bmp	1330
020118	13:35:30	1	9	5.0.10.0	dL_A12_A1_unplB	dA12_valB_pract1	1	11	300	300	0	0	729	18	1	1	blank2r.bmp	0	1	+	0	5	C1r.bmp	500	1	blank2r.bmp	700	1	NPLW	700	2	B2r.bmp	830	1	blank2r.bmp	870	1	grausam	870	1	!	1200	1	blank2r.bmp	1330
020118	13:35:30	1	9	5.0.10.0	dL_A12_A2_pleasB	dA12_valB_pract1	1	12	300	300	0	0	576	23	1	1	blank2r.bmp	0	1	+	0	8	C4r.bmp	500	1	blank2r.bmp	700	1	DHJF	700	5	C1r.bmp	830	1	blank2r.bmp	870	1	gut	870	1	!	1200	1	blank2r.bmp	1330
020118	13:35:30	1	9	5.0.10.0	dM_A12_A1_unplB	dA12_valB_pract2	2	1	300	300	0	0	461	18	1	1	blank2r.bmp	0	1	+	0	2	B2r.bmp	500	1	blank2r.bmp	730	1	NPLW	730	1	B1r.bmp	830	1	blank2r.bmp	870	1	grausam	870	1	!	1200	1	blank2r.bmp	1330
020118	13:35:30	1	9	5.0.10.0	dM_A12_A2_unplB	dA12_valB_pract2	2	2	300	300	0	0	779	23	1	1	blank2r.bmp	0	1	+	0	3	B3r.bmp	500	1	blank2r.bmp	730	1	DHJF	730	6	C2r.bmp	830	1	blank2r.bmp	870	5	kummer	870	1	!	1200	1	blank2r.bmp	1330
020118	13:35:30	1	9	5.0.10.0	dM_A12_A1_unplB	dA12_valB_pract2	2	3	300	300	0	0	873	18	1	1	blank2r.bmp	0	1	+	0	7	C3r.bmp	500	1	blank2r.bmp	730	1	NPLW	730	3	B3r.bmp	830	1	blank2r.bmp	870	4	böse	870	1	!	1200	1	blank2r.bmp	1330
020118	13:35:30	1	9	5.0.10.0	dM_A12_A2_pleasB	dA12_valB_pract2	2	4	300	300	0	0	872	23	1	1	blank2r.bmp	0	1	+	0	4	B4r.bmp	500	1	blank2r.bmp	730	1	DHJF	730	8	C4r.bmp	830	1	blank2r.bmp	870	3	kuss	870	1	!	1200	1	blank2r.bmp	1330
020118	13:35:30	1	9	5.0.10.0	dM_A12_A2_unplB	dA12_valB_pract2	2	5	300	300	0	0	543	23	1	1	blank2r.bmp	0	1	+	0	7	C3r.bmp	500	1	blank2r.bmp	730	1	DHJF	730	4	B4r.bmp	830	1	blank2r.bmp	870	3	ärger	870	1	!	1200	1	blank2r.bmp	1330
020118	13:35:30	1	9	5.0.10.0	dM_A12_A1_pleasB	dA12_valB_pract2	2	6	300	300	0	0	653	18	1	1	blank2r.bmp	0	1	+	0	2	B2r.bmp	500	1	blank2r.bmp	730	1	NPLW	730	5	C1r.bmp	830	1	blank2r.bmp	870	6	kreativ	870	1	!	1200	1	blank2r.bmp	1330
020118	13:35:30	1	9	5.0.10.0	dM_A12_A1_pleasB	dA12_valB_pract2	2	7	300	300	0	0	478	23	0	1	blank2r.bmp	0	1	+	0	3	B3r.bmp	500	1	blank2r.bmp	730	1	NPLW	730	2	B2r.bmp	830	1	blank2r.bmp	870	2	mutig	870	1	!	1200	1	blank2r.bmp	1330
020118	13:35:30	1	9	5.0.10.0	dM_A12_A2_unplB	dA12_valB_pract2	2	8	300	300	0	0	713	23	1	1	blank2r.bmp	0	1	+	0	1	B1r.bmp	500	1	blank2r.bmp	730	1	DHJF	730	7	C3r.bmp	830	1	blank2r.bmp	870	2	geizig	870	1	!	1200	1	blank2r.bmp	1330
020118	13:35:30	1	9	5.0.10.0	dM_A12_A1_unplB	dA12_valB_pract2	2	9	300	300	0	0	593	18	1	1	blank2r.bmp	0	1	+	0	4	B4r.bmp	500	1	blank2r.bmp	730	1	NPLW	730	8	C4r.bmp	830	1	blank2r.bmp	870	6	traurig	870	1	!	1200	1	blank2r.bmp	1330
020118	13:35:30	1	9	5.0.10.0	dM_A12_A2_pleasB	dA12_valB_pract2	2	10	300	300	0	0	378	23	1	1	blank2r.bmp	0	1	+	0	6	C2r.bmp	500	1	blank2r.bmp	730	1	DHJF	730	1	B1r.bmp	830	1	blank2r.bmp	870	5	begabt	870	1	!	1200	1	blank2r.bmp	1330
020118	13:35:30	1	9	5.0.10.0	dM_A12_A2_pleasB	dA12_valB_pract2	2	11	300	300	0	0	815	23	1	1	blank2r.bmp	0	1	+	0	5	C1r.bmp	500	1	blank2r.bmp	730	1	DHJF	730	6	C2r.bmp	830	1	blank2r.bmp	870	4	treu	870	1	!	1200	1	blank2r.bmp	1330
020118	13:35:30	1	9	5.0.10.0	dM_A12_A1_pleasB	dA12_valB_pract2	2	12	300	300	0	0	534	23	0	1	blank2r.bmp	0	1	+	0	8	C4r.bmp	500	1	blank2r.bmp	730	1	NPLW	730	3	B3r.bmp	830	1	blank2r.bmp	870	1	gut	870	1	!	1200	1	blank2r.bmp	1330
020118	13:35:30	1	9	5.0.10.0	d070_A12_A1_unplB	dA12_valB_070	3	1	300	300	0	0	490	18	1	1	blank2r.bmp	0	1	+	0	7	C3r.bmp	500	1	blank2r.bmp	800	1	NPLW	800	1	blank2r.bmp	870	2	geizig	870	1	!	1200	1	blank2r.bmp	1330	0	0	0
020118	13:35:30	1	9	5.0.10.0	d070_A12_A2_unplB	dA12_valB_070	3	2	300	300	0	0	516	23	1	1	blank2r.bmp	0	1	+	0	5	C1r.bmp	500	1	blank2r.bmp	800	1	DHJF	800	1	blank2r.bmp	870	1	grausam	870	1	!	1200	1	blank2r.bmp	1330	0	0	0
020118	13:35:30	1	9	5.0.10.0	d070_A12_A2_pleasB	dA12_valB_070	3	3	300	300	0	0	634	18	0	1	blank2r.bmp	0	1	+	0	3	B3r.bmp	500	1	blank2r.bmp	800	1	DHJF	800	1	blank2r.bmp	870	2	mutig	870	1	!	1200	1	blank2r.bmp	1330	0	0	0
020118	13:35:30	1	9	5.0.10.0	d070_A12_A1_pleasB	dA12_valB_070	3	4	300	300	0	0	345	23	0	1	blank2r.bmp	0	1	+	0	2	B2r.bmp	500	1	blank2r.bmp	800	1	NPLW	800	1	blank2r.bmp	870	1	gut	870	1	!	1200	1	blank2r.bmp	1330	0	0	0
020118	13:35:30	1	9	5.0.10.0	d070_A12_A1_pleasB	dA12_valB_070	3	5	300	300	0	0	398	18	1	1	blank2r.bmp	0	1	+	0	6	C2r.bmp	500	1	blank2r.bmp	800	1	NPLW	800	1	blank2r.bmp	870	3	kuss	870	1	!	1200	1	blank2r.bmp	1330	0	0	0
020118	13:35:30	1	9	5.0.10.0	d070_A12_A2_pleasB	dA12_valB_070	3	6	300	300	0	0	343	23	1	1	blank2r.bmp	0	1	+	0	4	B4r.bmp	500	1	blank2r.bmp	800	1	DHJF	800	1	blank2r.bmp	870	6	kreativ	870	1	!	1200	1	blank2r.bmp	1330	0	0	0
020118	13:35:30	1	9	5.0.10.0	d070_A12_A2_unplB	dA12_valB_070	3	7	300	300	0	0	282	18	0	1	blank2r.bmp	0	1	+	0	8	C4r.bmp	500	1	blank2r.bmp	800	1	DHJF	800	1	blank2r.bmp	870	6	traurig	870	1	!	1200	1	blank2r.bmp	1330	0	0	0
020118	13:35:30	1	9	5.0.10.0	d070_A12_A1_unplB	dA12_valB_070	3	8	300	300	0	0	281	23	0	1	blank2r.bmp	0	1	+	0	1	B1r.bmp	500	1	blank2r.bmp	800	1	NPLW	800	1	blank2r.bmp	870	4	böse	870	1	!	1200	1	blank2r.bmp	1330	0	0	0
020118	13:35:30	1	9	5.0.10.0	d070_A12_A1_pleasB	dA12_valB_070	3	9	300	300	0	0	431	18	1	1	blank2r.bmp	0	1	+	0	5	C1r.bmp	500	1	blank2r.bmp	800	1	NPLW	800	1	blank2r.bmp	870	4	treu	870	1	!	1200	1	blank2r.bmp	1330	0	0	0
020118	13:35:30	1	9	5.0.10.0	d070_A12_A1_unplB	dA12_valB_070	3	10	300	300	0	0	283	23	0	1	blank2r.bmp	0	1	+	0	8	C4r.bmp	500	1	blank2r.bmp	800	1	NPLW	800	1	blank2r.bmp	870	3	ärger	870	1	!	1200	1	blank2r.bmp	1330	0	0	0
020118	13:35:30	1	9	5.0.10.0	d070_A12_A2_pleasB	dA12_valB_070	3	11	300	300	0	0	407	18	0	1	blank2r.bmp	0	1	+	0	2	B2r.bmp	500	1	blank2r.bmp	800	1	DHJF	800	1	blank2r.bmp	870	5	begabt	870	1	!	1200	1	blank2r.bmp	1330	0	0	0
020118	13:35:30	1	9	5.0.10.0	d070_A12_A2_pleasB	dA12_valB_070	3	12	300	300	0	0	349	18	0	1	blank2r.bmp	0	1	+	0	3	B3r.bmp	500	1	blank2r.bmp	800	1	DHJF	800	1	blank2r.bmp	870	2	mutig	870	1	!	1200	1	blank2r.bmp	1330	0	0	0
020118	13:35:30	1	9	5.0.10.0	d070_A12_A2_pleasB	dA12_valB_070	3	13	300	300	0	0	277	18	0	1	blank2r.bmp	0	1	+	0	7	C3r.bmp	500	1	blank2r.bmp	800	1	DHJF	800	1	blank2r.bmp	870	6	kreativ	870	1	!	1200	1	blank2r.bmp	1330	0	0	0
020118	13:35:30	1	9	5.0.10.0	d070_A12_A2_unplB	dA12_valB_070	3	14	300	300	0	0	351	23	1	1	blank2r.bmp	0	1	+	0	1	B1r.bmp	500	1	blank2r.bmp	800	1	DHJF	800	1	blank2r.bmp	870	5	kummer	870	1	!	1200	1	blank2r.bmp	1330	0	0	0
020118	13:35:30	1	9	5.0.10.0	d070_A12_A1_unplB	dA12_valB_070	3	15	300	300	0	0	280	23	0	1	blank2r.bmp	0	1	+	0	4	B4r.bmp	500	1	blank2r.bmp	800	1	NPLW	800	1	blank2r.bmp	870	2	geizig	870	1	!	1200	1	blank2r.bmp	1330	0	0	0
020118	13:35:30	1	9	5.0.10.0	d070_A12_A2_pleasB	dA12_valB_070	3	16	300	300	0	0	540	23	1	1	blank2r.bmp	0	1	+	0	6	C2r.bmp	500	1	blank2r.bmp	800	1	DHJF	800	1	blank2r.bmp	870	3	kuss	870	1	!	1200	1	blank2r.bmp	1330	0	0	0
020118	13:35:30	1	9	5.0.10.0	d070_A12_A2_unplB	dA12_valB_070	3	17	300	300	0	0	705	23	1	1	blank2r.bmp	0	1	+	0	5	C1r.bmp	500	1	blank2r.bmp	800	1	DHJF	800	1	blank2r.bmp	870	5	kummer	870	1	!	1200	1	blank2r.bmp	1330	0	0	0
020118	13:35:30	1	9	5.0.10.0	d070_A12_A1_pleasB	dA12_valB_070	3	18	300	300	0	0	349	18	1	1	blank2r.bmp	0	1	+	0	8	C4r.bmp	500	1	blank2r.bmp	800	1	NPLW	800	1	blank2r.bmp	870	5	begabt	870	1	!	1200	1	blank2r.bmp	1330	0	0	0
020118	13:35:30	1	9	5.0.10.0	d070_A12_A1_unplB	dA12_valB_070	3	19	300	300	0	0	182	18	1	1	blank2r.bmp	0	1	+	0	2	B2r.bmp	500	1	blank2r.bmp	800	1	NPLW	800	1	blank2r.bmp	870	6	traurig	870	1	!	1200	1	blank2r.bmp	1330	0	0	0
020118	13:35:30	1	9	5.0.10.0	d070_A12_A2_unplB	dA12_valB_070	3	20	300	300	0	0	316	18	0	1	blank2r.bmp	0	1	+	0	3	B3r.bmp	500	1	blank2r.bmp	800	1	DHJF	800	1	blank2r.bmp	870	4	böse	870	1	!	1200	1	blank2r.bmp	1330	0	0	0
020118	13:35:30	1	9	5.0.10.0	d070_A12_A2_pleasB	dA12_valB_070	3	21	300	300	0	0	140	23	1	1	blank2r.bmp	0	1	+	0	6	C2r.bmp	500	1	blank2r.bmp	800	1	DHJF	800	1	blank2r.bmp	870	4	treu	870	1	!	1200	1	blank2r.bmp	1330	0	0	0
020118	13:35:30	1	9	5.0.10.0	d070_A12_A1_unplB	dA12_valB_070	3	22	300	300	0	0	103	23	0	1	blank2r.bmp	0	1	+	0	1	B1r.bmp	500	1	blank2r.bmp	800	1	NPLW	800	1	blank2r.bmp	870	1	grausam	870	1	!	1200	1	blank2r.bmp	1330	0	0	0
020118	13:35:30	1	9	5.0.10.0	d070_A12_A1_unplB	dA12_valB_070	3	23	300	300	0	0	469	23	0	1	blank2r.bmp	0	1	+	0	4	B4r.bmp	500	1	blank2r.bmp	800	1	NPLW	800	1	blank2r.bmp	870	3	ärger	870	1	!	1200	1	blank2r.bmp	1330	0	0	0
020118	13:35:30	1	9	5.0.10.0	d070_A12_A1_pleasB	dA12_valB_070	3	24	300	300	0	0	175	18	1	1	blank2r.bmp	0	1	+	0	7	C3r.bmp	500	1	blank2r.bmp	800	1	NPLW	800	1	blank2r.bmp	870	1	gut	870	1	!	1200	1	blank2r.bmp	1330	0	0	0
020118	13:35:30	1	9	5.0.10.0	d070_A12_A1_unplB	dA12_valB_070	3	25	300	300	0	0	183	18	1	1	blank2r.bmp	0	1	+	0	8	C4r.bmp	500	1	blank2r.bmp	800	1	NPLW	800	1	blank2r.bmp	870	5	kummer	870	1	!	1200	1	blank2r.bmp	1330	0	0	0
020118	13:35:30	1	9	5.0.10.0	d070_A12_A2_pleasB	dA12_valB_070	3	26	300	300	0	0	377	18	0	1	blank2r.bmp	0	1	+	0	1	B1r.bmp	500	1	blank2r.bmp	800	1	DHJF	800	1	blank2r.bmp	870	3	kuss	870	1	!	1200	1	blank2r.bmp	1330	0	0	0
020118	13:35:30	1	9	5.0.10.0	d070_A12_A2_pleasB	dA12_valB_070	3	27	300	300	0	0	213	18	0	1	blank2r.bmp	0	1	+	0	3	B3r.bmp	500	1	blank2r.bmp	800	1	DHJF	800	1	blank2r.bmp	870	5	begabt	870	1	!	1200	1	blank2r.bmp	1330	0	0	0
020118	13:35:30	1	9	5.0.10.0	d070_A12_A1_unplB	dA12_valB_070	3	28	300	300	0	0	294	18	1	1	blank2r.bmp	0	1	+	0	6	C2r.bmp	500	1	blank2r.bmp	800	1	NPLW	800	1	blank2r.bmp	870	4	böse	870	1	!	1200	1	blank2r.bmp	1330	0	0	0
020118	13:35:30	1	9	5.0.10.0	d070_A12_A1_unplB	dA12_valB_070	3	29	300	300	0	0	409	23	0	1	blank2r.bmp	0	1	+	0	2	B2r.bmp	500	1	blank2r.bmp	800	1	NPLW	800	1	blank2r.bmp	870	1	grausam	870	1	!	1200	1	blank2r.bmp	1330	0	0	0
020118	13:35:30	1	9	5.0.10.0	d070_A12_A1_pleasB	dA12_valB_070	3	30	300	300	0	0	469	18	1	1	blank2r.bmp	0	1	+	0	5	C1r.bmp	500	1	blank2r.bmp	800	1	NPLW	800	1	blank2r.bmp	870	6	kreativ	870	1	!	1200	1	blank2r.bmp	1330	0	0	0
020118	13:35:30	1	9	5.0.10.0	d070_A12_A1_unplB	dA12_valB_070	3	31	300	300	0	0	305	18	1	1	blank2r.bmp	0	1	+	0	4	B4r.bmp	500	1	blank2r.bmp	800	1	NPLW	800	1	blank2r.bmp	870	2	geizig	870	1	!	1200	1	blank2r.bmp	1330	0	0	0
020118	13:35:30	1	9	5.0.10.0	d070_A12_A2_unplB	dA12_valB_070	3	32	300	300	0	0	155	18	0	1	blank2r.bmp	0	1	+	0	7	C3r.bmp	500	1	blank2r.bmp	800	1	DHJF	800	1	blank2r.bmp	870	3	ärger	870	1	!	1200	1	blank2r.bmp	1330	0	0	0
020118	13:35:30	1	9	5.0.10.0	d070_A12_A1_pleasB	dA12_valB_070	3	33	300	300	0	0	105	18	1	1	blank2r.bmp	0	1	+	0	7	C3r.bmp	500	1	blank2r.bmp	800	1	NPLW	800	1	blank2r.bmp	870	4	treu	870	1	!	1200	1	blank2r.bmp	1330	0	0	0
020118	13:35:30	1	9	5.0.10.0	d070_A12_A2_unplB	dA12_valB_070	3	34	300	300	0	0	162	23	1	1	blank2r.bmp	0	1	+	0	2	B2r.bmp	500	1	blank2r.bmp	800	1	DHJF	800	1	blank2r.bmp	870	6	traurig	870	1	!	1200	1	blank2r.bmp	1330	0	0	0
020118	13:35:30	1	9	5.0.10.0	d070_A12_A2_pleasB	dA12_valB_070	3	35	300	300	0	0	359	23	1	1	blank2r.bmp	0	1	+	0	8	C4r.bmp	500	1	blank2r.bmp	800	1	DHJF	800	1	blank2r.bmp	870	2	mutig	870	1	!	1200	1	blank2r.bmp	1330	0	0	0
020118	13:35:30	1	9	5.0.10.0	d070_A12_A2_unplB	dA12_valB_070	3	36	300	300	0	0	241	23	1	1	blank2r.bmp	0	1	+	0	4	B4r.bmp	500	1	blank2r.bmp	800	1	DHJF	800	1	blank2r.bmp	870	6	traurig	870	1	!	1200	1	blank2r.bmp	1330	0	0	0
020118	13:35:30	1	9	5.0.10.0	d070_A12_A2_unplB	dA12_valB_070	3	37	300	300	0	0	108	23	1	1	blank2r.bmp	0	1	+	0	5	C1r.bmp	500	1	blank2r.bmp	800	1	DHJF	800	1	blank2r.bmp	870	5	kummer	870	1	!	1200	1	blank2r.bmp	1330	0	0	0
020118	13:35:30	1	9	5.0.10.0	d070_A12_A1_unplB	dA12_valB_070	3	38	300	300	0	0	58	23	0	1	blank2r.bmp	0	1	+	0	3	B3r.bmp	500	1	blank2r.bmp	800	1	NPLW	800	1	blank2r.bmp	870	3	ärger	870	1	!	1200	1	blank2r.bmp	1330	0	0	0
020118	13:35:30	1	9	5.0.10.0	d070_A12_A1_pleasB	dA12_valB_070	3	39	300	300	0	0	119	23	0	1	blank2r.bmp	0	1	+	0	6	C2r.bmp	500	1	blank2r.bmp	800	1	NPLW	800	1	blank2r.bmp	870	1	gut	870	1	!	1200	1	blank2r.bmp	1330	0	0	0
020118	13:35:30	1	9	5.0.10.0	d070_A12_A1_pleasB	dA12_valB_070	3	40	300	300	0	0	17	23	0	1	blank2r.bmp	0	1	+	0	1	B1r.bmp	500	1	blank2r.bmp	800	1	NPLW	800	1	blank2r.bmp	870	6	kreativ	870	1	!	1200	1	blank2r.bmp	1330	0	0	0
020118	13:35:30	1	9	5.0.10.0	d070_A12_A1_pleasB	dA12_valB_070	3	41	300	300	0	0	257	23	0	1	blank2r.bmp	0	1	+	0	6	C2r.bmp	500	1	blank2r.bmp	800	1	NPLW	800	1	blank2r.bmp	870	2	mutig	870	1	!	1200	1	blank2r.bmp	1330	0	0	0
020118	13:35:30	1	9	5.0.10.0	d070_A12_A2_unplB	dA12_valB_070	3	42	300	300	0	0	300	18	0	1	blank2r.bmp	0	1	+	0	5	C1r.bmp	500	1	blank2r.bmp	800	1	DHJF	800	1	blank2r.bmp	870	2	geizig	870	1	!	1200	1	blank2r.bmp	1330	0	0	0
020118	13:35:30	1	9	5.0.10.0	d070_A12_A2_pleasB	dA12_valB_070	3	43	300	300	0	0	397	23	1	1	blank2r.bmp	0	1	+	0	7	C3r.bmp	500	1	blank2r.bmp	800	1	DHJF	800	1	blank2r.bmp	870	3	kuss	870	1	!	1200	1	blank2r.bmp	1330	0	0	0
020118	13:35:30	1	9	5.0.10.0	d070_A12_A2_unplB	dA12_valB_070	3	44	300	300	0	0	199	18	0	1	blank2r.bmp	0	1	+	0	1	B1r.bmp	500	1	blank2r.bmp	800	1	DHJF	800	1	blank2r.bmp	870	4	böse	870	1	!	1200	1	blank2r.bmp	1330	0	0	0
020118	13:35:30	1	9	5.0.10.0	d070_A12_A1_pleasB	dA12_valB_070	3	45	300	300	0	0	263	23	0	1	blank2r.bmp	0	1	+	0	8	C4r.bmp	500	1	blank2r.bmp	800	1	NPLW	800	1	blank2r.bmp	870	4	treu	870	1	!	1200	1	blank2r.bmp	1330	0	0	0
020118	13:35:30	1	9	5.0.10.0	d070_A12_A1_pleasB	dA12_valB_070	3	46	300	300	0	0	267	23	0	1	blank2r.bmp	0	1	+	0	3	B3r.bmp	500	1	blank2r.bmp	800	1	NPLW	800	1	blank2r.bmp	870	1	gut	870	1	!	1200	1	blank2r.bmp	1330	0	0	0
020118	13:35:30	1	9	5.0.10.0	d070_A12_A2_pleasB	dA12_valB_070	3	47	300	300	0	0	157	23	1	1	blank2r.bmp	0	1	+	0	2	B2r.bmp	500	1	blank2r.bmp	800	1	DHJF	800	1	blank2r.bmp	870	5	begabt	870	1	!	1200	1	blank2r.bmp	1330	0	0	0
020118	13:35:30	1	9	5.0.10.0	d070_A12_A2_unplB	dA12_valB_070	3	48	300	300	0	0	414	18	0	1	blank2r.bmp	0	1	+	0	4	B4r.bmp	500	1	blank2r.bmp	800	1	DHJF	800	1	blank2r.bmp	870	1	grausam	870	1	!	1200	1	blank2r.bmp	1330	0	0	0
020118	13:35:30	1	9	5.0.10.0	d070_A12_A2_unplB	dA12_valB_070	4	1	300	300	0	0	157	18	0	1	blank2r.bmp	0	1	+	0	5	C1r.bmp	500	1	blank2r.bmp	800	1	DHJF	800	1	blank2r.bmp	870	5	kummer	870	1	!	1200	1	blank2r.bmp	1330	0	0	0
020118	13:35:30	1	9	5.0.10.0	d070_A12_A2_unplB	dA12_valB_070	4	2	300	300	0	0	585	23	1	1	blank2r.bmp	0	1	+	0	3	B3r.bmp	500	1	blank2r.bmp	800	1	DHJF	800	1	blank2r.bmp	870	3	ärger	870	1	!	1200	1	blank2r.bmp	1330	0	0	0
020118	13:35:30	1	9	5.0.10.0	d070_A12_A2_pleasB	dA12_valB_070	4	3	300	300	0	0	361	23	1	1	blank2r.bmp	0	1	+	0	6	C2r.bmp	500	1	blank2r.bmp	800	1	DHJF	800	1	blank2r.bmp	870	1	gut	870	1	!	1200	1	blank2r.bmp	1330	0	0	0
020118	13:35:30	1	9	5.0.10.0	d070_A12_A1_pleasB	dA12_valB_070	4	4	300	300	0	0	486	18	1	1	blank2r.bmp	0	1	+	0	7	C3r.bmp	500	1	blank2r.bmp	800	1	NPLW	800	1	blank2r.bmp	870	4	treu	870	1	!	1200	1	blank2r.bmp	1330	0	0	0
020118	13:35:30	1	9	5.0.10.0	d070_A12_A2_pleasB	dA12_valB_070	4	5	300	300	0	0	214	23	1	1	blank2r.bmp	0	1	+	0	2	B2r.bmp	500	1	blank2r.bmp	800	1	DHJF	800	1	blank2r.bmp	870	5	begabt	870	1	!	1200	1	blank2r.bmp	1330	0	0	0
020118	13:35:30	1	9	5.0.10.0	d070_A12_A1_pleasB	dA12_valB_070	4	6	300	300	0	0	18	18	1	1	blank2r.bmp	0	1	+	0	8	C4r.bmp	500	1	blank2r.bmp	800	1	NPLW	800	1	blank2r.bmp	870	2	mutig	870	1	!	1200	1	blank2r.bmp	1330	0	0	0
020118	13:35:30	1	9	5.0.10.0	d070_A12_A2_unplB	dA12_valB_070	4	7	300	300	0	0	240	18	0	1	blank2r.bmp	0	1	+	0	1	B1r.bmp	500	1	blank2r.bmp	800	1	DHJF	800	1	blank2r.bmp	870	6	traurig	870	1	!	1200	1	blank2r.bmp	1330	0	0	0
020118	13:35:30	1	9	5.0.10.0	d070_A12_A1_pleasB	dA12_valB_070	4	8	300	300	0	0	1619	23	0	1	blank2r.bmp	0	1	+	0	4	B4r.bmp	500	1	blank2r.bmp	800	1	NPLW	800	1	blank2r.bmp	870	6	kreativ	870	1	!	1200	1	blank2r.bmp	1330	0	0	0
020118	13:35:30	1	9	5.0.10.0	d070_A12_A1_unplB	dA12_valB_070	4	9	300	300	0	0	558	23	0	1	blank2r.bmp	0	1	+	0	5	C1r.bmp	500	1	blank2r.bmp	800	1	NPLW	800	1	blank2r.bmp	870	2	geizig	870	1	!	1200	1	blank2r.bmp	1330	0	0	0
020118	13:35:30	1	9	5.0.10.0	d070_A12_A1_unplB	dA12_valB_070	4	10	300	300	0	0	691	23	0	1	blank2r.bmp	0	1	+	0	8	C4r.bmp	500	1	blank2r.bmp	800	1	NPLW	800	1	blank2r.bmp	870	1	grausam	870	1	!	1200	1	blank2r.bmp	1330	0	0	0
020118	13:35:30	1	9	5.0.10.0	d070_A12_A2_unplB	dA12_valB_070	4	11	300	300	0	0	449	23	1	1	blank2r.bmp	0	1	+	0	7	C3r.bmp	500	1	blank2r.bmp	800	1	DHJF	800	1	blank2r.bmp	870	4	böse	870	1	!	1200	1	blank2r.bmp	1330	0	0	0
020118	13:35:30	1	9	5.0.10.0	d070_A12_A1_pleasB	dA12_valB_070	4	12	300	300	0	0	167	18	1	1	blank2r.bmp	0	1	+	0	4	B4r.bmp	500	1	blank2r.bmp	800	1	NPLW	800	1	blank2r.bmp	870	3	kuss	870	1	!	1200	1	blank2r.bmp	1330	0	0	0
020118	13:35:30	1	9	5.0.10.0	d070_A12_A2_pleasB	dA12_valB_070	4	13	300	300	0	0	580	23	1	1	blank2r.bmp	0	1	+	0	2	B2r.bmp	500	1	blank2r.bmp	800	1	DHJF	800	1	blank2r.bmp	870	5	begabt	870	1	!	1200	1	blank2r.bmp	1330	0	0	0
020118	13:35:30	1	9	5.0.10.0	d070_A12_A1_unplB	dA12_valB_070	4	14	300	300	0	0	528	23	0	1	blank2r.bmp	0	1	+	0	6	C2r.bmp	500	1	blank2r.bmp	800	1	NPLW	800	1	blank2r.bmp	870	3	ärger	870	1	!	1200	1	blank2r.bmp	1330	0	0	0
020118	13:35:30	1	9	5.0.10.0	d070_A12_A1_unplB	dA12_valB_070	4	15	300	300	0	0	528	18	1	1	blank2r.bmp	0	1	+	0	3	B3r.bmp	500	1	blank2r.bmp	800	1	NPLW	800	1	blank2r.bmp	870	1	grausam	870	1	!	1200	1	blank2r.bmp	1330	0	0	0
020118	13:35:30	1	9	5.0.10.0	d070_A12_A2_pleasB	dA12_valB_070	4	16	300	300	0	0	2638	23	1	1	blank2r.bmp	0	1	+	0	1	B1r.bmp	500	1	blank2r.bmp	800	1	DHJF	800	1	blank2r.bmp	870	6	kreativ	870	1	!	1200	1	blank2r.bmp	1330	0	0	0
020118	13:35:30	1	9	5.0.10.0	d070_A12_A1_pleasB	dA12_valB_070	4	17	300	300	0	0	962	18	1	1	blank2r.bmp	0	1	+	0	8	C4r.bmp	500	1	blank2r.bmp	800	1	NPLW	800	1	blank2r.bmp	870	1	gut	870	1	!	1200	1	blank2r.bmp	1330	0	0	0
020118	13:35:30	1	9	5.0.10.0	d070_A12_A2_unplB	dA12_valB_070	4	18	300	300	0	0	740	23	1	1	blank2r.bmp	0	1	+	0	2	B2r.bmp	500	1	blank2r.bmp	800	1	DHJF	800	1	blank2r.bmp	870	4	böse	870	1	!	1200	1	blank2r.bmp	1330	0	0	0
020118	13:35:30	1	9	5.0.10.0	d070_A12_A1_pleasB	dA12_valB_070	4	19	300	300	0	0	545	18	1	1	blank2r.bmp	0	1	+	0	3	B3r.bmp	500	1	blank2r.bmp	800	1	NPLW	800	1	blank2r.bmp	870	2	mutig	870	1	!	1200	1	blank2r.bmp	1330	0	0	0
020118	13:35:30	1	9	5.0.10.0	d070_A12_A1_unplB	dA12_valB_070	4	20	300	300	0	0	488	23	0	1	blank2r.bmp	0	1	+	0	4	B4r.bmp	500	1	blank2r.bmp	800	1	NPLW	800	1	blank2r.bmp	870	2	geizig	870	1	!	1200	1	blank2r.bmp	1330	0	0	0
020118	13:35:30	1	9	5.0.10.0	d070_A12_A2_pleasB	dA12_valB_070	4	21	300	300	0	0	482	18	0	1	blank2r.bmp	0	1	+	0	7	C3r.bmp	500	1	blank2r.bmp	800	1	DHJF	800	1	blank2r.bmp	870	3	kuss	870	1	!	1200	1	blank2r.bmp	1330	0	0	0
020118	13:35:30	1	9	5.0.10.0	d070_A12_A2_pleasB	dA12_valB_070	4	22	300	300	0	0	273	18	0	1	blank2r.bmp	0	1	+	0	5	C1r.bmp	500	1	blank2r.bmp	800	1	DHJF	800	1	blank2r.bmp	870	4	treu	870	1	!	1200	1	blank2r.bmp	1330	0	0	0
020118	13:35:30	1	9	5.0.10.0	d070_A12_A1_unplB	dA12_valB_070	4	23	300	300	0	0	342	23	0	1	blank2r.bmp	0	1	+	0	1	B1r.bmp	500	1	blank2r.bmp	800	1	NPLW	800	1	blank2r.bmp	870	6	traurig	870	1	!	1200	1	blank2r.bmp	1330	0	0	0
020118	13:35:30	1	9	5.0.10.0	d070_A12_A2_unplB	dA12_valB_070	4	24	300	300	0	0	379	18	0	1	blank2r.bmp	0	1	+	0	6	C2r.bmp	500	1	blank2r.bmp	800	1	DHJF	800	1	blank2r.bmp	870	5	kummer	870	1	!	1200	1	blank2r.bmp	1330	0	0	0
020118	13:35:30	1	9	5.0.10.0	d070_A12_A2_unplB	dA12_valB_070	4	25	300	300	0	0	190	18	0	1	blank2r.bmp	0	1	+	0	3	B3r.bmp	500	1	blank2r.bmp	800	1	DHJF	800	1	blank2r.bmp	870	3	ärger	870	1	!	1200	1	blank2r.bmp	1330	0	0	0
020118	13:35:30	1	9	5.0.10.0	d070_A12_A2_unplB	dA12_valB_070	4	26	300	300	0	0	215	18	0	1	blank2r.bmp	0	1	+	0	8	C4r.bmp	500	1	blank2r.bmp	800	1	DHJF	800	1	blank2r.bmp	870	2	geizig	870	1	!	1200	1	blank2r.bmp	1330	0	0	0
020118	13:35:30	1	9	5.0.10.0	d070_A12_A2_unplB	dA12_valB_070	4	27	300	300	0	0	423	23	1	1	blank2r.bmp	0	1	+	0	2	B2r.bmp	500	1	blank2r.bmp	800	1	DHJF	800	1	blank2r.bmp	870	1	grausam	870	1	!	1200	1	blank2r.bmp	1330	0	0	0
020118	13:35:30	1	9	5.0.10.0	d070_A12_A2_unplB	dA12_valB_070	4	28	300	300	0	0	478	23	1	1	blank2r.bmp	0	1	+	0	1	B1r.bmp	500	1	blank2r.bmp	800	1	DHJF	800	1	blank2r.bmp	870	5	kummer	870	1	!	1200	1	blank2r.bmp	1330	0	0	0
020118	13:35:30	1	9	5.0.10.0	d070_A12_A2_pleasB	dA12_valB_070	4	29	300	300	0	0	369	18	0	1	blank2r.bmp	0	1	+	0	7	C3r.bmp	500	1	blank2r.bmp	800	1	DHJF	800	1	blank2r.bmp	870	4	treu	870	1	!	1200	1	blank2r.bmp	1330	0	0	0
020118	13:35:30	1	9	5.0.10.0	d070_A12_A1_pleasB	dA12_valB_070	4	30	300	300	0	0	322	18	1	1	blank2r.bmp	0	1	+	0	5	C1r.bmp	500	1	blank2r.bmp	800	1	NPLW	800	1	blank2r.bmp	870	6	kreativ	870	1	!	1200	1	blank2r.bmp	1330	0	0	0
020118	13:35:30	1	9	5.0.10.0	d070_A12_A1_unplB	dA12_valB_070	4	31	300	300	0	0	394	23	0	1	blank2r.bmp	0	1	+	0	4	B4r.bmp	500	1	blank2r.bmp	800	1	NPLW	800	1	blank2r.bmp	870	4	böse	870	1	!	1200	1	blank2r.bmp	1330	0	0	0
020118	13:35:30	1	9	5.0.10.0	d070_A12_A1_pleasB	dA12_valB_070	4	32	300	300	0	0	388	18	1	1	blank2r.bmp	0	1	+	0	6	C2r.bmp	500	1	blank2r.bmp	800	1	NPLW	800	1	blank2r.bmp	870	5	begabt	870	1	!	1200	1	blank2r.bmp	1330	0	0	0
020118	13:35:30	1	9	5.0.10.0	d070_A12_A2_unplB	dA12_valB_070	4	33	300	300	0	0	191	18	0	1	blank2r.bmp	0	1	+	0	6	C2r.bmp	500	1	blank2r.bmp	800	1	DHJF	800	1	blank2r.bmp	870	6	traurig	870	1	!	1200	1	blank2r.bmp	1330	0	0	0
020118	13:35:30	1	9	5.0.10.0	d070_A12_A1_pleasB	dA12_valB_070	4	34	300	300	0	0	181	18	1	1	blank2r.bmp	0	1	+	0	8	C4r.bmp	500	1	blank2r.bmp	800	1	NPLW	800	1	blank2r.bmp	870	1	gut	870	1	!	1200	1	blank2r.bmp	1330	0	0	0
020118	13:35:30	1	9	5.0.10.0	d070_A12_A1_unplB	dA12_valB_070	4	35	300	300	0	0	307	23	0	1	blank2r.bmp	0	1	+	0	2	B2r.bmp	500	1	blank2r.bmp	800	1	NPLW	800	1	blank2r.bmp	870	4	böse	870	1	!	1200	1	blank2r.bmp	1330	0	0	0
020118	13:35:30	1	9	5.0.10.0	d070_A12_A1_pleasB	dA12_valB_070	4	36	300	300	0	0	292	18	1	1	blank2r.bmp	0	1	+	0	5	C1r.bmp	500	1	blank2r.bmp	800	1	NPLW	800	1	blank2r.bmp	870	3	kuss	870	1	!	1200	1	blank2r.bmp	1330	0	0	0
020118	13:35:30	1	9	5.0.10.0	d070_A12_A2_pleasB	dA12_valB_070	4	37	300	300	0	0	348	23	1	1	blank2r.bmp	0	1	+	0	4	B4r.bmp	500	1	blank2r.bmp	800	1	DHJF	800	1	blank2r.bmp	870	2	mutig	870	1	!	1200	1	blank2r.bmp	1330	0	0	0
020118	13:35:30	1	9	5.0.10.0	d070_A12_A1_unplB	dA12_valB_070	4	38	300	300	0	0	365	23	0	1	blank2r.bmp	0	1	+	0	1	B1r.bmp	500	1	blank2r.bmp	800	1	NPLW	800	1	blank2r.bmp	870	5	kummer	870	1	!	1200	1	blank2r.bmp	1330	0	0	0
020118	13:35:30	1	9	5.0.10.0	d070_A12_A1_unplB	dA12_valB_070	4	39	300	300	0	0	334	18	1	1	blank2r.bmp	0	1	+	0	7	C3r.bmp	500	1	blank2r.bmp	800	1	NPLW	800	1	blank2r.bmp	870	6	traurig	870	1	!	1200	1	blank2r.bmp	1330	0	0	0
020118	13:35:30	1	9	5.0.10.0	d070_A12_A1_unplB	dA12_valB_070	4	40	300	300	0	0	354	18	1	1	blank2r.bmp	0	1	+	0	3	B3r.bmp	500	1	blank2r.bmp	800	1	NPLW	800	1	blank2r.bmp	870	3	ärger	870	1	!	1200	1	blank2r.bmp	1330	0	0	0
020118	13:35:30	1	9	5.0.10.0	d070_A12_A2_pleasB	dA12_valB_070	4	41	300	300	0	0	336	18	0	1	blank2r.bmp	0	1	+	0	7	C3r.bmp	500	1	blank2r.bmp	800	1	DHJF	800	1	blank2r.bmp	870	3	kuss	870	1	!	1200	1	blank2r.bmp	1330	0	0	0
020118	13:35:30	1	9	5.0.10.0	d070_A12_A2_unplB	dA12_valB_070	4	42	300	300	0	0	449	23	1	1	blank2r.bmp	0	1	+	0	1	B1r.bmp	500	1	blank2r.bmp	800	1	DHJF	800	1	blank2r.bmp	870	2	geizig	870	1	!	1200	1	blank2r.bmp	1330	0	0	0
020118	13:35:30	1	9	5.0.10.0	d070_A12_A1_pleasB	dA12_valB_070	4	43	300	300	0	0	403	18	1	1	blank2r.bmp	0	1	+	0	3	B3r.bmp	500	1	blank2r.bmp	800	1	NPLW	800	1	blank2r.bmp	870	4	treu	870	1	!	1200	1	blank2r.bmp	1330	0	0	0
020118	13:35:30	1	9	5.0.10.0	d070_A12_A2_pleasB	dA12_valB_070	4	44	300	300	0	0	425	18	0	1	blank2r.bmp	0	1	+	0	6	C2r.bmp	500	1	blank2r.bmp	800	1	DHJF	800	1	blank2r.bmp	870	1	gut	870	1	!	1200	1	blank2r.bmp	1330	0	0	0
020118	13:35:30	1	9	5.0.10.0	d070_A12_A1_pleasB	dA12_valB_070	4	45	300	300	0	0	596	18	1	1	blank2r.bmp	0	1	+	0	5	C1r.bmp	500	1	blank2r.bmp	800	1	NPLW	800	1	blank2r.bmp	870	6	kreativ	870	1	!	1200	1	blank2r.bmp	1330	0	0	0
020118	13:35:30	1	9	5.0.10.0	d070_A12_A2_pleasB	dA12_valB_070	4	46	300	300	0	0	386	23	1	1	blank2r.bmp	0	1	+	0	8	C4r.bmp	500	1	blank2r.bmp	800	1	DHJF	800	1	blank2r.bmp	870	5	begabt	870	1	!	1200	1	blank2r.bmp	1330	0	0	0
020118	13:35:30	1	9	5.0.10.0	d070_A12_A1_unplB	dA12_valB_070	4	47	300	300	0	0	441	23	0	1	blank2r.bmp	0	1	+	0	2	B2r.bmp	500	1	blank2r.bmp	800	1	NPLW	800	1	blank2r.bmp	870	1	grausam	870	1	!	1200	1	blank2r.bmp	1330	0	0	0
020118	13:35:30	1	9	5.0.10.0	d070_A12_A2_pleasB	dA12_valB_070	4	48	300	300	0	0	192	18	0	1	blank2r.bmp	0	1	+	0	4	B4r.bmp	500	1	blank2r.bmp	800	1	DHJF	800	1	blank2r.bmp	870	2	mutig	870	1	!	1200	1	blank2r.bmp	1330	0	0	0
020118	13:35:30	1	9	5.0.10.0	dL_B12_B2_unplA	dB12_valA_pract1	6	1	300	300	0	0	347	18	0	1	blank2r.bmp	0	1	+	0	7	C3r.bmp	500	1	blank2r.bmp	700	1	GKQX	700	3	B3r.bmp	830	1	blank2r.bmp	870	4	elend	870	1	!	1200	1	blank2r.bmp	1330
020118	13:35:30	1	9	5.0.10.0	dL_B12_B1_pleasA	dB12_valA_pract1	6	2	300	300	0	0	348	18	1	1	blank2r.bmp	0	1	+	0	3	B3r.bmp	500	1	blank2r.bmp	700	1	BMVZ	700	5	C1r.bmp	830	1	blank2r.bmp	870	5	friedlich	870	1	!	1200	1	blank2r.bmp	1330
020118	13:35:30	1	9	5.0.10.0	dL_B12_B2_unplA	dB12_valA_pract1	6	3	300	300	0	0	351	23	1	1	blank2r.bmp	0	1	+	0	8	C4r.bmp	500	1	blank2r.bmp	700	1	GKQX	700	7	C3r.bmp	830	1	blank2r.bmp	870	2	neidisch	870	1	!	1200	1	blank2r.bmp	1330
020118	13:35:30	1	9	5.0.10.0	dL_B12_B1_unplA	dB12_valA_pract1	6	4	300	300	0	0	406	18	1	1	blank2r.bmp	0	1	+	0	1	B1r.bmp	500	1	blank2r.bmp	700	1	BMVZ	700	4	B4r.bmp	830	1	blank2r.bmp	870	1	unfair	870	1	!	1200	1	blank2r.bmp	1330
020118	13:35:30	1	9	5.0.10.0	dL_B12_B2_pleasA	dB12_valA_pract1	6	5	300	300	0	0	256	23	1	1	blank2r.bmp	0	1	+	0	2	B2r.bmp	500	1	blank2r.bmp	700	1	GKQX	700	6	C2r.bmp	830	1	blank2r.bmp	870	4	heiter	870	1	!	1200	1	blank2r.bmp	1330
020118	13:35:30	1	9	5.0.10.0	dL_B12_B2_pleasA	dB12_valA_pract1	6	6	300	300	0	0	238	18	0	1	blank2r.bmp	0	1	+	0	4	B4r.bmp	500	1	blank2r.bmp	700	1	GKQX	700	8	C4r.bmp	830	1	blank2r.bmp	870	2	schön	870	1	!	1200	1	blank2r.bmp	1330
020118	13:35:30	1	9	5.0.10.0	dL_B12_B1_pleasA	dB12_valA_pract1	6	7	300	300	0	0	283	18	1	1	blank2r.bmp	0	1	+	0	6	C2r.bmp	500	1	blank2r.bmp	700	1	BMVZ	700	1	B1r.bmp	830	1	blank2r.bmp	870	1	toll	870	1	!	1200	1	blank2r.bmp	1330
020118	13:35:30	1	9	5.0.10.0	dL_B12_B1_pleasA	dB12_valA_pract1	6	8	300	300	0	0	256	18	1	1	blank2r.bmp	0	1	+	0	5	C1r.bmp	500	1	blank2r.bmp	700	1	BMVZ	700	2	B2r.bmp	830	1	blank2r.bmp	870	3	freund	870	1	!	1200	1	blank2r.bmp	1330
020118	13:35:30	1	9	5.0.10.0	dL_B12_B2_pleasA	dB12_valA_pract1	6	9	300	300	0	0	194	23	1	1	blank2r.bmp	0	1	+	0	5	C1r.bmp	500	1	blank2r.bmp	700	1	GKQX	700	8	C4r.bmp	830	1	blank2r.bmp	870	6	froh	870	1	!	1200	1	blank2r.bmp	1330
020118	13:35:30	1	9	5.0.10.0	dL_B12_B1_unplA	dB12_valA_pract1	6	10	300	300	0	0	299	18	1	1	blank2r.bmp	0	1	+	0	1	B1r.bmp	500	1	blank2r.bmp	700	1	BMVZ	700	2	B2r.bmp	830	1	blank2r.bmp	870	3	töten	870	1	!	1200	1	blank2r.bmp	1330
020118	13:35:30	1	9	5.0.10.0	dL_B12_B2_unplA	dB12_valA_pract1	6	11	300	300	0	0	87	23	1	1	blank2r.bmp	0	1	+	0	4	B4r.bmp	500	1	blank2r.bmp	700	1	GKQX	700	1	B1r.bmp	830	1	blank2r.bmp	870	5	schlecht	870	1	!	1200	1	blank2r.bmp	1330
020118	13:35:30	1	9	5.0.10.0	dL_B12_B1_unplA	dB12_valA_pract1	6	12	300	300	0	0	300	18	1	1	blank2r.bmp	0	1	+	0	8	C4r.bmp	500	1	blank2r.bmp	700	1	BMVZ	700	3	B3r.bmp	830	1	blank2r.bmp	870	6	leiden	870	1	!	1200	1	blank2r.bmp	1330
020118	13:35:30	1	9	5.0.10.0	dM_B12_B2_pleasA	dB12_valA_pract2	7	1	300	300	0	0	319	23	1	1	blank2r.bmp	0	1	+	0	6	C2r.bmp	500	1	blank2r.bmp	730	1	GKQX	730	7	C3r.bmp	830	1	blank2r.bmp	870	2	schön	870	1	!	1200	1	blank2r.bmp	1330
020118	13:35:30	1	9	5.0.10.0	dM_B12_B2_pleasA	dB12_valA_pract2	7	2	300	300	0	0	440	23	1	1	blank2r.bmp	0	1	+	0	7	C3r.bmp	500	1	blank2r.bmp	730	1	GKQX	730	5	C1r.bmp	830	1	blank2r.bmp	870	4	heiter	870	1	!	1200	1	blank2r.bmp	1330
020118	13:35:30	1	9	5.0.10.0	dM_B12_B1_pleasA	dB12_valA_pract2	7	3	300	300	0	0	288	18	1	1	blank2r.bmp	0	1	+	0	3	B3r.bmp	500	1	blank2r.bmp	730	1	BMVZ	730	4	B4r.bmp	830	1	blank2r.bmp	870	5	friedlich	870	1	!	1200	1	blank2r.bmp	1330
020118	13:35:30	1	9	5.0.10.0	dM_B12_B1_unplA	dB12_valA_pract2	7	4	300	300	0	0	485	18	1	1	blank2r.bmp	0	1	+	0	2	B2r.bmp	500	1	blank2r.bmp	730	1	BMVZ	730	6	C2r.bmp	830	1	blank2r.bmp	870	1	unfair	870	1	!	1200	1	blank2r.bmp	1330
020118	13:35:30	1	9	5.0.10.0	dM_B12_B1_pleasA	dB12_valA_pract2	7	5	300	300	0	0	329	18	1	1	blank2r.bmp	0	1	+	0	7	C3r.bmp	500	1	blank2r.bmp	730	1	BMVZ	730	5	C1r.bmp	830	1	blank2r.bmp	870	3	freund	870	1	!	1200	1	blank2r.bmp	1330
020118	13:35:30	1	9	5.0.10.0	dM_B12_B1_pleasA	dB12_valA_pract2	7	6	300	300	0	0	241	18	1	1	blank2r.bmp	0	1	+	0	2	B2r.bmp	500	1	blank2r.bmp	730	1	BMVZ	730	3	B3r.bmp	830	1	blank2r.bmp	870	1	toll	870	1	!	1200	1	blank2r.bmp	1330
020118	13:35:30	1	9	5.0.10.0	dM_B12_B1_unplA	dB12_valA_pract2	7	7	300	300	0	0	314	18	1	1	blank2r.bmp	0	1	+	0	8	C4r.bmp	500	1	blank2r.bmp	730	1	BMVZ	730	1	B1r.bmp	830	1	blank2r.bmp	870	3	töten	870	1	!	1200	1	blank2r.bmp	1330
020118	13:35:30	1	9	5.0.10.0	dM_B12_B2_unplA	dB12_valA_pract2	7	8	300	300	0	0	165	23	1	1	blank2r.bmp	0	1	+	0	3	B3r.bmp	500	1	blank2r.bmp	730	1	GKQX	730	2	B2r.bmp	830	1	blank2r.bmp	870	2	neidisch	870	1	!	1200	1	blank2r.bmp	1330
020118	13:35:30	1	9	5.0.10.0	dM_B12_B2_unplA	dB12_valA_pract2	7	9	300	300	0	0	290	18	0	1	blank2r.bmp	0	1	+	0	5	C1r.bmp	500	1	blank2r.bmp	730	1	GKQX	730	4	B4r.bmp	830	1	blank2r.bmp	870	4	elend	870	1	!	1200	1	blank2r.bmp	1330
020118	13:35:30	1	9	5.0.10.0	dM_B12_B2_unplA	dB12_valA_pract2	7	10	300	300	0	0	118	18	0	1	blank2r.bmp	0	1	+	0	6	C2r.bmp	500	1	blank2r.bmp	730	1	GKQX	730	8	C4r.bmp	830	1	blank2r.bmp	870	6	leiden	870	1	!	1200	1	blank2r.bmp	1330
020118	13:35:30	1	9	5.0.10.0	dM_B12_B1_unplA	dB12_valA_pract2	7	11	300	300	0	0	219	18	1	1	blank2r.bmp	0	1	+	0	4	B4r.bmp	500	1	blank2r.bmp	730	1	BMVZ	730	6	C2r.bmp	830	1	blank2r.bmp	870	5	schlecht	870	1	!	1200	1	blank2r.bmp	1330
020118	13:35:30	1	9	5.0.10.0	dM_B12_B2_pleasA	dB12_valA_pract2	7	12	300	300	0	0	269	23	1	1	blank2r.bmp	0	1	+	0	1	B1r.bmp	500	1	blank2r.bmp	730	1	GKQX	730	7	C3r.bmp	830	1	blank2r.bmp	870	6	froh	870	1	!	1200	1	blank2r.bmp	1330
020118	13:35:30	1	9	5.0.10.0	d080_B12_B2_pleasA	dB12_valA_080	8	1	300	300	0	0	298	18	0	1	blank2r.bmp	0	1	+	0	5	C1r.bmp	500	1	blank2r.bmp	800	1	GKQX	800	1	blank2r.bmp	880	4	heiter	880	1	!	1210	1	blank2r.bmp	1340	0	0	0
020118	13:35:30	1	9	5.0.10.0	d080_B12_B2_pleasA	dB12_valA_080	8	2	300	300	0	0	548	23	1	1	blank2r.bmp	0	1	+	0	1	B1r.bmp	500	1	blank2r.bmp	800	1	GKQX	800	1	blank2r.bmp	880	5	friedlich	880	1	!	1210	1	blank2r.bmp	1340	0	0	0
020118	13:35:30	1	9	5.0.10.0	d080_B12_B2_unplA	dB12_valA_080	8	3	300	300	0	0	422	18	0	1	blank2r.bmp	0	1	+	0	6	C2r.bmp	500	1	blank2r.bmp	800	1	GKQX	800	1	blank2r.bmp	880	1	unfair	880	1	!	1210	1	blank2r.bmp	1340	0	0	0
020118	13:35:30	1	9	5.0.10.0	d080_B12_B1_unplA	dB12_valA_080	8	4	300	300	0	0	324	18	1	1	blank2r.bmp	0	1	+	0	8	C4r.bmp	500	1	blank2r.bmp	800	1	BMVZ	800	1	blank2r.bmp	880	5	schlecht	880	1	!	1210	1	blank2r.bmp	1340	0	0	0
020118	13:35:30	1	9	5.0.10.0	d080_B12_B1_pleasA	dB12_valA_080	8	5	300	300	0	0	305	18	1	1	blank2r.bmp	0	1	+	0	2	B2r.bmp	500	1	blank2r.bmp	800	1	BMVZ	800	1	blank2r.bmp	880	3	freund	880	1	!	1210	1	blank2r.bmp	1340	0	0	0
020118	13:35:30	1	9	5.0.10.0	d080_B12_B2_pleasA	dB12_valA_080	8	6	300	300	0	0	320	18	0	1	blank2r.bmp	0	1	+	0	4	B4r.bmp	500	1	blank2r.bmp	800	1	GKQX	800	1	blank2r.bmp	880	2	schön	880	1	!	1210	1	blank2r.bmp	1340	0	0	0
020118	13:35:30	1	9	5.0.10.0	d080_B12_B1_pleasA	dB12_valA_080	8	7	300	300	0	0	268	23	0	1	blank2r.bmp	0	1	+	0	7	C3r.bmp	500	1	blank2r.bmp	800	1	BMVZ	800	1	blank2r.bmp	880	1	toll	880	1	!	1210	1	blank2r.bmp	1340	0	0	0
020118	13:35:30	1	9	5.0.10.0	d080_B12_B2_pleasA	dB12_valA_080	8	8	300	300	0	0	179	18	0	1	blank2r.bmp	0	1	+	0	3	B3r.bmp	500	1	blank2r.bmp	800	1	GKQX	800	1	blank2r.bmp	880	6	froh	880	1	!	1210	1	blank2r.bmp	1340	0	0	0
020118	13:35:30	1	9	5.0.10.0	d080_B12_B1_unplA	dB12_valA_080	8	9	300	300	0	0	417	18	1	1	blank2r.bmp	0	1	+	0	5	C1r.bmp	500	1	blank2r.bmp	800	1	BMVZ	800	1	blank2r.bmp	880	4	elend	880	1	!	1210	1	blank2r.bmp	1340	0	0	0
020118	13:35:30	1	9	5.0.10.0	d080_B12_B1_unplA	dB12_valA_080	8	10	300	300	0	0	90	23	0	1	blank2r.bmp	0	1	+	0	4	B4r.bmp	500	1	blank2r.bmp	800	1	BMVZ	800	1	blank2r.bmp	880	2	neidisch	880	1	!	1210	1	blank2r.bmp	1340	0	0	0
020118	13:35:30	1	9	5.0.10.0	d080_B12_B1_unplA	dB12_valA_080	8	11	300	300	0	0	3126	23	0	1	blank2r.bmp	0	1	+	0	1	B1r.bmp	500	1	blank2r.bmp	800	1	BMVZ	800	1	blank2r.bmp	880	3	töten	880	1	!	1210	1	blank2r.bmp	1340	0	0	0
020118	13:35:30	1	9	5.0.10.0	d080_B12_B1_pleasA	dB12_valA_080	8	12	300	300	0	0	400	18	1	1	blank2r.bmp	0	1	+	0	3	B3r.bmp	500	1	blank2r.bmp	800	1	BMVZ	800	1	blank2r.bmp	880	1	toll	880	1	!	1210	1	blank2r.bmp	1340	0	0	0
020118	13:35:30	1	9	5.0.10.0	d080_B12_B1_pleasA	dB12_valA_080	8	13	300	300	0	0	235	18	1	1	blank2r.bmp	0	1	+	0	8	C4r.bmp	500	1	blank2r.bmp	800	1	BMVZ	800	1	blank2r.bmp	880	5	friedlich	880	1	!	1210	1	blank2r.bmp	1340	0	0	0
020118	13:35:30	1	9	5.0.10.0	d080_B12_B2_pleasA	dB12_valA_080	8	14	300	300	0	0	226	23	1	1	blank2r.bmp	0	1	+	0	6	C2r.bmp	500	1	blank2r.bmp	800	1	GKQX	800	1	blank2r.bmp	880	2	schön	880	1	!	1210	1	blank2r.bmp	1340	0	0	0
020118	13:35:30	1	9	5.0.10.0	d080_B12_B1_pleasA	dB12_valA_080	8	15	300	300	0	0	158	18	1	1	blank2r.bmp	0	1	+	0	2	B2r.bmp	500	1	blank2r.bmp	800	1	BMVZ	800	1	blank2r.bmp	880	6	froh	880	1	!	1210	1	blank2r.bmp	1340	0	0	0
020118	13:35:30	1	9	5.0.10.0	d080_B12_B2_unplA	dB12_valA_080	8	16	300	300	0	0	60	23	1	1	blank2r.bmp	0	1	+	0	7	C3r.bmp	500	1	blank2r.bmp	800	1	GKQX	800	1	blank2r.bmp	880	6	leiden	880	1	!	1210	1	blank2r.bmp	1340	0	0	0
020118	13:35:30	1	9	5.0.10.0	d080_B12_B1_pleasA	dB12_valA_080	8	17	300	300	0	0	54	18	1	1	blank2r.bmp	0	1	+	0	3	B3r.bmp	500	1	blank2r.bmp	800	1	BMVZ	800	1	blank2r.bmp	880	3	freund	880	1	!	1210	1	blank2r.bmp	1340	0	0	0
020118	13:35:30	1	9	5.0.10.0	d080_B12_B1_unplA	dB12_valA_080	8	18	300	300	0	0	50	18	1	1	blank2r.bmp	0	1	+	0	8	C4r.bmp	500	1	blank2r.bmp	800	1	BMVZ	800	1	blank2r.bmp	880	1	unfair	880	1	!	1210	1	blank2r.bmp	1340	0	0	0
020118	13:35:30	1	9	5.0.10.0	d080_B12_B2_unplA	dB12_valA_080	8	19	300	300	0	0	89	23	1	1	blank2r.bmp	0	1	+	0	2	B2r.bmp	500	1	blank2r.bmp	800	1	GKQX	800	1	blank2r.bmp	880	5	schlecht	880	1	!	1210	1	blank2r.bmp	1340	0	0	0
020118	13:35:30	1	9	5.0.10.0	d080_B12_B1_unplA	dB12_valA_080	8	20	300	300	0	0	151	18	1	1	blank2r.bmp	0	1	+	0	5	C1r.bmp	500	1	blank2r.bmp	800	1	BMVZ	800	1	blank2r.bmp	880	6	leiden	880	1	!	1210	1	blank2r.bmp	1340	0	0	0
020118	13:35:30	1	9	5.0.10.0	d080_B12_B1_pleasA	dB12_valA_080	8	21	300	300	0	0	1994	23	0	1	blank2r.bmp	0	1	+	0	7	C3r.bmp	500	1	blank2r.bmp	800	1	BMVZ	800	1	blank2r.bmp	880	4	heiter	880	1	!	1210	1	blank2r.bmp	1340	0	0	0
020118	13:35:30	1	9	5.0.10.0	d080_B12_B1_pleasA	dB12_valA_080	8	22	300	300	0	0	247	18	1	1	blank2r.bmp	0	1	+	0	4	B4r.bmp	500	1	blank2r.bmp	800	1	BMVZ	800	1	blank2r.bmp	880	2	schön	880	1	!	1210	1	blank2r.bmp	1340	0	0	0
020118	13:35:30	1	9	5.0.10.0	d080_B12_B2_unplA	dB12_valA_080	8	23	300	300	0	0	335	18	0	1	blank2r.bmp	0	1	+	0	1	B1r.bmp	500	1	blank2r.bmp	800	1	GKQX	800	1	blank2r.bmp	880	2	neidisch	880	1	!	1210	1	blank2r.bmp	1340	0	0	0
020118	13:35:30	1	9	5.0.10.0	d080_B12_B2_pleasA	dB12_valA_080	8	24	300	300	0	0	353	23	1	1	blank2r.bmp	0	1	+	0	6	C2r.bmp	500	1	blank2r.bmp	800	1	GKQX	800	1	blank2r.bmp	880	6	froh	880	1	!	1210	1	blank2r.bmp	1340	0	0	0
020118	13:35:30	1	9	5.0.10.0	d080_B12_B2_pleasA	dB12_valA_080	8	25	300	300	0	0	12	18	0	1	blank2r.bmp	0	1	+	0	7	C3r.bmp	500	1	blank2r.bmp	800	1	GKQX	800	1	blank2r.bmp	880	5	friedlich	880	1	!	1210	1	blank2r.bmp	1340	0	0	0
020118	13:35:30	1	9	5.0.10.0	d080_B12_B2_unplA	dB12_valA_080	8	26	300	300	0	0	74	23	1	1	blank2r.bmp	0	1	+	0	1	B1r.bmp	500	1	blank2r.bmp	800	1	GKQX	800	1	blank2r.bmp	880	3	töten	880	1	!	1210	1	blank2r.bmp	1340	0	0	0
020118	13:35:30	1	9	5.0.10.0	d080_B12_B2_pleasA	dB12_valA_080	8	27	300	300	0	0	57	18	0	1	blank2r.bmp	0	1	+	0	2	B2r.bmp	500	1	blank2r.bmp	800	1	GKQX	800	1	blank2r.bmp	880	1	toll	880	1	!	1210	1	blank2r.bmp	1340	0	0	0
020118	13:35:30	1	9	5.0.10.0	d080_B12_B2_unplA	dB12_valA_080	8	28	300	300	0	0	145	18	0	1	blank2r.bmp	0	1	+	0	6	C2r.bmp	500	1	blank2r.bmp	800	1	GKQX	800	1	blank2r.bmp	880	4	elend	880	1	!	1210	1	blank2r.bmp	1340	0	0	0
020118	13:35:30	1	9	5.0.10.0	d080_B12_B1_pleasA	dB12_valA_080	8	29	300	300	0	0	319	23	0	1	blank2r.bmp	0	1	+	0	8	C4r.bmp	500	1	blank2r.bmp	800	1	BMVZ	800	1	blank2r.bmp	880	3	freund	880	1	!	1210	1	blank2r.bmp	1340	0	0	0
020118	13:35:30	1	9	5.0.10.0	d080_B12_B1_unplA	dB12_valA_080	8	30	300	300	0	0	199	23	0	1	blank2r.bmp	0	1	+	0	3	B3r.bmp	500	1	blank2r.bmp	800	1	BMVZ	800	1	blank2r.bmp	880	1	unfair	880	1	!	1210	1	blank2r.bmp	1340	0	0	0
020118	13:35:30	1	9	5.0.10.0	d080_B12_B1_unplA	dB12_valA_080	8	31	300	300	0	0	136	23	0	1	blank2r.bmp	0	1	+	0	5	C1r.bmp	500	1	blank2r.bmp	800	1	BMVZ	800	1	blank2r.bmp	880	4	elend	880	1	!	1210	1	blank2r.bmp	1340	0	0	0
020118	13:35:30	1	9	5.0.10.0	d080_B12_B1_unplA	dB12_valA_080	8	32	300	300	0	0	71	23	0	1	blank2r.bmp	0	1	+	0	4	B4r.bmp	500	1	blank2r.bmp	800	1	BMVZ	800	1	blank2r.bmp	880	5	schlecht	880	1	!	1210	1	blank2r.bmp	1340	0	0	0
020118	13:35:30	1	9	5.0.10.0	d080_B12_B1_unplA	dB12_valA_080	8	33	300	300	0	0	68	18	1	1	blank2r.bmp	0	1	+	0	4	B4r.bmp	500	1	blank2r.bmp	800	1	BMVZ	800	1	blank2r.bmp	880	3	töten	880	1	!	1210	1	blank2r.bmp	1340	0	0	0
020118	13:35:30	1	9	5.0.10.0	d080_B12_B2_pleasA	dB12_valA_080	8	34	300	300	0	0	202	18	0	1	blank2r.bmp	0	1	+	0	7	C3r.bmp	500	1	blank2r.bmp	800	1	GKQX	800	1	blank2r.bmp	880	4	heiter	880	1	!	1210	1	blank2r.bmp	1340	0	0	0
020118	13:35:30	1	9	5.0.10.0	d080_B12_B2_unplA	dB12_valA_080	8	35	300	300	0	0	354	23	1	1	blank2r.bmp	0	1	+	0	5	C1r.bmp	500	1	blank2r.bmp	800	1	GKQX	800	1	blank2r.bmp	880	6	leiden	880	1	!	1210	1	blank2r.bmp	1340	0	0	0
020118	13:35:30	1	9	5.0.10.0	d080_B12_B2_unplA	dB12_valA_080	8	36	300	300	0	0	406	23	1	1	blank2r.bmp	0	1	+	0	3	B3r.bmp	500	1	blank2r.bmp	800	1	GKQX	800	1	blank2r.bmp	880	2	neidisch	880	1	!	1210	1	blank2r.bmp	1340	0	0	0
020118	13:35:30	1	9	5.0.10.0	d080_B12_B1_unplA	dB12_valA_080	8	37	300	300	0	0	207	23	0	1	blank2r.bmp	0	1	+	0	8	C4r.bmp	500	1	blank2r.bmp	800	1	BMVZ	800	1	blank2r.bmp	880	2	neidisch	880	1	!	1210	1	blank2r.bmp	1340	0	0	0
020118	13:35:30	1	9	5.0.10.0	d080_B12_B1_pleasA	dB12_valA_080	8	38	300	300	0	0	229	18	1	1	blank2r.bmp	0	1	+	0	2	B2r.bmp	500	1	blank2r.bmp	800	1	BMVZ	800	1	blank2r.bmp	880	1	toll	880	1	!	1210	1	blank2r.bmp	1340	0	0	0
020118	13:35:30	1	9	5.0.10.0	d080_B12_B2_pleasA	dB12_valA_080	8	39	300	300	0	0	159	18	0	1	blank2r.bmp	0	1	+	0	6	C2r.bmp	500	1	blank2r.bmp	800	1	GKQX	800	1	blank2r.bmp	880	3	freund	880	1	!	1210	1	blank2r.bmp	1340	0	0	0
020118	13:35:30	1	9	5.0.10.0	d080_B12_B2_unplA	dB12_valA_080	8	40	300	300	0	0	114	23	1	1	blank2r.bmp	0	1	+	0	1	B1r.bmp	500	1	blank2r.bmp	800	1	GKQX	800	1	blank2r.bmp	880	1	unfair	880	1	!	1210	1	blank2r.bmp	1340	0	0	0
020118	13:35:30	1	9	5.0.10.0	d080_B12_B2_unplA	dB12_valA_080	8	41	300	300	0	0	258	23	1	1	blank2r.bmp	0	1	+	0	1	B1r.bmp	500	1	blank2r.bmp	800	1	GKQX	800	1	blank2r.bmp	880	3	töten	880	1	!	1210	1	blank2r.bmp	1340	0	0	0
020118	13:35:30	1	9	5.0.10.0	d080_B12_B1_unplA	dB12_valA_080	8	42	300	300	0	0	57	18	1	1	blank2r.bmp	0	1	+	0	4	B4r.bmp	500	1	blank2r.bmp	800	1	BMVZ	800	1	blank2r.bmp	880	5	schlecht	880	1	!	1210	1	blank2r.bmp	1340	0	0	0
020118	13:35:30	1	9	5.0.10.0	d080_B12_B2_pleasA	dB12_valA_080	8	43	300	300	0	0	1210	18	0	1	blank2r.bmp	0	1	+	0	8	C4r.bmp	500	1	blank2r.bmp	800	1	GKQX	800	1	blank2r.bmp	880	6	froh	880	1	!	1210	1	blank2r.bmp	1340	0	0	0
020118	13:35:30	1	9	5.0.10.0	d080_B12_B2_pleasA	dB12_valA_080	8	44	300	300	0	0	576	18	0	1	blank2r.bmp	0	1	+	0	7	C3r.bmp	500	1	blank2r.bmp	800	1	GKQX	800	1	blank2r.bmp	880	4	heiter	880	1	!	1210	1	blank2r.bmp	1340	0	0	0
020118	13:35:30	1	9	5.0.10.0	d080_B12_B2_unplA	dB12_valA_080	8	45	300	300	0	0	165	23	1	1	blank2r.bmp	0	1	+	0	5	C1r.bmp	500	1	blank2r.bmp	800	1	GKQX	800	1	blank2r.bmp	880	6	leiden	880	1	!	1210	1	blank2r.bmp	1340	0	0	0
020118	13:35:30	1	9	5.0.10.0	d080_B12_B2_unplA	dB12_valA_080	8	46	300	300	0	0	272	23	1	1	blank2r.bmp	0	1	+	0	2	B2r.bmp	500	1	blank2r.bmp	800	1	GKQX	800	1	blank2r.bmp	880	4	elend	880	1	!	1210	1	blank2r.bmp	1340	0	0	0
020118	13:35:30	1	9	5.0.10.0	d080_B12_B1_pleasA	dB12_valA_080	8	47	300	300	0	0	179	18	1	1	blank2r.bmp	0	1	+	0	6	C2r.bmp	500	1	blank2r.bmp	800	1	BMVZ	800	1	blank2r.bmp	880	2	schön	880	1	!	1210	1	blank2r.bmp	1340	0	0	0
020118	13:35:30	1	9	5.0.10.0	d080_B12_B1_pleasA	dB12_valA_080	8	48	300	300	0	0	374	23	0	1	blank2r.bmp	0	1	+	0	3	B3r.bmp	500	1	blank2r.bmp	800	1	BMVZ	800	1	blank2r.bmp	880	5	friedlich	880	1	!	1210	1	blank2r.bmp	1340	0	0	0
020118	13:35:30	1	9	5.0.10.0	d080_B12_B2_unplA	dB12_valA_080	9	1	300	300	0	0	533	18	0	1	blank2r.bmp	0	1	+	0	1	B1r.bmp	500	1	blank2r.bmp	800	1	GKQX	800	1	blank2r.bmp	880	5	schlecht	880	1	!	1210	1	blank2r.bmp	1340	0	0	0
020118	13:35:30	1	9	5.0.10.0	d080_B12_B1_unplA	dB12_valA_080	9	2	300	300	0	0	47	18	1	1	blank2r.bmp	0	1	+	0	7	C3r.bmp	500	1	blank2r.bmp	800	1	BMVZ	800	1	blank2r.bmp	880	2	neidisch	880	1	!	1210	1	blank2r.bmp	1340	0	0	0
020118	13:35:30	1	9	5.0.10.0	d080_B12_B2_unplA	dB12_valA_080	9	3	300	300	0	0	1561	18	0	1	blank2r.bmp	0	1	+	0	8	C4r.bmp	500	1	blank2r.bmp	800	1	GKQX	800	1	blank2r.bmp	880	1	unfair	880	1	!	1210	1	blank2r.bmp	1340	0	0	0
020118	13:35:30	1	9	5.0.10.0	d080_B12_B2_unplA	dB12_valA_080	9	4	300	300	0	0	41	23	1	1	blank2r.bmp	0	1	+	0	2	B2r.bmp	500	1	blank2r.bmp	800	1	GKQX	800	1	blank2r.bmp	880	6	leiden	880	1	!	1210	1	blank2r.bmp	1340	0	0	0
020118	13:35:30	1	9	5.0.10.0	d080_B12_B2_unplA	dB12_valA_080	9	5	300	300	0	0	172	23	1	1	blank2r.bmp	0	1	+	0	5	C1r.bmp	500	1	blank2r.bmp	800	1	GKQX	800	1	blank2r.bmp	880	3	töten	880	1	!	1210	1	blank2r.bmp	1340	0	0	0
020118	13:35:30	1	9	5.0.10.0	d080_B12_B2_unplA	dB12_valA_080	9	6	300	300	0	0	513	23	1	1	blank2r.bmp	0	1	+	0	3	B3r.bmp	500	1	blank2r.bmp	800	1	GKQX	800	1	blank2r.bmp	880	4	elend	880	1	!	1210	1	blank2r.bmp	1340	0	0	0
020118	13:35:30	1	9	5.0.10.0	d080_B12_B1_pleasA	dB12_valA_080	9	7	300	300	0	0	425	18	1	1	blank2r.bmp	0	1	+	0	6	C2r.bmp	500	1	blank2r.bmp	800	1	BMVZ	800	1	blank2r.bmp	880	1	toll	880	1	!	1210	1	blank2r.bmp	1340	0	0	0
020118	13:35:30	1	9	5.0.10.0	d080_B12_B1_unplA	dB12_valA_080	9	8	300	300	0	0	153	18	1	1	blank2r.bmp	0	1	+	0	4	B4r.bmp	500	1	blank2r.bmp	800	1	BMVZ	800	1	blank2r.bmp	880	1	unfair	880	1	!	1210	1	blank2r.bmp	1340	0	0	0
020118	13:35:30	1	9	5.0.10.0	d080_B12_B2_pleasA	dB12_valA_080	9	9	300	300	0	0	189	18	0	1	blank2r.bmp	0	1	+	0	7	C3r.bmp	500	1	blank2r.bmp	800	1	GKQX	800	1	blank2r.bmp	880	6	froh	880	1	!	1210	1	blank2r.bmp	1340	0	0	0
020118	13:35:30	1	9	5.0.10.0	d080_B12_B2_pleasA	dB12_valA_080	9	10	300	300	0	0	34	18	0	1	blank2r.bmp	0	1	+	0	8	C4r.bmp	500	1	blank2r.bmp	800	1	GKQX	800	1	blank2r.bmp	880	2	schön	880	1	!	1210	1	blank2r.bmp	1340	0	0	0
020118	13:35:30	1	9	5.0.10.0	d080_B12_B2_pleasA	dB12_valA_080	9	11	300	300	0	0	38	18	0	1	blank2r.bmp	0	1	+	0	6	C2r.bmp	500	1	blank2r.bmp	800	1	GKQX	800	1	blank2r.bmp	880	5	friedlich	880	1	!	1210	1	blank2r.bmp	1340	0	0	0
020118	13:35:30	1	9	5.0.10.0	d080_B12_B2_unplA	dB12_valA_080	9	12	300	300	0	0	138	23	1	1	blank2r.bmp	0	1	+	0	1	B1r.bmp	500	1	blank2r.bmp	800	1	GKQX	800	1	blank2r.bmp	880	2	neidisch	880	1	!	1210	1	blank2r.bmp	1340	0	0	0
020118	13:35:30	1	9	5.0.10.0	d080_B12_B2_pleasA	dB12_valA_080	9	13	300	300	0	0	353	23	1	1	blank2r.bmp	0	1	+	0	3	B3r.bmp	500	1	blank2r.bmp	800	1	GKQX	800	1	blank2r.bmp	880	3	freund	880	1	!	1210	1	blank2r.bmp	1340	0	0	0
020118	13:35:30	1	9	5.0.10.0	d080_B12_B1_pleasA	dB12_valA_080	9	14	300	300	0	0	204	23	0	1	blank2r.bmp	0	1	+	0	5	C1r.bmp	500	1	blank2r.bmp	800	1	BMVZ	800	1	blank2r.bmp	880	4	heiter	880	1	!	1210	1	blank2r.bmp	1340	0	0	0
020118	13:35:30	1	9	5.0.10.0	d080_B12_B1_unplA	dB12_valA_080	9	15	300	300	0	0	256	18	1	1	blank2r.bmp	0	1	+	0	2	B2r.bmp	500	1	blank2r.bmp	800	1	BMVZ	800	1	blank2r.bmp	880	3	töten	880	1	!	1210	1	blank2r.bmp	1340	0	0	0
020118	13:35:30	1	9	5.0.10.0	d080_B12_B2_pleasA	dB12_valA_080	9	16	300	300	0	0	245	23	1	1	blank2r.bmp	0	1	+	0	4	B4r.bmp	500	1	blank2r.bmp	800	1	GKQX	800	1	blank2r.bmp	880	5	friedlich	880	1	!	1210	1	blank2r.bmp	1340	0	0	0
020118	13:35:30	1	9	5.0.10.0	d080_B12_B2_unplA	dB12_valA_080	9	17	300	300	0	0	435	23	1	1	blank2r.bmp	0	1	+	0	7	C3r.bmp	500	1	blank2r.bmp	800	1	GKQX	800	1	blank2r.bmp	880	6	leiden	880	1	!	1210	1	blank2r.bmp	1340	0	0	0
020118	13:35:30	1	9	5.0.10.0	d080_B12_B1_pleasA	dB12_valA_080	9	18	300	300	0	0	174	18	1	1	blank2r.bmp	0	1	+	0	2	B2r.bmp	500	1	blank2r.bmp	800	1	BMVZ	800	1	blank2r.bmp	880	2	schön	880	1	!	1210	1	blank2r.bmp	1340	0	0	0
020118	13:35:30	1	9	5.0.10.0	d080_B12_B1_pleasA	dB12_valA_080	9	19	300	300	0	0	18	23	0	1	blank2r.bmp	0	1	+	0	4	B4r.bmp	500	1	blank2r.bmp	800	1	BMVZ	800	1	blank2r.bmp	880	4	heiter	880	1	!	1210	1	blank2r.bmp	1340	0	0	0
020118	13:35:30	1	9	5.0.10.0	d080_B12_B1_unplA	dB12_valA_080	9	20	300	300	0	0	135	23	0	1	blank2r.bmp	0	1	+	0	6	C2r.bmp	500	1	blank2r.bmp	800	1	BMVZ	800	1	blank2r.bmp	880	5	schlecht	880	1	!	1210	1	blank2r.bmp	1340	0	0	0
020118	13:35:30	1	9	5.0.10.0	d080_B12_B1_unplA	dB12_valA_080	9	21	300	300	0	0	761	23	0	1	blank2r.bmp	0	1	+	0	3	B3r.bmp	500	1	blank2r.bmp	800	1	BMVZ	800	1	blank2r.bmp	880	4	elend	880	1	!	1210	1	blank2r.bmp	1340	0	0	0
020118	13:35:30	1	9	5.0.10.0	d080_B12_B1_unplA	dB12_valA_080	9	22	300	300	0	0	263	23	0	1	blank2r.bmp	0	1	+	0	1	B1r.bmp	500	1	blank2r.bmp	800	1	BMVZ	800	1	blank2r.bmp	880	5	schlecht	880	1	!	1210	1	blank2r.bmp	1340	0	0	0
020118	13:35:30	1	9	5.0.10.0	d080_B12_B1_pleasA	dB12_valA_080	9	23	300	300	0	0	140	18	1	1	blank2r.bmp	0	1	+	0	5	C1r.bmp	500	1	blank2r.bmp	800	1	BMVZ	800	1	blank2r.bmp	880	6	froh	880	1	!	1210	1	blank2r.bmp	1340	0	0	0
020118	13:35:30	1	9	5.0.10.0	d080_B12_B1_unplA	dB12_valA_080	9	24	300	300	0	0	261	18	1	1	blank2r.bmp	0	1	+	0	8	C4r.bmp	500	1	blank2r.bmp	800	1	BMVZ	800	1	blank2r.bmp	880	4	elend	880	1	!	1210	1	blank2r.bmp	1340	0	0	0
020118	13:35:30	1	9	5.0.10.0	d080_B12_B1_pleasA	dB12_valA_080	9	25	300	300	0	0	142	23	0	1	blank2r.bmp	0	1	+	0	2	B2r.bmp	500	1	blank2r.bmp	800	1	BMVZ	800	1	blank2r.bmp	880	3	freund	880	1	!	1210	1	blank2r.bmp	1340	0	0	0
020118	13:35:30	1	9	5.0.10.0	d080_B12_B2_unplA	dB12_valA_080	9	26	300	300	0	0	177	18	0	1	blank2r.bmp	0	1	+	0	6	C2r.bmp	500	1	blank2r.bmp	800	1	GKQX	800	1	blank2r.bmp	880	3	töten	880	1	!	1210	1	blank2r.bmp	1340	0	0	0
020118	13:35:30	1	9	5.0.10.0	d080_B12_B2_pleasA	dB12_valA_080	9	27	300	300	0	0	307	23	1	1	blank2r.bmp	0	1	+	0	1	B1r.bmp	500	1	blank2r.bmp	800	1	GKQX	800	1	blank2r.bmp	880	1	toll	880	1	!	1210	1	blank2r.bmp	1340	0	0	0
020118	13:35:30	1	9	5.0.10.0	d080_B12_B1_pleasA	dB12_valA_080	9	28	300	300	0	0	167	23	0	1	blank2r.bmp	0	1	+	0	7	C3r.bmp	500	1	blank2r.bmp	800	1	BMVZ	800	1	blank2r.bmp	880	1	toll	880	1	!	1210	1	blank2r.bmp	1340	0	0	0
020118	13:35:30	1	9	5.0.10.0	d080_B12_B1_pleasA	dB12_valA_080	9	29	300	300	0	0	199	23	0	1	blank2r.bmp	0	1	+	0	4	B4r.bmp	500	1	blank2r.bmp	800	1	BMVZ	800	1	blank2r.bmp	880	3	freund	880	1	!	1210	1	blank2r.bmp	1340	0	0	0
020118	13:35:30	1	9	5.0.10.0	d080_B12_B2_pleasA	dB12_valA_080	9	30	300	300	0	0	0	18	0	1	blank2r.bmp	0	1	+	0	3	B3r.bmp	500	1	blank2r.bmp	800	1	GKQX	800	1	blank2r.bmp	880	6	froh	880	1	!	1210	1	blank2r.bmp	1340	0	0	0
020118	13:35:30	1	9	5.0.10.0	d080_B12_B1_unplA	dB12_valA_080	9	31	300	300	0	0	99	23	0	1	blank2r.bmp	0	1	+	0	5	C1r.bmp	500	1	blank2r.bmp	800	1	BMVZ	800	1	blank2r.bmp	880	2	neidisch	880	1	!	1210	1	blank2r.bmp	1340	0	0	0
020118	13:35:30	1	9	5.0.10.0	d080_B12_B2_pleasA	dB12_valA_080	9	32	300	300	0	0	65	23	1	1	blank2r.bmp	0	1	+	0	8	C4r.bmp	500	1	blank2r.bmp	800	1	GKQX	800	1	blank2r.bmp	880	2	schön	880	1	!	1210	1	blank2r.bmp	1340	0	0	0
020118	13:35:30	1	9	5.0.10.0	d080_B12_B1_unplA	dB12_valA_080	9	33	300	300	0	0	164	18	1	1	blank2r.bmp	0	1	+	0	2	B2r.bmp	500	1	blank2r.bmp	800	1	BMVZ	800	1	blank2r.bmp	880	6	leiden	880	1	!	1210	1	blank2r.bmp	1340	0	0	0
020118	13:35:30	1	9	5.0.10.0	d080_B12_B1_pleasA	dB12_valA_080	9	34	300	300	0	0	158	18	1	1	blank2r.bmp	0	1	+	0	6	C2r.bmp	500	1	blank2r.bmp	800	1	BMVZ	800	1	blank2r.bmp	880	5	friedlich	880	1	!	1210	1	blank2r.bmp	1340	0	0	0
020118	13:35:30	1	9	5.0.10.0	d080_B12_B1_unplA	dB12_valA_080	9	35	300	300	0	0	148	18	1	1	blank2r.bmp	0	1	+	0	3	B3r.bmp	500	1	blank2r.bmp	800	1	BMVZ	800	1	blank2r.bmp	880	1	unfair	880	1	!	1210	1	blank2r.bmp	1340	0	0	0
020118	13:35:30	1	9	5.0.10.0	d080_B12_B2_unplA	dB12_valA_080	9	36	300	300	0	0	32	23	1	1	blank2r.bmp	0	1	+	0	7	C3r.bmp	500	1	blank2r.bmp	800	1	GKQX	800	1	blank2r.bmp	880	5	schlecht	880	1	!	1210	1	blank2r.bmp	1340	0	0	0
020118	13:35:30	1	9	5.0.10.0	d080_B12_B2_unplA	dB12_valA_080	9	37	300	300	0	0	190	18	0	1	blank2r.bmp	0	1	+	0	4	B4r.bmp	500	1	blank2r.bmp	800	1	GKQX	800	1	blank2r.bmp	880	1	unfair	880	1	!	1210	1	blank2r.bmp	1340	0	0	0
020118	13:35:30	1	9	5.0.10.0	d080_B12_B1_unplA	dB12_valA_080	9	38	300	300	0	0	258	23	0	1	blank2r.bmp	0	1	+	0	5	C1r.bmp	500	1	blank2r.bmp	800	1	BMVZ	800	1	blank2r.bmp	880	3	töten	880	1	!	1210	1	blank2r.bmp	1340	0	0	0
020118	13:35:30	1	9	5.0.10.0	d080_B12_B2_unplA	dB12_valA_080	9	39	300	300	0	0	265	18	0	1	blank2r.bmp	0	1	+	0	8	C4r.bmp	500	1	blank2r.bmp	800	1	GKQX	800	1	blank2r.bmp	880	6	leiden	880	1	!	1210	1	blank2r.bmp	1340	0	0	0
020118	13:35:30	1	9	5.0.10.0	d080_B12_B2_pleasA	dB12_valA_080	9	40	300	300	0	0	230	23	1	1	blank2r.bmp	0	1	+	0	1	B1r.bmp	500	1	blank2r.bmp	800	1	GKQX	800	1	blank2r.bmp	880	4	heiter	880	1	!	1210	1	blank2r.bmp	1340	0	0	0
020118	13:35:30	1	9	5.0.10.0	d080_B12_B1_pleasA	dB12_valA_080	9	41	300	300	0	0	1228	23	0	1	blank2r.bmp	0	1	+	0	2	B2r.bmp	500	1	blank2r.bmp	800	1	BMVZ	800	1	blank2r.bmp	880	4	heiter	880	1	!	1210	1	blank2r.bmp	1340	0	0	0
020118	13:35:30	1	9	5.0.10.0	d080_B12_B2_unplA	dB12_valA_080	9	42	300	300	0	0	252	23	1	1	blank2r.bmp	0	1	+	0	5	C1r.bmp	500	1	blank2r.bmp	800	1	GKQX	800	1	blank2r.bmp	880	4	elend	880	1	!	1210	1	blank2r.bmp	1340	0	0	0
020118	13:35:30	1	9	5.0.10.0	d080_B12_B2_pleasA	dB12_valA_080	9	43	300	300	0	0	203	18	0	1	blank2r.bmp	0	1	+	0	8	C4r.bmp	500	1	blank2r.bmp	800	1	GKQX	800	1	blank2r.bmp	880	2	schön	880	1	!	1210	1	blank2r.bmp	1340	0	0	0
020118	13:35:30	1	9	5.0.10.0	d080_B12_B1_pleasA	dB12_valA_080	9	44	300	300	0	0	1041	18	1	1	blank2r.bmp	0	1	+	0	4	B4r.bmp	500	1	blank2r.bmp	800	1	BMVZ	800	1	blank2r.bmp	880	5	friedlich	880	1	!	1210	1	blank2r.bmp	1340	0	0	0
020118	13:35:30	1	9	5.0.10.0	d080_B12_B2_pleasA	dB12_valA_080	9	45	300	300	0	0	498	23	1	1	blank2r.bmp	0	1	+	0	6	C2r.bmp	500	1	blank2r.bmp	800	1	GKQX	800	1	blank2r.bmp	880	1	toll	880	1	!	1210	1	blank2r.bmp	1340	0	0	0
020118	13:35:30	1	9	5.0.10.0	d080_B12_B2_pleasA	dB12_valA_080	9	46	300	300	0	0	143	18	0	1	blank2r.bmp	0	1	+	0	1	B1r.bmp	500	1	blank2r.bmp	800	1	GKQX	800	1	blank2r.bmp	880	3	freund	880	1	!	1210	1	blank2r.bmp	1340	0	0	0
020118	13:35:30	1	9	5.0.10.0	d080_B12_B1_pleasA	dB12_valA_080	9	47	300	300	0	0	246	23	0	1	blank2r.bmp	0	1	+	0	7	C3r.bmp	500	1	blank2r.bmp	800	1	BMVZ	800	1	blank2r.bmp	880	6	froh	880	1	!	1210	1	blank2r.bmp	1340	0	0	0
020118	13:35:30	1	9	5.0.10.0	d080_B12_B1_unplA	dB12_valA_080	9	48	300	300	0	0	718	23	0	1	blank2r.bmp	0	1	+	0	3	B3r.bmp	500	1	blank2r.bmp	800	1	BMVZ	800	1	blank2r.bmp	880	2	neidisch	880	1	!	1210	1	blank2r.bmp	1340	0	0	0
020118	13:35:30	1	9	5.0.10.0	endtrial	endblock	10	1	300	300	0	0	202247	21	0	0	0	0	0	0	0	0	0	0	0	0	0	0	0	0	0	0	0	0	0	0	0	0	0	0	0	0	0	0	0
