date	time	group	subject	build	trialcode	blockcode	blocknum	trialnum	pretrialpause	posttrialpause	trialduration	trialtimeout	latency	response	correct	stimulusnumber1	stimulusitem1	stimulusonset1	stimulusnumber2	stimulusitem2	stimulusonset2	stimulusnumber3	stimulusitem3	stimulusonset3	stimulusnumber4	stimulusitem4	stimulusonset4	stimulusnumber5	stimulusitem5	stimulusonset5	stimulusnumber6	stimulusitem6	stimulusonset6	stimulusnumber7	stimulusitem7	stimulusonset7	stimulusnumber8	stimulusitem8	stimulusonset8	stimulusnumber9	stimulusitem9	stimulusonset9	stimulusnumber10	stimulusitem10	stimulusonset10
020218	10:28:59	1	15	5.0.10.0	dL_B12_B1_pleasA	dB12_valA_pract1	1	1	300	300	0	0	997	18	1	1	blank2r.bmp	0	1	+	0	2	B2r.bmp	500	1	blank2r.bmp	700	1	BMVZ	700	6	C2r.bmp	830	1	blank2r.bmp	870	1	toll	870	1	!	1200	1	blank2r.bmp	1330
020218	10:28:59	1	15	5.0.10.0	dL_B12_B2_unplA	dB12_valA_pract1	1	2	300	300	0	0	253	23	1	1	blank2r.bmp	0	1	+	0	7	C3r.bmp	500	1	blank2r.bmp	700	1	GKQX	700	4	B4r.bmp	830	1	blank2r.bmp	870	5	schlecht	870	1	!	1200	1	blank2r.bmp	1330
020218	10:28:59	1	15	5.0.10.0	dL_B12_B2_pleasA	dB12_valA_pract1	1	3	300	300	0	0	104	23	1	1	blank2r.bmp	0	1	+	0	5	C1r.bmp	500	1	blank2r.bmp	700	1	GKQX	700	3	B3r.bmp	830	1	blank2r.bmp	870	2	schön	870	1	!	1200	1	blank2r.bmp	1330
020218	10:28:59	1	15	5.0.10.0	dL_B12_B2_unplA	dB12_valA_pract1	1	4	300	300	0	0	33843	23	1	1	blank2r.bmp	0	1	+	0	3	B3r.bmp	500	1	blank2r.bmp	700	1	GKQX	700	2	B2r.bmp	830	1	blank2r.bmp	870	1	unfair	870	1	!	1200	1	blank2r.bmp	1330
020218	10:28:59	1	15	5.0.10.0	dL_B12_B1_pleasA	dB12_valA_pract1	1	5	300	300	0	0	81	18	1	1	blank2r.bmp	0	1	+	0	8	C4r.bmp	500	1	blank2r.bmp	700	1	BMVZ	700	7	C3r.bmp	830	1	blank2r.bmp	870	6	froh	870	1	!	1200	1	blank2r.bmp	1330
020218	10:28:59	1	15	5.0.10.0	dL_B12_B1_unplA	dB12_valA_pract1	1	6	300	300	0	0	2046	18	1	1	blank2r.bmp	0	1	+	0	6	C2r.bmp	500	1	blank2r.bmp	700	1	BMVZ	700	8	C4r.bmp	830	1	blank2r.bmp	870	4	elend	870	1	!	1200	1	blank2r.bmp	1330
020218	10:28:59	1	15	5.0.10.0	dL_B12_B1_pleasA	dB12_valA_pract1	1	7	300	300	0	0	1629	18	1	1	blank2r.bmp	0	1	+	0	1	B1r.bmp	500	1	blank2r.bmp	700	1	BMVZ	700	5	C1r.bmp	830	1	blank2r.bmp	870	3	freund	870	1	!	1200	1	blank2r.bmp	1330
020218	10:28:59	1	15	5.0.10.0	dL_B12_B2_pleasA	dB12_valA_pract1	1	8	300	300	0	0	179	23	1	1	blank2r.bmp	0	1	+	0	4	B4r.bmp	500	1	blank2r.bmp	700	1	GKQX	700	1	B1r.bmp	830	1	blank2r.bmp	870	5	friedlich	870	1	!	1200	1	blank2r.bmp	1330
020218	10:28:59	1	15	5.0.10.0	dL_B12_B1_unplA	dB12_valA_pract1	1	9	300	300	0	0	145	18	1	1	blank2r.bmp	0	1	+	0	2	B2r.bmp	500	1	blank2r.bmp	700	1	BMVZ	700	4	B4r.bmp	830	1	blank2r.bmp	870	3	töten	870	1	!	1200	1	blank2r.bmp	1330
020218	10:28:59	1	15	5.0.10.0	dL_B12_B1_unplA	dB12_valA_pract1	1	10	300	300	0	0	73	18	1	1	blank2r.bmp	0	1	+	0	5	C1r.bmp	500	1	blank2r.bmp	700	1	BMVZ	700	6	C2r.bmp	830	1	blank2r.bmp	870	6	leiden	870	1	!	1200	1	blank2r.bmp	1330
020218	10:28:59	1	15	5.0.10.0	dL_B12_B2_unplA	dB12_valA_pract1	1	11	300	300	0	0	1125	23	1	1	blank2r.bmp	0	1	+	0	1	B1r.bmp	500	1	blank2r.bmp	700	1	GKQX	700	8	C4r.bmp	830	1	blank2r.bmp	870	2	neidisch	870	1	!	1200	1	blank2r.bmp	1330
020218	10:28:59	1	15	5.0.10.0	dL_B12_B2_pleasA	dB12_valA_pract1	1	12	300	300	0	0	192	23	1	1	blank2r.bmp	0	1	+	0	3	B3r.bmp	500	1	blank2r.bmp	700	1	GKQX	700	2	B2r.bmp	830	1	blank2r.bmp	870	4	heiter	870	1	!	1200	1	blank2r.bmp	1330
020218	10:28:59	1	15	5.0.10.0	dM_B12_B2_pleasA	dB12_valA_pract2	2	1	300	300	0	0	551	23	1	1	blank2r.bmp	0	1	+	0	6	C2r.bmp	500	1	blank2r.bmp	730	1	GKQX	730	1	B1r.bmp	830	1	blank2r.bmp	870	5	friedlich	870	1	!	1200	1	blank2r.bmp	1330
020218	10:28:59	1	15	5.0.10.0	dM_B12_B2_unplA	dB12_valA_pract2	2	2	300	300	0	0	309	23	1	1	blank2r.bmp	0	1	+	0	8	C4r.bmp	500	1	blank2r.bmp	730	1	GKQX	730	7	C3r.bmp	830	1	blank2r.bmp	870	5	schlecht	870	1	!	1200	1	blank2r.bmp	1330
020218	10:28:59	1	15	5.0.10.0	dM_B12_B2_unplA	dB12_valA_pract2	2	3	300	300	0	0	727	23	1	1	blank2r.bmp	0	1	+	0	4	B4r.bmp	500	1	blank2r.bmp	730	1	GKQX	730	5	C1r.bmp	830	1	blank2r.bmp	870	6	leiden	870	1	!	1200	1	blank2r.bmp	1330
020218	10:28:59	1	15	5.0.10.0	dM_B12_B2_pleasA	dB12_valA_pract2	2	4	300	300	0	0	196	23	1	1	blank2r.bmp	0	1	+	0	7	C3r.bmp	500	1	blank2r.bmp	730	1	GKQX	730	3	B3r.bmp	830	1	blank2r.bmp	870	1	toll	870	1	!	1200	1	blank2r.bmp	1330
020218	10:28:59	1	15	5.0.10.0	dM_B12_B1_pleasA	dB12_valA_pract2	2	5	300	300	0	0	703	18	1	1	blank2r.bmp	0	1	+	0	6	C2r.bmp	500	1	blank2r.bmp	730	1	BMVZ	730	2	B2r.bmp	830	1	blank2r.bmp	870	6	froh	870	1	!	1200	1	blank2r.bmp	1330
020218	10:28:59	1	15	5.0.10.0	dM_B12_B2_pleasA	dB12_valA_pract2	2	6	300	300	0	0	199	23	1	1	blank2r.bmp	0	1	+	0	7	C3r.bmp	500	1	blank2r.bmp	730	1	GKQX	730	1	B1r.bmp	830	1	blank2r.bmp	870	3	freund	870	1	!	1200	1	blank2r.bmp	1330
020218	10:28:59	1	15	5.0.10.0	dM_B12_B1_unplA	dB12_valA_pract2	2	7	300	300	0	0	145	18	1	1	blank2r.bmp	0	1	+	0	5	C1r.bmp	500	1	blank2r.bmp	730	1	BMVZ	730	6	C2r.bmp	830	1	blank2r.bmp	870	2	neidisch	870	1	!	1200	1	blank2r.bmp	1330
020218	10:28:59	1	15	5.0.10.0	dM_B12_B2_unplA	dB12_valA_pract2	2	8	300	300	0	0	95	23	1	1	blank2r.bmp	0	1	+	0	2	B2r.bmp	500	1	blank2r.bmp	730	1	GKQX	730	5	C1r.bmp	830	1	blank2r.bmp	870	1	unfair	870	1	!	1200	1	blank2r.bmp	1330
020218	10:28:59	1	15	5.0.10.0	dM_B12_B1_pleasA	dB12_valA_pract2	2	9	300	300	0	0	335	18	1	1	blank2r.bmp	0	1	+	0	1	B1r.bmp	500	1	blank2r.bmp	730	1	BMVZ	730	7	C3r.bmp	830	1	blank2r.bmp	870	4	heiter	870	1	!	1200	1	blank2r.bmp	1330
020218	10:28:59	1	15	5.0.10.0	dM_B12_B1_unplA	dB12_valA_pract2	2	10	300	300	0	0	133	18	1	1	blank2r.bmp	0	1	+	0	3	B3r.bmp	500	1	blank2r.bmp	730	1	BMVZ	730	4	B4r.bmp	830	1	blank2r.bmp	870	4	elend	870	1	!	1200	1	blank2r.bmp	1330
020218	10:28:59	1	15	5.0.10.0	dM_B12_B1_unplA	dB12_valA_pract2	2	11	300	300	0	0	9	18	1	1	blank2r.bmp	0	1	+	0	4	B4r.bmp	500	1	blank2r.bmp	730	1	BMVZ	730	8	C4r.bmp	830	1	blank2r.bmp	870	3	töten	870	1	!	1200	1	blank2r.bmp	1330
020218	10:28:59	1	15	5.0.10.0	dM_B12_B1_pleasA	dB12_valA_pract2	2	12	300	300	0	0	123	18	1	1	blank2r.bmp	0	1	+	0	8	C4r.bmp	500	1	blank2r.bmp	730	1	BMVZ	730	3	B3r.bmp	830	1	blank2r.bmp	870	2	schön	870	1	!	1200	1	blank2r.bmp	1330
020218	10:28:59	1	15	5.0.10.0	d070_B12_B1_pleasA	dB12_valA_070	3	1	300	300	0	0	400	18	1	1	blank2r.bmp	0	1	+	0	6	C2r.bmp	500	1	blank2r.bmp	800	1	BMVZ	800	1	blank2r.bmp	870	1	toll	870	1	!	1200	1	blank2r.bmp	1330	0	0	0
020218	10:28:59	1	15	5.0.10.0	d070_B12_B2_unplA	dB12_valA_070	3	2	300	300	0	0	329	18	0	1	blank2r.bmp	0	1	+	0	4	B4r.bmp	500	1	blank2r.bmp	800	1	GKQX	800	1	blank2r.bmp	870	1	unfair	870	1	!	1200	1	blank2r.bmp	1330	0	0	0
020218	10:28:59	1	15	5.0.10.0	d070_B12_B2_pleasA	dB12_valA_070	3	3	300	300	0	0	101	23	1	1	blank2r.bmp	0	1	+	0	8	C4r.bmp	500	1	blank2r.bmp	800	1	GKQX	800	1	blank2r.bmp	870	2	schön	870	1	!	1200	1	blank2r.bmp	1330	0	0	0
020218	10:28:59	1	15	5.0.10.0	d070_B12_B2_pleasA	dB12_valA_070	3	4	300	300	0	0	533	18	0	1	blank2r.bmp	0	1	+	0	7	C3r.bmp	500	1	blank2r.bmp	800	1	GKQX	800	1	blank2r.bmp	870	3	freund	870	1	!	1200	1	blank2r.bmp	1330	0	0	0
020218	10:28:59	1	15	5.0.10.0	d070_B12_B2_unplA	dB12_valA_070	3	5	300	300	0	0	158	23	1	1	blank2r.bmp	0	1	+	0	5	C1r.bmp	500	1	blank2r.bmp	800	1	GKQX	800	1	blank2r.bmp	870	4	elend	870	1	!	1200	1	blank2r.bmp	1330	0	0	0
020218	10:28:59	1	15	5.0.10.0	d070_B12_B1_pleasA	dB12_valA_070	3	6	300	300	0	0	174	18	1	1	blank2r.bmp	0	1	+	0	2	B2r.bmp	500	1	blank2r.bmp	800	1	BMVZ	800	1	blank2r.bmp	870	6	froh	870	1	!	1200	1	blank2r.bmp	1330	0	0	0
020218	10:28:59	1	15	5.0.10.0	d070_B12_B2_pleasA	dB12_valA_070	3	7	300	300	0	0	124	23	1	1	blank2r.bmp	0	1	+	0	1	B1r.bmp	500	1	blank2r.bmp	800	1	GKQX	800	1	blank2r.bmp	870	5	friedlich	870	1	!	1200	1	blank2r.bmp	1330	0	0	0
020218	10:28:59	1	15	5.0.10.0	d070_B12_B1_pleasA	dB12_valA_070	3	8	300	300	0	0	203	23	0	1	blank2r.bmp	0	1	+	0	3	B3r.bmp	500	1	blank2r.bmp	800	1	BMVZ	800	1	blank2r.bmp	870	4	heiter	870	1	!	1200	1	blank2r.bmp	1330	0	0	0
020218	10:28:59	1	15	5.0.10.0	d070_B12_B2_unplA	dB12_valA_070	3	9	300	300	0	0	85	18	0	1	blank2r.bmp	0	1	+	0	4	B4r.bmp	500	1	blank2r.bmp	800	1	GKQX	800	1	blank2r.bmp	870	6	leiden	870	1	!	1200	1	blank2r.bmp	1330	0	0	0
020218	10:28:59	1	15	5.0.10.0	d070_B12_B1_pleasA	dB12_valA_070	3	10	300	300	0	0	203	18	1	1	blank2r.bmp	0	1	+	0	1	B1r.bmp	500	1	blank2r.bmp	800	1	BMVZ	800	1	blank2r.bmp	870	1	toll	870	1	!	1200	1	blank2r.bmp	1330	0	0	0
020218	10:28:59	1	15	5.0.10.0	d070_B12_B2_pleasA	dB12_valA_070	3	11	300	300	0	0	114	23	1	1	blank2r.bmp	0	1	+	0	2	B2r.bmp	500	1	blank2r.bmp	800	1	GKQX	800	1	blank2r.bmp	870	3	freund	870	1	!	1200	1	blank2r.bmp	1330	0	0	0
020218	10:28:59	1	15	5.0.10.0	d070_B12_B2_unplA	dB12_valA_070	3	12	300	300	0	0	142	23	1	1	blank2r.bmp	0	1	+	0	5	C1r.bmp	500	1	blank2r.bmp	800	1	GKQX	800	1	blank2r.bmp	870	2	neidisch	870	1	!	1200	1	blank2r.bmp	1330	0	0	0
020218	10:28:59	1	15	5.0.10.0	d070_B12_B1_unplA	dB12_valA_070	3	13	300	300	0	0	188	18	1	1	blank2r.bmp	0	1	+	0	6	C2r.bmp	500	1	blank2r.bmp	800	1	BMVZ	800	1	blank2r.bmp	870	3	töten	870	1	!	1200	1	blank2r.bmp	1330	0	0	0
020218	10:28:59	1	15	5.0.10.0	d070_B12_B2_pleasA	dB12_valA_070	3	14	300	300	0	0	356	23	1	1	blank2r.bmp	0	1	+	0	7	C3r.bmp	500	1	blank2r.bmp	800	1	GKQX	800	1	blank2r.bmp	870	2	schön	870	1	!	1200	1	blank2r.bmp	1330	0	0	0
020218	10:28:59	1	15	5.0.10.0	d070_B12_B2_unplA	dB12_valA_070	3	15	300	300	0	0	157	23	1	1	blank2r.bmp	0	1	+	0	8	C4r.bmp	500	1	blank2r.bmp	800	1	GKQX	800	1	blank2r.bmp	870	5	schlecht	870	1	!	1200	1	blank2r.bmp	1330	0	0	0
020218	10:28:59	1	15	5.0.10.0	d070_B12_B1_pleasA	dB12_valA_070	3	16	300	300	0	0	1690	18	1	1	blank2r.bmp	0	1	+	0	3	B3r.bmp	500	1	blank2r.bmp	800	1	BMVZ	800	1	blank2r.bmp	870	4	heiter	870	1	!	1200	1	blank2r.bmp	1330	0	0	0
020218	10:28:59	1	15	5.0.10.0	d070_B12_B1_pleasA	dB12_valA_070	3	17	300	300	0	0	321	18	1	1	blank2r.bmp	0	1	+	0	6	C2r.bmp	500	1	blank2r.bmp	800	1	BMVZ	800	1	blank2r.bmp	870	5	friedlich	870	1	!	1200	1	blank2r.bmp	1330	0	0	0
020218	10:28:59	1	15	5.0.10.0	d070_B12_B2_unplA	dB12_valA_070	3	18	300	300	0	0	308	23	1	1	blank2r.bmp	0	1	+	0	8	C4r.bmp	500	1	blank2r.bmp	800	1	GKQX	800	1	blank2r.bmp	870	5	schlecht	870	1	!	1200	1	blank2r.bmp	1330	0	0	0
020218	10:28:59	1	15	5.0.10.0	d070_B12_B1_pleasA	dB12_valA_070	3	19	300	300	0	0	313	23	0	1	blank2r.bmp	0	1	+	0	5	C1r.bmp	500	1	blank2r.bmp	800	1	BMVZ	800	1	blank2r.bmp	870	6	froh	870	1	!	1200	1	blank2r.bmp	1330	0	0	0
020218	10:28:59	1	15	5.0.10.0	d070_B12_B2_unplA	dB12_valA_070	3	20	300	300	0	0	79	18	0	1	blank2r.bmp	0	1	+	0	1	B1r.bmp	500	1	blank2r.bmp	800	1	GKQX	800	1	blank2r.bmp	870	4	elend	870	1	!	1200	1	blank2r.bmp	1330	0	0	0
020218	10:28:59	1	15	5.0.10.0	d070_B12_B1_pleasA	dB12_valA_070	3	21	300	300	0	0	129	18	1	1	blank2r.bmp	0	1	+	0	4	B4r.bmp	500	1	blank2r.bmp	800	1	BMVZ	800	1	blank2r.bmp	870	6	froh	870	1	!	1200	1	blank2r.bmp	1330	0	0	0
020218	10:28:59	1	15	5.0.10.0	d070_B12_B1_unplA	dB12_valA_070	3	22	300	300	0	0	276	23	0	1	blank2r.bmp	0	1	+	0	3	B3r.bmp	500	1	blank2r.bmp	800	1	BMVZ	800	1	blank2r.bmp	870	1	unfair	870	1	!	1200	1	blank2r.bmp	1330	0	0	0
020218	10:28:59	1	15	5.0.10.0	d070_B12_B2_pleasA	dB12_valA_070	3	23	300	300	0	0	381	23	1	1	blank2r.bmp	0	1	+	0	7	C3r.bmp	500	1	blank2r.bmp	800	1	GKQX	800	1	blank2r.bmp	870	4	heiter	870	1	!	1200	1	blank2r.bmp	1330	0	0	0
020218	10:28:59	1	15	5.0.10.0	d070_B12_B2_pleasA	dB12_valA_070	3	24	300	300	0	0	373	18	0	1	blank2r.bmp	0	1	+	0	2	B2r.bmp	500	1	blank2r.bmp	800	1	GKQX	800	1	blank2r.bmp	870	3	freund	870	1	!	1200	1	blank2r.bmp	1330	0	0	0
020218	10:28:59	1	15	5.0.10.0	d070_B12_B1_pleasA	dB12_valA_070	3	25	300	300	0	0	256	18	1	1	blank2r.bmp	0	1	+	0	4	B4r.bmp	500	1	blank2r.bmp	800	1	BMVZ	800	1	blank2r.bmp	870	2	schön	870	1	!	1200	1	blank2r.bmp	1330	0	0	0
020218	10:28:59	1	15	5.0.10.0	d070_B12_B1_unplA	dB12_valA_070	3	26	300	300	0	0	214	23	0	1	blank2r.bmp	0	1	+	0	5	C1r.bmp	500	1	blank2r.bmp	800	1	BMVZ	800	1	blank2r.bmp	870	2	neidisch	870	1	!	1200	1	blank2r.bmp	1330	0	0	0
020218	10:28:59	1	15	5.0.10.0	d070_B12_B1_unplA	dB12_valA_070	3	27	300	300	0	0	107	18	1	1	blank2r.bmp	0	1	+	0	6	C2r.bmp	500	1	blank2r.bmp	800	1	BMVZ	800	1	blank2r.bmp	870	3	töten	870	1	!	1200	1	blank2r.bmp	1330	0	0	0
020218	10:28:59	1	15	5.0.10.0	d070_B12_B1_pleasA	dB12_valA_070	3	28	300	300	0	0	125	18	1	1	blank2r.bmp	0	1	+	0	3	B3r.bmp	500	1	blank2r.bmp	800	1	BMVZ	800	1	blank2r.bmp	870	5	friedlich	870	1	!	1200	1	blank2r.bmp	1330	0	0	0
020218	10:28:59	1	15	5.0.10.0	d070_B12_B1_unplA	dB12_valA_070	3	29	300	300	0	0	61	23	0	1	blank2r.bmp	0	1	+	0	8	C4r.bmp	500	1	blank2r.bmp	800	1	BMVZ	800	1	blank2r.bmp	870	6	leiden	870	1	!	1200	1	blank2r.bmp	1330	0	0	0
020218	10:28:59	1	15	5.0.10.0	d070_B12_B1_unplA	dB12_valA_070	3	30	300	300	0	0	1953	18	1	1	blank2r.bmp	0	1	+	0	7	C3r.bmp	500	1	blank2r.bmp	800	1	BMVZ	800	1	blank2r.bmp	870	6	leiden	870	1	!	1200	1	blank2r.bmp	1330	0	0	0
020218	10:28:59	1	15	5.0.10.0	d070_B12_B1_pleasA	dB12_valA_070	3	31	300	300	0	0	637	18	1	1	blank2r.bmp	0	1	+	0	1	B1r.bmp	500	1	blank2r.bmp	800	1	BMVZ	800	1	blank2r.bmp	870	1	toll	870	1	!	1200	1	blank2r.bmp	1330	0	0	0
020218	10:28:59	1	15	5.0.10.0	d070_B12_B2_pleasA	dB12_valA_070	3	32	300	300	0	0	205	23	1	1	blank2r.bmp	0	1	+	0	2	B2r.bmp	500	1	blank2r.bmp	800	1	GKQX	800	1	blank2r.bmp	870	2	schön	870	1	!	1200	1	blank2r.bmp	1330	0	0	0
020218	10:28:59	1	15	5.0.10.0	d070_B12_B1_unplA	dB12_valA_070	3	33	300	300	0	0	220	18	1	1	blank2r.bmp	0	1	+	0	1	B1r.bmp	500	1	blank2r.bmp	800	1	BMVZ	800	1	blank2r.bmp	870	4	elend	870	1	!	1200	1	blank2r.bmp	1330	0	0	0
020218	10:28:59	1	15	5.0.10.0	d070_B12_B2_unplA	dB12_valA_070	3	34	300	300	0	0	186	23	1	1	blank2r.bmp	0	1	+	0	7	C3r.bmp	500	1	blank2r.bmp	800	1	GKQX	800	1	blank2r.bmp	870	5	schlecht	870	1	!	1200	1	blank2r.bmp	1330	0	0	0
020218	10:28:59	1	15	5.0.10.0	d070_B12_B2_unplA	dB12_valA_070	3	35	300	300	0	0	194	23	1	1	blank2r.bmp	0	1	+	0	5	C1r.bmp	500	1	blank2r.bmp	800	1	GKQX	800	1	blank2r.bmp	870	3	töten	870	1	!	1200	1	blank2r.bmp	1330	0	0	0
020218	10:28:59	1	15	5.0.10.0	d070_B12_B2_pleasA	dB12_valA_070	3	36	300	300	0	0	456	23	1	1	blank2r.bmp	0	1	+	0	3	B3r.bmp	500	1	blank2r.bmp	800	1	GKQX	800	1	blank2r.bmp	870	4	heiter	870	1	!	1200	1	blank2r.bmp	1330	0	0	0
020218	10:28:59	1	15	5.0.10.0	d070_B12_B1_unplA	dB12_valA_070	3	37	300	300	0	0	542	18	1	1	blank2r.bmp	0	1	+	0	6	C2r.bmp	500	1	blank2r.bmp	800	1	BMVZ	800	1	blank2r.bmp	870	2	neidisch	870	1	!	1200	1	blank2r.bmp	1330	0	0	0
020218	10:28:59	1	15	5.0.10.0	d070_B12_B2_pleasA	dB12_valA_070	3	38	300	300	0	0	443	18	0	1	blank2r.bmp	0	1	+	0	4	B4r.bmp	500	1	blank2r.bmp	800	1	GKQX	800	1	blank2r.bmp	870	3	freund	870	1	!	1200	1	blank2r.bmp	1330	0	0	0
020218	10:28:59	1	15	5.0.10.0	d070_B12_B1_pleasA	dB12_valA_070	3	39	300	300	0	0	334	23	0	1	blank2r.bmp	0	1	+	0	2	B2r.bmp	500	1	blank2r.bmp	800	1	BMVZ	800	1	blank2r.bmp	870	6	froh	870	1	!	1200	1	blank2r.bmp	1330	0	0	0
020218	10:28:59	1	15	5.0.10.0	d070_B12_B2_pleasA	dB12_valA_070	3	40	300	300	0	0	129	23	1	1	blank2r.bmp	0	1	+	0	8	C4r.bmp	500	1	blank2r.bmp	800	1	GKQX	800	1	blank2r.bmp	870	5	friedlich	870	1	!	1200	1	blank2r.bmp	1330	0	0	0
020218	10:28:59	1	15	5.0.10.0	d070_B12_B2_unplA	dB12_valA_070	3	41	300	300	0	0	682	23	1	1	blank2r.bmp	0	1	+	0	8	C4r.bmp	500	1	blank2r.bmp	800	1	GKQX	800	1	blank2r.bmp	870	1	unfair	870	1	!	1200	1	blank2r.bmp	1330	0	0	0
020218	10:28:59	1	15	5.0.10.0	d070_B12_B2_unplA	dB12_valA_070	3	42	300	300	0	0	264	18	0	1	blank2r.bmp	0	1	+	0	3	B3r.bmp	500	1	blank2r.bmp	800	1	GKQX	800	1	blank2r.bmp	870	6	leiden	870	1	!	1200	1	blank2r.bmp	1330	0	0	0
020218	10:28:59	1	15	5.0.10.0	d070_B12_B1_unplA	dB12_valA_070	3	43	300	300	0	0	52	23	0	1	blank2r.bmp	0	1	+	0	5	C1r.bmp	500	1	blank2r.bmp	800	1	BMVZ	800	1	blank2r.bmp	870	2	neidisch	870	1	!	1200	1	blank2r.bmp	1330	0	0	0
020218	10:28:59	1	15	5.0.10.0	d070_B12_B1_unplA	dB12_valA_070	3	44	300	300	0	0	87	18	1	1	blank2r.bmp	0	1	+	0	4	B4r.bmp	500	1	blank2r.bmp	800	1	BMVZ	800	1	blank2r.bmp	870	5	schlecht	870	1	!	1200	1	blank2r.bmp	1330	0	0	0
020218	10:28:59	1	15	5.0.10.0	d070_B12_B2_unplA	dB12_valA_070	3	45	300	300	0	0	653	18	0	1	blank2r.bmp	0	1	+	0	6	C2r.bmp	500	1	blank2r.bmp	800	1	GKQX	800	1	blank2r.bmp	870	4	elend	870	1	!	1200	1	blank2r.bmp	1330	0	0	0
020218	10:28:59	1	15	5.0.10.0	d070_B12_B1_unplA	dB12_valA_070	3	46	300	300	0	0	305	23	0	1	blank2r.bmp	0	1	+	0	2	B2r.bmp	500	1	blank2r.bmp	800	1	BMVZ	800	1	blank2r.bmp	870	1	unfair	870	1	!	1200	1	blank2r.bmp	1330	0	0	0
020218	10:28:59	1	15	5.0.10.0	d070_B12_B2_pleasA	dB12_valA_070	3	47	300	300	0	0	72	18	0	1	blank2r.bmp	0	1	+	0	7	C3r.bmp	500	1	blank2r.bmp	800	1	GKQX	800	1	blank2r.bmp	870	1	toll	870	1	!	1200	1	blank2r.bmp	1330	0	0	0
020218	10:28:59	1	15	5.0.10.0	d070_B12_B1_unplA	dB12_valA_070	3	48	300	300	0	0	102	18	1	1	blank2r.bmp	0	1	+	0	1	B1r.bmp	500	1	blank2r.bmp	800	1	BMVZ	800	1	blank2r.bmp	870	3	töten	870	1	!	1200	1	blank2r.bmp	1330	0	0	0
020218	10:28:59	1	15	5.0.10.0	d070_B12_B1_unplA	dB12_valA_070	4	1	300	300	0	0	2462	18	1	1	blank2r.bmp	0	1	+	0	4	B4r.bmp	500	1	blank2r.bmp	800	1	BMVZ	800	1	blank2r.bmp	870	1	unfair	870	1	!	1200	1	blank2r.bmp	1330	0	0	0
020218	10:28:59	1	15	5.0.10.0	d070_B12_B2_pleasA	dB12_valA_070	4	2	300	300	0	0	8	18	0	1	blank2r.bmp	0	1	+	0	1	B1r.bmp	500	1	blank2r.bmp	800	1	GKQX	800	1	blank2r.bmp	870	2	schön	870	1	!	1200	1	blank2r.bmp	1330	0	0	0
020218	10:28:59	1	15	5.0.10.0	d070_B12_B1_unplA	dB12_valA_070	4	3	300	300	0	0	163	23	0	1	blank2r.bmp	0	1	+	0	6	C2r.bmp	500	1	blank2r.bmp	800	1	BMVZ	800	1	blank2r.bmp	870	6	leiden	870	1	!	1200	1	blank2r.bmp	1330	0	0	0
020218	10:28:59	1	15	5.0.10.0	d070_B12_B2_unplA	dB12_valA_070	4	4	300	300	0	0	296	18	0	1	blank2r.bmp	0	1	+	0	3	B3r.bmp	500	1	blank2r.bmp	800	1	GKQX	800	1	blank2r.bmp	870	3	töten	870	1	!	1200	1	blank2r.bmp	1330	0	0	0
020218	10:28:59	1	15	5.0.10.0	d070_B12_B1_unplA	dB12_valA_070	4	5	300	300	0	0	201	23	0	1	blank2r.bmp	0	1	+	0	5	C1r.bmp	500	1	blank2r.bmp	800	1	BMVZ	800	1	blank2r.bmp	870	2	neidisch	870	1	!	1200	1	blank2r.bmp	1330	0	0	0
020218	10:28:59	1	15	5.0.10.0	d070_B12_B2_pleasA	dB12_valA_070	4	6	300	300	0	0	184	23	1	1	blank2r.bmp	0	1	+	0	8	C4r.bmp	500	1	blank2r.bmp	800	1	GKQX	800	1	blank2r.bmp	870	6	froh	870	1	!	1200	1	blank2r.bmp	1330	0	0	0
020218	10:28:59	1	15	5.0.10.0	d070_B12_B1_pleasA	dB12_valA_070	4	7	300	300	0	0	129	18	1	1	blank2r.bmp	0	1	+	0	7	C3r.bmp	500	1	blank2r.bmp	800	1	BMVZ	800	1	blank2r.bmp	870	3	freund	870	1	!	1200	1	blank2r.bmp	1330	0	0	0
020218	10:28:59	1	15	5.0.10.0	d070_B12_B2_unplA	dB12_valA_070	4	8	300	300	0	0	94	23	1	1	blank2r.bmp	0	1	+	0	2	B2r.bmp	500	1	blank2r.bmp	800	1	GKQX	800	1	blank2r.bmp	870	4	elend	870	1	!	1200	1	blank2r.bmp	1330	0	0	0
020218	10:28:59	1	15	5.0.10.0	d070_B12_B1_pleasA	dB12_valA_070	4	9	300	300	0	0	48	18	1	1	blank2r.bmp	0	1	+	0	3	B3r.bmp	500	1	blank2r.bmp	800	1	BMVZ	800	1	blank2r.bmp	870	1	toll	870	1	!	1200	1	blank2r.bmp	1330	0	0	0
020218	10:28:59	1	15	5.0.10.0	d070_B12_B1_pleasA	dB12_valA_070	4	10	300	300	0	0	130	18	1	1	blank2r.bmp	0	1	+	0	2	B2r.bmp	500	1	blank2r.bmp	800	1	BMVZ	800	1	blank2r.bmp	870	5	friedlich	870	1	!	1200	1	blank2r.bmp	1330	0	0	0
020218	10:28:59	1	15	5.0.10.0	d070_B12_B2_pleasA	dB12_valA_070	4	11	300	300	0	0	124	23	1	1	blank2r.bmp	0	1	+	0	5	C1r.bmp	500	1	blank2r.bmp	800	1	GKQX	800	1	blank2r.bmp	870	4	heiter	870	1	!	1200	1	blank2r.bmp	1330	0	0	0
020218	10:28:59	1	15	5.0.10.0	d070_B12_B2_unplA	dB12_valA_070	4	12	300	300	0	0	833	18	0	1	blank2r.bmp	0	1	+	0	1	B1r.bmp	500	1	blank2r.bmp	800	1	GKQX	800	1	blank2r.bmp	870	5	schlecht	870	1	!	1200	1	blank2r.bmp	1330	0	0	0
020218	10:28:59	1	15	5.0.10.0	d070_B12_B2_pleasA	dB12_valA_070	4	13	300	300	0	0	142	18	0	1	blank2r.bmp	0	1	+	0	4	B4r.bmp	500	1	blank2r.bmp	800	1	GKQX	800	1	blank2r.bmp	870	5	friedlich	870	1	!	1200	1	blank2r.bmp	1330	0	0	0
020218	10:28:59	1	15	5.0.10.0	d070_B12_B1_unplA	dB12_valA_070	4	14	300	300	0	0	97	23	0	1	blank2r.bmp	0	1	+	0	6	C2r.bmp	500	1	blank2r.bmp	800	1	BMVZ	800	1	blank2r.bmp	870	2	neidisch	870	1	!	1200	1	blank2r.bmp	1330	0	0	0
020218	10:28:59	1	15	5.0.10.0	d070_B12_B2_unplA	dB12_valA_070	4	15	300	300	0	0	37	23	1	1	blank2r.bmp	0	1	+	0	8	C4r.bmp	500	1	blank2r.bmp	800	1	GKQX	800	1	blank2r.bmp	870	1	unfair	870	1	!	1200	1	blank2r.bmp	1330	0	0	0
020218	10:28:59	1	15	5.0.10.0	d070_B12_B1_pleasA	dB12_valA_070	4	16	300	300	0	0	270	23	0	1	blank2r.bmp	0	1	+	0	7	C3r.bmp	500	1	blank2r.bmp	800	1	BMVZ	800	1	blank2r.bmp	870	3	freund	870	1	!	1200	1	blank2r.bmp	1330	0	0	0
020218	10:28:59	1	15	5.0.10.0	d070_B12_B2_unplA	dB12_valA_070	4	17	300	300	0	0	979	18	0	1	blank2r.bmp	0	1	+	0	8	C4r.bmp	500	1	blank2r.bmp	800	1	GKQX	800	1	blank2r.bmp	870	4	elend	870	1	!	1200	1	blank2r.bmp	1330	0	0	0
020218	10:28:59	1	15	5.0.10.0	d070_B12_B1_pleasA	dB12_valA_070	4	18	300	300	0	0	1309	18	1	1	blank2r.bmp	0	1	+	0	2	B2r.bmp	500	1	blank2r.bmp	800	1	BMVZ	800	1	blank2r.bmp	870	6	froh	870	1	!	1200	1	blank2r.bmp	1330	0	0	0
020218	10:28:59	1	15	5.0.10.0	d070_B12_B1_pleasA	dB12_valA_070	4	19	300	300	0	0	94	18	1	1	blank2r.bmp	0	1	+	0	4	B4r.bmp	500	1	blank2r.bmp	800	1	BMVZ	800	1	blank2r.bmp	870	1	toll	870	1	!	1200	1	blank2r.bmp	1330	0	0	0
020218	10:28:59	1	15	5.0.10.0	d070_B12_B1_unplA	dB12_valA_070	4	20	300	300	0	0	149	23	0	1	blank2r.bmp	0	1	+	0	3	B3r.bmp	500	1	blank2r.bmp	800	1	BMVZ	800	1	blank2r.bmp	870	6	leiden	870	1	!	1200	1	blank2r.bmp	1330	0	0	0
020218	10:28:59	1	15	5.0.10.0	d070_B12_B2_pleasA	dB12_valA_070	4	21	300	300	0	0	342	23	1	1	blank2r.bmp	0	1	+	0	5	C1r.bmp	500	1	blank2r.bmp	800	1	GKQX	800	1	blank2r.bmp	870	2	schön	870	1	!	1200	1	blank2r.bmp	1330	0	0	0
020218	10:28:59	1	15	5.0.10.0	d070_B12_B2_unplA	dB12_valA_070	4	22	300	300	0	0	636	23	1	1	blank2r.bmp	0	1	+	0	6	C2r.bmp	500	1	blank2r.bmp	800	1	GKQX	800	1	blank2r.bmp	870	3	töten	870	1	!	1200	1	blank2r.bmp	1330	0	0	0
020218	10:28:59	1	15	5.0.10.0	d070_B12_B1_pleasA	dB12_valA_070	4	23	300	300	0	0	55	18	1	1	blank2r.bmp	0	1	+	0	7	C3r.bmp	500	1	blank2r.bmp	800	1	BMVZ	800	1	blank2r.bmp	870	4	heiter	870	1	!	1200	1	blank2r.bmp	1330	0	0	0
020218	10:28:59	1	15	5.0.10.0	d070_B12_B1_unplA	dB12_valA_070	4	24	300	300	0	0	201	18	1	1	blank2r.bmp	0	1	+	0	1	B1r.bmp	500	1	blank2r.bmp	800	1	BMVZ	800	1	blank2r.bmp	870	5	schlecht	870	1	!	1200	1	blank2r.bmp	1330	0	0	0
020218	10:28:59	1	15	5.0.10.0	d070_B12_B2_pleasA	dB12_valA_070	4	25	300	300	0	0	148	23	1	1	blank2r.bmp	0	1	+	0	2	B2r.bmp	500	1	blank2r.bmp	800	1	GKQX	800	1	blank2r.bmp	870	5	friedlich	870	1	!	1200	1	blank2r.bmp	1330	0	0	0
020218	10:28:59	1	15	5.0.10.0	d070_B12_B1_unplA	dB12_valA_070	4	26	300	300	0	0	631	18	1	1	blank2r.bmp	0	1	+	0	4	B4r.bmp	500	1	blank2r.bmp	800	1	BMVZ	800	1	blank2r.bmp	870	3	töten	870	1	!	1200	1	blank2r.bmp	1330	0	0	0
020218	10:28:59	1	15	5.0.10.0	d070_B12_B1_unplA	dB12_valA_070	4	27	300	300	0	0	173	23	0	1	blank2r.bmp	0	1	+	0	6	C2r.bmp	500	1	blank2r.bmp	800	1	BMVZ	800	1	blank2r.bmp	870	4	elend	870	1	!	1200	1	blank2r.bmp	1330	0	0	0
020218	10:28:59	1	15	5.0.10.0	d070_B12_B2_pleasA	dB12_valA_070	4	28	300	300	0	0	9	23	1	1	blank2r.bmp	0	1	+	0	8	C4r.bmp	500	1	blank2r.bmp	800	1	GKQX	800	1	blank2r.bmp	870	4	heiter	870	1	!	1200	1	blank2r.bmp	1330	0	0	0
020218	10:28:59	1	15	5.0.10.0	d070_B12_B1_unplA	dB12_valA_070	4	29	300	300	0	0	97	18	1	1	blank2r.bmp	0	1	+	0	3	B3r.bmp	500	1	blank2r.bmp	800	1	BMVZ	800	1	blank2r.bmp	870	1	unfair	870	1	!	1200	1	blank2r.bmp	1330	0	0	0
020218	10:28:59	1	15	5.0.10.0	d070_B12_B2_pleasA	dB12_valA_070	4	30	300	300	0	0	323	23	1	1	blank2r.bmp	0	1	+	0	7	C3r.bmp	500	1	blank2r.bmp	800	1	GKQX	800	1	blank2r.bmp	870	3	freund	870	1	!	1200	1	blank2r.bmp	1330	0	0	0
020218	10:28:59	1	15	5.0.10.0	d070_B12_B1_unplA	dB12_valA_070	4	31	300	300	0	0	243	23	0	1	blank2r.bmp	0	1	+	0	5	C1r.bmp	500	1	blank2r.bmp	800	1	BMVZ	800	1	blank2r.bmp	870	2	neidisch	870	1	!	1200	1	blank2r.bmp	1330	0	0	0
020218	10:28:59	1	15	5.0.10.0	d070_B12_B2_pleasA	dB12_valA_070	4	32	300	300	0	0	77	18	0	1	blank2r.bmp	0	1	+	0	1	B1r.bmp	500	1	blank2r.bmp	800	1	GKQX	800	1	blank2r.bmp	870	6	froh	870	1	!	1200	1	blank2r.bmp	1330	0	0	0
020218	10:28:59	1	15	5.0.10.0	d070_B12_B2_unplA	dB12_valA_070	4	33	300	300	0	0	78	18	0	1	blank2r.bmp	0	1	+	0	1	B1r.bmp	500	1	blank2r.bmp	800	1	GKQX	800	1	blank2r.bmp	870	6	leiden	870	1	!	1200	1	blank2r.bmp	1330	0	0	0
020218	10:28:59	1	15	5.0.10.0	d070_B12_B1_unplA	dB12_valA_070	4	34	300	300	0	0	54	23	0	1	blank2r.bmp	0	1	+	0	6	C2r.bmp	500	1	blank2r.bmp	800	1	BMVZ	800	1	blank2r.bmp	870	5	schlecht	870	1	!	1200	1	blank2r.bmp	1330	0	0	0
020218	10:28:59	1	15	5.0.10.0	d070_B12_B2_unplA	dB12_valA_070	4	35	300	300	0	0	136	23	1	1	blank2r.bmp	0	1	+	0	5	C1r.bmp	500	1	blank2r.bmp	800	1	GKQX	800	1	blank2r.bmp	870	2	neidisch	870	1	!	1200	1	blank2r.bmp	1330	0	0	0
020218	10:28:59	1	15	5.0.10.0	d070_B12_B1_pleasA	dB12_valA_070	4	36	300	300	0	0	29	18	1	1	blank2r.bmp	0	1	+	0	4	B4r.bmp	500	1	blank2r.bmp	800	1	BMVZ	800	1	blank2r.bmp	870	2	schön	870	1	!	1200	1	blank2r.bmp	1330	0	0	0
020218	10:28:59	1	15	5.0.10.0	d070_B12_B2_unplA	dB12_valA_070	4	37	300	300	0	0	513	23	1	1	blank2r.bmp	0	1	+	0	3	B3r.bmp	500	1	blank2r.bmp	800	1	GKQX	800	1	blank2r.bmp	870	5	schlecht	870	1	!	1200	1	blank2r.bmp	1330	0	0	0
020218	10:28:59	1	15	5.0.10.0	d070_B12_B2_unplA	dB12_valA_070	4	38	300	300	0	0	116	23	1	1	blank2r.bmp	0	1	+	0	8	C4r.bmp	500	1	blank2r.bmp	800	1	GKQX	800	1	blank2r.bmp	870	3	töten	870	1	!	1200	1	blank2r.bmp	1330	0	0	0
020218	10:28:59	1	15	5.0.10.0	d070_B12_B1_unplA	dB12_valA_070	4	39	300	300	0	0	119	23	0	1	blank2r.bmp	0	1	+	0	2	B2r.bmp	500	1	blank2r.bmp	800	1	BMVZ	800	1	blank2r.bmp	870	6	leiden	870	1	!	1200	1	blank2r.bmp	1330	0	0	0
020218	10:28:59	1	15	5.0.10.0	d070_B12_B1_pleasA	dB12_valA_070	4	40	300	300	0	0	135	18	1	1	blank2r.bmp	0	1	+	0	7	C3r.bmp	500	1	blank2r.bmp	800	1	BMVZ	800	1	blank2r.bmp	870	1	toll	870	1	!	1200	1	blank2r.bmp	1330	0	0	0
020218	10:28:59	1	15	5.0.10.0	d070_B12_B2_unplA	dB12_valA_070	4	41	300	300	0	0	67	18	0	1	blank2r.bmp	0	1	+	0	1	B1r.bmp	500	1	blank2r.bmp	800	1	GKQX	800	1	blank2r.bmp	870	4	elend	870	1	!	1200	1	blank2r.bmp	1330	0	0	0
020218	10:28:59	1	15	5.0.10.0	d070_B12_B1_pleasA	dB12_valA_070	4	42	300	300	0	0	723	23	0	1	blank2r.bmp	0	1	+	0	2	B2r.bmp	500	1	blank2r.bmp	800	1	BMVZ	800	1	blank2r.bmp	870	6	froh	870	1	!	1200	1	blank2r.bmp	1330	0	0	0
020218	10:28:59	1	15	5.0.10.0	d070_B12_B2_unplA	dB12_valA_070	4	43	300	300	0	0	208	23	1	1	blank2r.bmp	0	1	+	0	8	C4r.bmp	500	1	blank2r.bmp	800	1	GKQX	800	1	blank2r.bmp	870	1	unfair	870	1	!	1200	1	blank2r.bmp	1330	0	0	0
020218	10:28:59	1	15	5.0.10.0	d070_B12_B2_pleasA	dB12_valA_070	4	44	300	300	0	0	70	23	1	1	blank2r.bmp	0	1	+	0	5	C1r.bmp	500	1	blank2r.bmp	800	1	GKQX	800	1	blank2r.bmp	870	3	freund	870	1	!	1200	1	blank2r.bmp	1330	0	0	0
020218	10:28:59	1	15	5.0.10.0	d070_B12_B1_pleasA	dB12_valA_070	4	45	300	300	0	0	76	23	0	1	blank2r.bmp	0	1	+	0	6	C2r.bmp	500	1	blank2r.bmp	800	1	BMVZ	800	1	blank2r.bmp	870	2	schön	870	1	!	1200	1	blank2r.bmp	1330	0	0	0
020218	10:28:59	1	15	5.0.10.0	d070_B12_B2_pleasA	dB12_valA_070	4	46	300	300	0	0	109	23	1	1	blank2r.bmp	0	1	+	0	3	B3r.bmp	500	1	blank2r.bmp	800	1	GKQX	800	1	blank2r.bmp	870	5	friedlich	870	1	!	1200	1	blank2r.bmp	1330	0	0	0
020218	10:28:59	1	15	5.0.10.0	d070_B12_B1_pleasA	dB12_valA_070	4	47	300	300	0	0	15	23	0	1	blank2r.bmp	0	1	+	0	7	C3r.bmp	500	1	blank2r.bmp	800	1	BMVZ	800	1	blank2r.bmp	870	4	heiter	870	1	!	1200	1	blank2r.bmp	1330	0	0	0
020218	10:28:59	1	15	5.0.10.0	d070_B12_B2_pleasA	dB12_valA_070	4	48	300	300	0	0	97	18	0	1	blank2r.bmp	0	1	+	0	4	B4r.bmp	500	1	blank2r.bmp	800	1	GKQX	800	1	blank2r.bmp	870	1	toll	870	1	!	1200	1	blank2r.bmp	1330	0	0	0
020218	10:28:59	1	15	5.0.10.0	dL_A12_A1_unplB	dA12_valB_pract1	6	1	300	300	0	0	1474	18	1	1	blank2r.bmp	0	1	+	0	6	C2r.bmp	500	1	blank2r.bmp	700	1	NPLW	700	1	B1r.bmp	830	1	blank2r.bmp	870	6	traurig	870	1	!	1200	1	blank2r.bmp	1330
020218	10:28:59	1	15	5.0.10.0	dL_A12_A1_unplB	dA12_valB_pract1	6	2	300	300	0	0	365	18	1	1	blank2r.bmp	0	1	+	0	2	B2r.bmp	500	1	blank2r.bmp	700	1	NPLW	700	4	B4r.bmp	830	1	blank2r.bmp	870	5	kummer	870	1	!	1200	1	blank2r.bmp	1330
020218	10:28:59	1	15	5.0.10.0	dL_A12_A1_pleasB	dA12_valB_pract1	6	3	300	300	0	0	93	18	1	1	blank2r.bmp	0	1	+	0	1	B1r.bmp	500	1	blank2r.bmp	700	1	NPLW	700	8	C4r.bmp	830	1	blank2r.bmp	870	4	treu	870	1	!	1200	1	blank2r.bmp	1330
020218	10:28:59	1	15	5.0.10.0	dL_A12_A1_pleasB	dA12_valB_pract1	6	4	300	300	0	0	1128	23	0	1	blank2r.bmp	0	1	+	0	4	B4r.bmp	500	1	blank2r.bmp	700	1	NPLW	700	2	B2r.bmp	830	1	blank2r.bmp	870	6	kreativ	870	1	!	1200	1	blank2r.bmp	1330
020218	10:28:59	1	15	5.0.10.0	dL_A12_A2_pleasB	dA12_valB_pract1	6	5	300	300	0	0	546	23	1	1	blank2r.bmp	0	1	+	0	3	B3r.bmp	500	1	blank2r.bmp	700	1	DHJF	700	5	C1r.bmp	830	1	blank2r.bmp	870	1	gut	870	1	!	1200	1	blank2r.bmp	1330
020218	10:28:59	1	15	5.0.10.0	dL_A12_A1_unplB	dA12_valB_pract1	6	6	300	300	0	0	171	18	1	1	blank2r.bmp	0	1	+	0	5	C1r.bmp	500	1	blank2r.bmp	700	1	NPLW	700	3	B3r.bmp	830	1	blank2r.bmp	870	4	böse	870	1	!	1200	1	blank2r.bmp	1330
020218	10:28:59	1	15	5.0.10.0	dL_A12_A2_pleasB	dA12_valB_pract1	6	7	300	300	0	0	228	23	1	1	blank2r.bmp	0	1	+	0	7	C3r.bmp	500	1	blank2r.bmp	700	1	DHJF	700	6	C2r.bmp	830	1	blank2r.bmp	870	5	begabt	870	1	!	1200	1	blank2r.bmp	1330
020218	10:28:59	1	15	5.0.10.0	dL_A12_A2_unplB	dA12_valB_pract1	6	8	300	300	0	0	60	23	1	1	blank2r.bmp	0	1	+	0	8	C4r.bmp	500	1	blank2r.bmp	700	1	DHJF	700	7	C3r.bmp	830	1	blank2r.bmp	870	1	grausam	870	1	!	1200	1	blank2r.bmp	1330
020218	10:28:59	1	15	5.0.10.0	dL_A12_A2_pleasB	dA12_valB_pract1	6	9	300	300	0	0	247	18	0	1	blank2r.bmp	0	1	+	0	6	C2r.bmp	500	1	blank2r.bmp	700	1	DHJF	700	5	C1r.bmp	830	1	blank2r.bmp	870	2	mutig	870	1	!	1200	1	blank2r.bmp	1330
020218	10:28:59	1	15	5.0.10.0	dL_A12_A1_pleasB	dA12_valB_pract1	6	10	300	300	0	0	110	18	1	1	blank2r.bmp	0	1	+	0	7	C3r.bmp	500	1	blank2r.bmp	700	1	NPLW	700	3	B3r.bmp	830	1	blank2r.bmp	870	3	kuss	870	1	!	1200	1	blank2r.bmp	1330
020218	10:28:59	1	15	5.0.10.0	dL_A12_A2_unplB	dA12_valB_pract1	6	11	300	300	0	0	178	23	1	1	blank2r.bmp	0	1	+	0	4	B4r.bmp	500	1	blank2r.bmp	700	1	DHJF	700	6	C2r.bmp	830	1	blank2r.bmp	870	2	geizig	870	1	!	1200	1	blank2r.bmp	1330
020218	10:28:59	1	15	5.0.10.0	dL_A12_A2_unplB	dA12_valB_pract1	6	12	300	300	0	0	16	23	1	1	blank2r.bmp	0	1	+	0	2	B2r.bmp	500	1	blank2r.bmp	700	1	DHJF	700	1	B1r.bmp	830	1	blank2r.bmp	870	3	ärger	870	1	!	1200	1	blank2r.bmp	1330
020218	10:28:59	1	15	5.0.10.0	dM_A12_A2_unplB	dA12_valB_pract2	7	1	300	300	0	0	52	23	1	1	blank2r.bmp	0	1	+	0	8	C4r.bmp	500	1	blank2r.bmp	730	1	DHJF	730	4	B4r.bmp	830	1	blank2r.bmp	870	4	böse	870	1	!	1200	1	blank2r.bmp	1330
020218	10:28:59	1	15	5.0.10.0	dM_A12_A1_unplB	dA12_valB_pract2	7	2	300	300	0	0	1346	18	1	1	blank2r.bmp	0	1	+	0	3	B3r.bmp	500	1	blank2r.bmp	730	1	NPLW	730	2	B2r.bmp	830	1	blank2r.bmp	870	2	geizig	870	1	!	1200	1	blank2r.bmp	1330
020218	10:28:59	1	15	5.0.10.0	dM_A12_A1_unplB	dA12_valB_pract2	7	3	300	300	0	0	201	18	1	1	blank2r.bmp	0	1	+	0	1	B1r.bmp	500	1	blank2r.bmp	730	1	NPLW	730	7	C3r.bmp	830	1	blank2r.bmp	870	1	grausam	870	1	!	1200	1	blank2r.bmp	1330
020218	10:28:59	1	15	5.0.10.0	dM_A12_A2_pleasB	dA12_valB_pract2	7	4	300	300	0	0	2190	23	1	1	blank2r.bmp	0	1	+	0	5	C1r.bmp	500	1	blank2r.bmp	730	1	DHJF	730	8	C4r.bmp	830	1	blank2r.bmp	870	1	gut	870	1	!	1200	1	blank2r.bmp	1330
020218	10:28:59	1	15	5.0.10.0	dM_A12_A1_pleasB	dA12_valB_pract2	7	5	300	300	0	0	389	23	0	1	blank2r.bmp	0	1	+	0	6	C2r.bmp	500	1	blank2r.bmp	730	1	NPLW	730	5	C1r.bmp	830	1	blank2r.bmp	870	3	kuss	870	1	!	1200	1	blank2r.bmp	1330
020218	10:28:59	1	15	5.0.10.0	dM_A12_A1_pleasB	dA12_valB_pract2	7	6	300	300	0	0	82	18	1	1	blank2r.bmp	0	1	+	0	1	B1r.bmp	500	1	blank2r.bmp	730	1	NPLW	730	2	B2r.bmp	830	1	blank2r.bmp	870	4	treu	870	1	!	1200	1	blank2r.bmp	1330
020218	10:28:59	1	15	5.0.10.0	dM_A12_A2_unplB	dA12_valB_pract2	7	7	300	300	0	0	99	23	1	1	blank2r.bmp	0	1	+	0	2	B2r.bmp	500	1	blank2r.bmp	730	1	DHJF	730	3	B3r.bmp	830	1	blank2r.bmp	870	6	traurig	870	1	!	1200	1	blank2r.bmp	1330
020218	10:28:59	1	15	5.0.10.0	dM_A12_A2_pleasB	dA12_valB_pract2	7	8	300	300	0	0	866	23	1	1	blank2r.bmp	0	1	+	0	4	B4r.bmp	500	1	blank2r.bmp	730	1	DHJF	730	6	C2r.bmp	830	1	blank2r.bmp	870	6	kreativ	870	1	!	1200	1	blank2r.bmp	1330
020218	10:28:59	1	15	5.0.10.0	dM_A12_A1_unplB	dA12_valB_pract2	7	9	300	300	0	0	7	23	0	1	blank2r.bmp	0	1	+	0	8	C4r.bmp	500	1	blank2r.bmp	730	1	NPLW	730	7	C3r.bmp	830	1	blank2r.bmp	870	5	kummer	870	1	!	1200	1	blank2r.bmp	1330
020218	10:28:59	1	15	5.0.10.0	dM_A12_A2_unplB	dA12_valB_pract2	7	10	300	300	0	0	924	23	1	1	blank2r.bmp	0	1	+	0	3	B3r.bmp	500	1	blank2r.bmp	730	1	DHJF	730	8	C4r.bmp	830	1	blank2r.bmp	870	3	ärger	870	1	!	1200	1	blank2r.bmp	1330
020218	10:28:59	1	15	5.0.10.0	dM_A12_A2_pleasB	dA12_valB_pract2	7	11	300	300	0	0	312	23	1	1	blank2r.bmp	0	1	+	0	7	C3r.bmp	500	1	blank2r.bmp	730	1	DHJF	730	1	B1r.bmp	830	1	blank2r.bmp	870	5	begabt	870	1	!	1200	1	blank2r.bmp	1330
020218	10:28:59	1	15	5.0.10.0	dM_A12_A1_pleasB	dA12_valB_pract2	7	12	300	300	0	0	138	18	1	1	blank2r.bmp	0	1	+	0	5	C1r.bmp	500	1	blank2r.bmp	730	1	NPLW	730	4	B4r.bmp	830	1	blank2r.bmp	870	2	mutig	870	1	!	1200	1	blank2r.bmp	1330
020218	10:28:59	1	15	5.0.10.0	d080_A12_A2_unplB	dA12_valB_080	8	1	300	300	0	0	1079	23	1	1	blank2r.bmp	0	1	+	0	2	B2r.bmp	500	1	blank2r.bmp	800	1	DHJF	800	1	blank2r.bmp	880	6	traurig	880	1	!	1210	1	blank2r.bmp	1340	0	0	0
020218	10:28:59	1	15	5.0.10.0	d080_A12_A1_pleasB	dA12_valB_080	8	2	300	300	0	0	233	23	0	1	blank2r.bmp	0	1	+	0	1	B1r.bmp	500	1	blank2r.bmp	800	1	NPLW	800	1	blank2r.bmp	880	6	kreativ	880	1	!	1210	1	blank2r.bmp	1340	0	0	0
020218	10:28:59	1	15	5.0.10.0	d080_A12_A1_unplB	dA12_valB_080	8	3	300	300	0	0	158	18	1	1	blank2r.bmp	0	1	+	0	5	C1r.bmp	500	1	blank2r.bmp	800	1	NPLW	800	1	blank2r.bmp	880	3	ärger	880	1	!	1210	1	blank2r.bmp	1340	0	0	0
020218	10:28:59	1	15	5.0.10.0	d080_A12_A1_pleasB	dA12_valB_080	8	4	300	300	0	0	254	23	0	1	blank2r.bmp	0	1	+	0	8	C4r.bmp	500	1	blank2r.bmp	800	1	NPLW	800	1	blank2r.bmp	880	2	mutig	880	1	!	1210	1	blank2r.bmp	1340	0	0	0
020218	10:28:59	1	15	5.0.10.0	d080_A12_A1_unplB	dA12_valB_080	8	5	300	300	0	0	112	23	0	1	blank2r.bmp	0	1	+	0	4	B4r.bmp	500	1	blank2r.bmp	800	1	NPLW	800	1	blank2r.bmp	880	1	grausam	880	1	!	1210	1	blank2r.bmp	1340	0	0	0
020218	10:28:59	1	15	5.0.10.0	d080_A12_A2_pleasB	dA12_valB_080	8	6	300	300	0	0	110	18	0	1	blank2r.bmp	0	1	+	0	3	B3r.bmp	500	1	blank2r.bmp	800	1	DHJF	800	1	blank2r.bmp	880	1	gut	880	1	!	1210	1	blank2r.bmp	1340	0	0	0
020218	10:28:59	1	15	5.0.10.0	d080_A12_A2_unplB	dA12_valB_080	8	7	300	300	0	0	455	23	1	1	blank2r.bmp	0	1	+	0	6	C2r.bmp	500	1	blank2r.bmp	800	1	DHJF	800	1	blank2r.bmp	880	5	kummer	880	1	!	1210	1	blank2r.bmp	1340	0	0	0
020218	10:28:59	1	15	5.0.10.0	d080_A12_A2_unplB	dA12_valB_080	8	8	300	300	0	0	268	18	0	1	blank2r.bmp	0	1	+	0	7	C3r.bmp	500	1	blank2r.bmp	800	1	DHJF	800	1	blank2r.bmp	880	4	böse	880	1	!	1210	1	blank2r.bmp	1340	0	0	0
020218	10:28:59	1	15	5.0.10.0	d080_A12_A2_unplB	dA12_valB_080	8	9	300	300	0	0	163	18	0	1	blank2r.bmp	0	1	+	0	7	C3r.bmp	500	1	blank2r.bmp	800	1	DHJF	800	1	blank2r.bmp	880	2	geizig	880	1	!	1210	1	blank2r.bmp	1340	0	0	0
020218	10:28:59	1	15	5.0.10.0	d080_A12_A2_pleasB	dA12_valB_080	8	10	300	300	0	0	484	23	1	1	blank2r.bmp	0	1	+	0	3	B3r.bmp	500	1	blank2r.bmp	800	1	DHJF	800	1	blank2r.bmp	880	3	kuss	880	1	!	1210	1	blank2r.bmp	1340	0	0	0
020218	10:28:59	1	15	5.0.10.0	d080_A12_A1_unplB	dA12_valB_080	8	11	300	300	0	0	567	23	0	1	blank2r.bmp	0	1	+	0	6	C2r.bmp	500	1	blank2r.bmp	800	1	NPLW	800	1	blank2r.bmp	880	2	geizig	880	1	!	1210	1	blank2r.bmp	1340	0	0	0
020218	10:28:59	1	15	5.0.10.0	d080_A12_A2_pleasB	dA12_valB_080	8	12	300	300	0	0	423	23	1	1	blank2r.bmp	0	1	+	0	8	C4r.bmp	500	1	blank2r.bmp	800	1	DHJF	800	1	blank2r.bmp	880	5	begabt	880	1	!	1210	1	blank2r.bmp	1340	0	0	0
020218	10:28:59	1	15	5.0.10.0	d080_A12_A2_unplB	dA12_valB_080	8	13	300	300	0	0	256	23	1	1	blank2r.bmp	0	1	+	0	4	B4r.bmp	500	1	blank2r.bmp	800	1	DHJF	800	1	blank2r.bmp	880	1	grausam	880	1	!	1210	1	blank2r.bmp	1340	0	0	0
020218	10:28:59	1	15	5.0.10.0	d080_A12_A2_unplB	dA12_valB_080	8	14	300	300	0	0	1058	23	1	1	blank2r.bmp	0	1	+	0	1	B1r.bmp	500	1	blank2r.bmp	800	1	DHJF	800	1	blank2r.bmp	880	4	böse	880	1	!	1210	1	blank2r.bmp	1340	0	0	0
020218	10:28:59	1	15	5.0.10.0	d080_A12_A2_unplB	dA12_valB_080	8	15	300	300	0	0	518	23	1	1	blank2r.bmp	0	1	+	0	5	C1r.bmp	500	1	blank2r.bmp	800	1	DHJF	800	1	blank2r.bmp	880	5	kummer	880	1	!	1210	1	blank2r.bmp	1340	0	0	0
020218	10:28:59	1	15	5.0.10.0	d080_A12_A1_pleasB	dA12_valB_080	8	16	300	300	0	0	2209	23	0	1	blank2r.bmp	0	1	+	0	2	B2r.bmp	500	1	blank2r.bmp	800	1	NPLW	800	1	blank2r.bmp	880	4	treu	880	1	!	1210	1	blank2r.bmp	1340	0	0	0
020218	10:28:59	1	15	5.0.10.0	d080_A12_A2_pleasB	dA12_valB_080	8	17	300	300	0	0	1045	18	0	1	blank2r.bmp	0	1	+	0	6	C2r.bmp	500	1	blank2r.bmp	800	1	DHJF	800	1	blank2r.bmp	880	2	mutig	880	1	!	1210	1	blank2r.bmp	1340	0	0	0
020218	10:28:59	1	15	5.0.10.0	d080_A12_A2_unplB	dA12_valB_080	8	18	300	300	0	0	220	23	1	1	blank2r.bmp	0	1	+	0	5	C1r.bmp	500	1	blank2r.bmp	800	1	DHJF	800	1	blank2r.bmp	880	6	traurig	880	1	!	1210	1	blank2r.bmp	1340	0	0	0
020218	10:28:59	1	15	5.0.10.0	d080_A12_A2_unplB	dA12_valB_080	8	19	300	300	0	0	197	23	1	1	blank2r.bmp	0	1	+	0	2	B2r.bmp	500	1	blank2r.bmp	800	1	DHJF	800	1	blank2r.bmp	880	3	ärger	880	1	!	1210	1	blank2r.bmp	1340	0	0	0
020218	10:28:59	1	15	5.0.10.0	d080_A12_A1_pleasB	dA12_valB_080	8	20	300	300	0	0	216	18	1	1	blank2r.bmp	0	1	+	0	3	B3r.bmp	500	1	blank2r.bmp	800	1	NPLW	800	1	blank2r.bmp	880	1	gut	880	1	!	1210	1	blank2r.bmp	1340	0	0	0
020218	10:28:59	1	15	5.0.10.0	d080_A12_A1_pleasB	dA12_valB_080	8	21	300	300	0	0	612	18	1	1	blank2r.bmp	0	1	+	0	8	C4r.bmp	500	1	blank2r.bmp	800	1	NPLW	800	1	blank2r.bmp	880	5	begabt	880	1	!	1210	1	blank2r.bmp	1340	0	0	0
020218	10:28:59	1	15	5.0.10.0	d080_A12_A1_unplB	dA12_valB_080	8	22	300	300	0	0	207	18	1	1	blank2r.bmp	0	1	+	0	4	B4r.bmp	500	1	blank2r.bmp	800	1	NPLW	800	1	blank2r.bmp	880	5	kummer	880	1	!	1210	1	blank2r.bmp	1340	0	0	0
020218	10:28:59	1	15	5.0.10.0	d080_A12_A1_unplB	dA12_valB_080	8	23	300	300	0	0	398	23	0	1	blank2r.bmp	0	1	+	0	7	C3r.bmp	500	1	blank2r.bmp	800	1	NPLW	800	1	blank2r.bmp	880	6	traurig	880	1	!	1210	1	blank2r.bmp	1340	0	0	0
020218	10:28:59	1	15	5.0.10.0	d080_A12_A1_pleasB	dA12_valB_080	8	24	300	300	0	0	580	18	1	1	blank2r.bmp	0	1	+	0	1	B1r.bmp	500	1	blank2r.bmp	800	1	NPLW	800	1	blank2r.bmp	880	3	kuss	880	1	!	1210	1	blank2r.bmp	1340	0	0	0
020218	10:28:59	1	15	5.0.10.0	d080_A12_A2_unplB	dA12_valB_080	8	25	300	300	0	0	83	23	1	1	blank2r.bmp	0	1	+	0	2	B2r.bmp	500	1	blank2r.bmp	800	1	DHJF	800	1	blank2r.bmp	880	3	ärger	880	1	!	1210	1	blank2r.bmp	1340	0	0	0
020218	10:28:59	1	15	5.0.10.0	d080_A12_A2_pleasB	dA12_valB_080	8	26	300	300	0	0	296	23	1	1	blank2r.bmp	0	1	+	0	4	B4r.bmp	500	1	blank2r.bmp	800	1	DHJF	800	1	blank2r.bmp	880	4	treu	880	1	!	1210	1	blank2r.bmp	1340	0	0	0
020218	10:28:59	1	15	5.0.10.0	d080_A12_A1_unplB	dA12_valB_080	8	27	300	300	0	0	167	18	1	1	blank2r.bmp	0	1	+	0	5	C1r.bmp	500	1	blank2r.bmp	800	1	NPLW	800	1	blank2r.bmp	880	2	geizig	880	1	!	1210	1	blank2r.bmp	1340	0	0	0
020218	10:28:59	1	15	5.0.10.0	d080_A12_A2_pleasB	dA12_valB_080	8	28	300	300	0	0	561	23	1	1	blank2r.bmp	0	1	+	0	1	B1r.bmp	500	1	blank2r.bmp	800	1	DHJF	800	1	blank2r.bmp	880	6	kreativ	880	1	!	1210	1	blank2r.bmp	1340	0	0	0
020218	10:28:59	1	15	5.0.10.0	d080_A12_A1_unplB	dA12_valB_080	8	29	300	300	0	0	3	23	0	1	blank2r.bmp	0	1	+	0	8	C4r.bmp	500	1	blank2r.bmp	800	1	NPLW	800	1	blank2r.bmp	880	4	böse	880	1	!	1210	1	blank2r.bmp	1340	0	0	0
020218	10:28:59	1	15	5.0.10.0	d080_A12_A1_unplB	dA12_valB_080	8	30	300	300	0	0	1098	18	1	1	blank2r.bmp	0	1	+	0	7	C3r.bmp	500	1	blank2r.bmp	800	1	NPLW	800	1	blank2r.bmp	880	1	grausam	880	1	!	1210	1	blank2r.bmp	1340	0	0	0
020218	10:28:59	1	15	5.0.10.0	d080_A12_A1_unplB	dA12_valB_080	8	31	300	300	0	0	228	18	1	1	blank2r.bmp	0	1	+	0	6	C2r.bmp	500	1	blank2r.bmp	800	1	NPLW	800	1	blank2r.bmp	880	6	traurig	880	1	!	1210	1	blank2r.bmp	1340	0	0	0
020218	10:28:59	1	15	5.0.10.0	d080_A12_A2_pleasB	dA12_valB_080	8	32	300	300	0	0	381	23	1	1	blank2r.bmp	0	1	+	0	3	B3r.bmp	500	1	blank2r.bmp	800	1	DHJF	800	1	blank2r.bmp	880	3	kuss	880	1	!	1210	1	blank2r.bmp	1340	0	0	0
020218	10:28:59	1	15	5.0.10.0	d080_A12_A2_pleasB	dA12_valB_080	8	33	300	300	0	0	1437	18	0	1	blank2r.bmp	0	1	+	0	4	B4r.bmp	500	1	blank2r.bmp	800	1	DHJF	800	1	blank2r.bmp	880	2	mutig	880	1	!	1210	1	blank2r.bmp	1340	0	0	0
020218	10:28:59	1	15	5.0.10.0	d080_A12_A2_pleasB	dA12_valB_080	8	34	300	300	0	0	214	23	1	1	blank2r.bmp	0	1	+	0	8	C4r.bmp	500	1	blank2r.bmp	800	1	DHJF	800	1	blank2r.bmp	880	6	kreativ	880	1	!	1210	1	blank2r.bmp	1340	0	0	0
020218	10:28:59	1	15	5.0.10.0	d080_A12_A2_pleasB	dA12_valB_080	8	35	300	300	0	0	421	18	0	1	blank2r.bmp	0	1	+	0	6	C2r.bmp	500	1	blank2r.bmp	800	1	DHJF	800	1	blank2r.bmp	880	5	begabt	880	1	!	1210	1	blank2r.bmp	1340	0	0	0
020218	10:28:59	1	15	5.0.10.0	d080_A12_A1_pleasB	dA12_valB_080	8	36	300	300	0	0	364	18	1	1	blank2r.bmp	0	1	+	0	5	C1r.bmp	500	1	blank2r.bmp	800	1	NPLW	800	1	blank2r.bmp	880	4	treu	880	1	!	1210	1	blank2r.bmp	1340	0	0	0
020218	10:28:59	1	15	5.0.10.0	d080_A12_A1_unplB	dA12_valB_080	8	37	300	300	0	0	239	23	0	1	blank2r.bmp	0	1	+	0	3	B3r.bmp	500	1	blank2r.bmp	800	1	NPLW	800	1	blank2r.bmp	880	3	ärger	880	1	!	1210	1	blank2r.bmp	1340	0	0	0
020218	10:28:59	1	15	5.0.10.0	d080_A12_A2_pleasB	dA12_valB_080	8	38	300	300	0	0	919	18	0	1	blank2r.bmp	0	1	+	0	7	C3r.bmp	500	1	blank2r.bmp	800	1	DHJF	800	1	blank2r.bmp	880	1	gut	880	1	!	1210	1	blank2r.bmp	1340	0	0	0
020218	10:28:59	1	15	5.0.10.0	d080_A12_A1_pleasB	dA12_valB_080	8	39	300	300	0	0	651	23	0	1	blank2r.bmp	0	1	+	0	1	B1r.bmp	500	1	blank2r.bmp	800	1	NPLW	800	1	blank2r.bmp	880	3	kuss	880	1	!	1210	1	blank2r.bmp	1340	0	0	0
020218	10:28:59	1	15	5.0.10.0	d080_A12_A1_pleasB	dA12_valB_080	8	40	300	300	0	0	99	23	0	1	blank2r.bmp	0	1	+	0	2	B2r.bmp	500	1	blank2r.bmp	800	1	NPLW	800	1	blank2r.bmp	880	5	begabt	880	1	!	1210	1	blank2r.bmp	1340	0	0	0
020218	10:28:59	1	15	5.0.10.0	d080_A12_A1_pleasB	dA12_valB_080	8	41	300	300	0	0	381	23	0	1	blank2r.bmp	0	1	+	0	3	B3r.bmp	500	1	blank2r.bmp	800	1	NPLW	800	1	blank2r.bmp	880	4	treu	880	1	!	1210	1	blank2r.bmp	1340	0	0	0
020218	10:28:59	1	15	5.0.10.0	d080_A12_A1_pleasB	dA12_valB_080	8	42	300	300	0	0	155	23	0	1	blank2r.bmp	0	1	+	0	2	B2r.bmp	500	1	blank2r.bmp	800	1	NPLW	800	1	blank2r.bmp	880	1	gut	880	1	!	1210	1	blank2r.bmp	1340	0	0	0
020218	10:28:59	1	15	5.0.10.0	d080_A12_A2_unplB	dA12_valB_080	8	43	300	300	0	0	618	23	1	1	blank2r.bmp	0	1	+	0	8	C4r.bmp	500	1	blank2r.bmp	800	1	DHJF	800	1	blank2r.bmp	880	1	grausam	880	1	!	1210	1	blank2r.bmp	1340	0	0	0
020218	10:28:59	1	15	5.0.10.0	d080_A12_A2_pleasB	dA12_valB_080	8	44	300	300	0	0	135	18	0	1	blank2r.bmp	0	1	+	0	6	C2r.bmp	500	1	blank2r.bmp	800	1	DHJF	800	1	blank2r.bmp	880	6	kreativ	880	1	!	1210	1	blank2r.bmp	1340	0	0	0
020218	10:28:59	1	15	5.0.10.0	d080_A12_A1_unplB	dA12_valB_080	8	45	300	300	0	0	146	18	1	1	blank2r.bmp	0	1	+	0	7	C3r.bmp	500	1	blank2r.bmp	800	1	NPLW	800	1	blank2r.bmp	880	5	kummer	880	1	!	1210	1	blank2r.bmp	1340	0	0	0
020218	10:28:59	1	15	5.0.10.0	d080_A12_A1_pleasB	dA12_valB_080	8	46	300	300	0	0	83	18	1	1	blank2r.bmp	0	1	+	0	5	C1r.bmp	500	1	blank2r.bmp	800	1	NPLW	800	1	blank2r.bmp	880	2	mutig	880	1	!	1210	1	blank2r.bmp	1340	0	0	0
020218	10:28:59	1	15	5.0.10.0	d080_A12_A1_unplB	dA12_valB_080	8	47	300	300	0	0	120	23	0	1	blank2r.bmp	0	1	+	0	4	B4r.bmp	500	1	blank2r.bmp	800	1	NPLW	800	1	blank2r.bmp	880	2	geizig	880	1	!	1210	1	blank2r.bmp	1340	0	0	0
020218	10:28:59	1	15	5.0.10.0	d080_A12_A2_unplB	dA12_valB_080	8	48	300	300	0	0	46	23	1	1	blank2r.bmp	0	1	+	0	1	B1r.bmp	500	1	blank2r.bmp	800	1	DHJF	800	1	blank2r.bmp	880	4	böse	880	1	!	1210	1	blank2r.bmp	1340	0	0	0
020218	10:28:59	1	15	5.0.10.0	d080_A12_A2_pleasB	dA12_valB_080	9	1	300	300	0	0	217	23	1	1	blank2r.bmp	0	1	+	0	1	B1r.bmp	500	1	blank2r.bmp	800	1	DHJF	800	1	blank2r.bmp	880	1	gut	880	1	!	1210	1	blank2r.bmp	1340	0	0	0
020218	10:28:59	1	15	5.0.10.0	d080_A12_A2_unplB	dA12_valB_080	9	2	300	300	0	0	220	23	1	1	blank2r.bmp	0	1	+	0	7	C3r.bmp	500	1	blank2r.bmp	800	1	DHJF	800	1	blank2r.bmp	880	2	geizig	880	1	!	1210	1	blank2r.bmp	1340	0	0	0
020218	10:28:59	1	15	5.0.10.0	d080_A12_A2_unplB	dA12_valB_080	9	3	300	300	0	0	246	23	1	1	blank2r.bmp	0	1	+	0	4	B4r.bmp	500	1	blank2r.bmp	800	1	DHJF	800	1	blank2r.bmp	880	4	böse	880	1	!	1210	1	blank2r.bmp	1340	0	0	0
020218	10:28:59	1	15	5.0.10.0	d080_A12_A1_unplB	dA12_valB_080	9	4	300	300	0	0	208	18	1	1	blank2r.bmp	0	1	+	0	5	C1r.bmp	500	1	blank2r.bmp	800	1	NPLW	800	1	blank2r.bmp	880	3	ärger	880	1	!	1210	1	blank2r.bmp	1340	0	0	0
020218	10:28:59	1	15	5.0.10.0	d080_A12_A1_pleasB	dA12_valB_080	9	5	300	300	0	0	382	18	1	1	blank2r.bmp	0	1	+	0	6	C2r.bmp	500	1	blank2r.bmp	800	1	NPLW	800	1	blank2r.bmp	880	6	kreativ	880	1	!	1210	1	blank2r.bmp	1340	0	0	0
020218	10:28:59	1	15	5.0.10.0	d080_A12_A2_unplB	dA12_valB_080	9	6	300	300	0	0	514	23	1	1	blank2r.bmp	0	1	+	0	8	C4r.bmp	500	1	blank2r.bmp	800	1	DHJF	800	1	blank2r.bmp	880	5	kummer	880	1	!	1210	1	blank2r.bmp	1340	0	0	0
020218	10:28:59	1	15	5.0.10.0	d080_A12_A2_pleasB	dA12_valB_080	9	7	300	300	0	0	138	23	1	1	blank2r.bmp	0	1	+	0	3	B3r.bmp	500	1	blank2r.bmp	800	1	DHJF	800	1	blank2r.bmp	880	5	begabt	880	1	!	1210	1	blank2r.bmp	1340	0	0	0
020218	10:28:59	1	15	5.0.10.0	d080_A12_A2_pleasB	dA12_valB_080	9	8	300	300	0	0	128	23	1	1	blank2r.bmp	0	1	+	0	2	B2r.bmp	500	1	blank2r.bmp	800	1	DHJF	800	1	blank2r.bmp	880	2	mutig	880	1	!	1210	1	blank2r.bmp	1340	0	0	0
020218	10:28:59	1	15	5.0.10.0	d080_A12_A2_pleasB	dA12_valB_080	9	9	300	300	0	0	294	18	0	1	blank2r.bmp	0	1	+	0	3	B3r.bmp	500	1	blank2r.bmp	800	1	DHJF	800	1	blank2r.bmp	880	4	treu	880	1	!	1210	1	blank2r.bmp	1340	0	0	0
020218	10:28:59	1	15	5.0.10.0	d080_A12_A1_unplB	dA12_valB_080	9	10	300	300	0	0	238	18	1	1	blank2r.bmp	0	1	+	0	2	B2r.bmp	500	1	blank2r.bmp	800	1	NPLW	800	1	blank2r.bmp	880	1	grausam	880	1	!	1210	1	blank2r.bmp	1340	0	0	0
020218	10:28:59	1	15	5.0.10.0	d080_A12_A2_unplB	dA12_valB_080	9	11	300	300	0	0	330	18	0	1	blank2r.bmp	0	1	+	0	5	C1r.bmp	500	1	blank2r.bmp	800	1	DHJF	800	1	blank2r.bmp	880	6	traurig	880	1	!	1210	1	blank2r.bmp	1340	0	0	0
020218	10:28:59	1	15	5.0.10.0	d080_A12_A1_pleasB	dA12_valB_080	9	12	300	300	0	0	239	23	0	1	blank2r.bmp	0	1	+	0	8	C4r.bmp	500	1	blank2r.bmp	800	1	NPLW	800	1	blank2r.bmp	880	3	kuss	880	1	!	1210	1	blank2r.bmp	1340	0	0	0
020218	10:28:59	1	15	5.0.10.0	d080_A12_A1_unplB	dA12_valB_080	9	13	300	300	0	0	326	18	1	1	blank2r.bmp	0	1	+	0	6	C2r.bmp	500	1	blank2r.bmp	800	1	NPLW	800	1	blank2r.bmp	880	4	böse	880	1	!	1210	1	blank2r.bmp	1340	0	0	0
020218	10:28:59	1	15	5.0.10.0	d080_A12_A2_unplB	dA12_valB_080	9	14	300	300	0	0	329	23	1	1	blank2r.bmp	0	1	+	0	7	C3r.bmp	500	1	blank2r.bmp	800	1	DHJF	800	1	blank2r.bmp	880	1	grausam	880	1	!	1210	1	blank2r.bmp	1340	0	0	0
020218	10:28:59	1	15	5.0.10.0	d080_A12_A1_pleasB	dA12_valB_080	9	15	300	300	0	0	272	23	0	1	blank2r.bmp	0	1	+	0	4	B4r.bmp	500	1	blank2r.bmp	800	1	NPLW	800	1	blank2r.bmp	880	2	mutig	880	1	!	1210	1	blank2r.bmp	1340	0	0	0
020218	10:28:59	1	15	5.0.10.0	d080_A12_A2_pleasB	dA12_valB_080	9	16	300	300	0	0	58	23	1	1	blank2r.bmp	0	1	+	0	1	B1r.bmp	500	1	blank2r.bmp	800	1	DHJF	800	1	blank2r.bmp	880	5	begabt	880	1	!	1210	1	blank2r.bmp	1340	0	0	0
020218	10:28:59	1	15	5.0.10.0	d080_A12_A1_pleasB	dA12_valB_080	9	17	300	300	0	0	1233	18	1	1	blank2r.bmp	0	1	+	0	6	C2r.bmp	500	1	blank2r.bmp	800	1	NPLW	800	1	blank2r.bmp	880	3	kuss	880	1	!	1210	1	blank2r.bmp	1340	0	0	0
020218	10:28:59	1	15	5.0.10.0	d080_A12_A1_unplB	dA12_valB_080	9	18	300	300	0	0	364	18	1	1	blank2r.bmp	0	1	+	0	5	C1r.bmp	500	1	blank2r.bmp	800	1	NPLW	800	1	blank2r.bmp	880	3	ärger	880	1	!	1210	1	blank2r.bmp	1340	0	0	0
020218	10:28:59	1	15	5.0.10.0	d080_A12_A2_unplB	dA12_valB_080	9	19	300	300	0	0	4	18	0	1	blank2r.bmp	0	1	+	0	4	B4r.bmp	500	1	blank2r.bmp	800	1	DHJF	800	1	blank2r.bmp	880	5	kummer	880	1	!	1210	1	blank2r.bmp	1340	0	0	0
020218	10:28:59	1	15	5.0.10.0	d080_A12_A1_unplB	dA12_valB_080	9	20	300	300	0	0	142	23	0	1	blank2r.bmp	0	1	+	0	1	B1r.bmp	500	1	blank2r.bmp	800	1	NPLW	800	1	blank2r.bmp	880	6	traurig	880	1	!	1210	1	blank2r.bmp	1340	0	0	0
020218	10:28:59	1	15	5.0.10.0	d080_A12_A1_unplB	dA12_valB_080	9	21	300	300	0	0	275	18	1	1	blank2r.bmp	0	1	+	0	7	C3r.bmp	500	1	blank2r.bmp	800	1	NPLW	800	1	blank2r.bmp	880	2	geizig	880	1	!	1210	1	blank2r.bmp	1340	0	0	0
020218	10:28:59	1	15	5.0.10.0	d080_A12_A2_pleasB	dA12_valB_080	9	22	300	300	0	0	958	23	1	1	blank2r.bmp	0	1	+	0	2	B2r.bmp	500	1	blank2r.bmp	800	1	DHJF	800	1	blank2r.bmp	880	1	gut	880	1	!	1210	1	blank2r.bmp	1340	0	0	0
020218	10:28:59	1	15	5.0.10.0	d080_A12_A2_unplB	dA12_valB_080	9	23	300	300	0	0	133	18	0	1	blank2r.bmp	0	1	+	0	8	C4r.bmp	500	1	blank2r.bmp	800	1	DHJF	800	1	blank2r.bmp	880	2	geizig	880	1	!	1210	1	blank2r.bmp	1340	0	0	0
020218	10:28:59	1	15	5.0.10.0	d080_A12_A1_unplB	dA12_valB_080	9	24	300	300	0	0	723	23	0	1	blank2r.bmp	0	1	+	0	3	B3r.bmp	500	1	blank2r.bmp	800	1	NPLW	800	1	blank2r.bmp	880	3	ärger	880	1	!	1210	1	blank2r.bmp	1340	0	0	0
020218	10:28:59	1	15	5.0.10.0	d080_A12_A2_pleasB	dA12_valB_080	9	25	300	300	0	0	576	18	0	1	blank2r.bmp	0	1	+	0	7	C3r.bmp	500	1	blank2r.bmp	800	1	DHJF	800	1	blank2r.bmp	880	4	treu	880	1	!	1210	1	blank2r.bmp	1340	0	0	0
020218	10:28:59	1	15	5.0.10.0	d080_A12_A1_unplB	dA12_valB_080	9	26	300	300	0	0	1039	18	1	1	blank2r.bmp	0	1	+	0	6	C2r.bmp	500	1	blank2r.bmp	800	1	NPLW	800	1	blank2r.bmp	880	1	grausam	880	1	!	1210	1	blank2r.bmp	1340	0	0	0
020218	10:28:59	1	15	5.0.10.0	d080_A12_A1_pleasB	dA12_valB_080	9	27	300	300	0	0	274	18	1	1	blank2r.bmp	0	1	+	0	1	B1r.bmp	500	1	blank2r.bmp	800	1	NPLW	800	1	blank2r.bmp	880	6	kreativ	880	1	!	1210	1	blank2r.bmp	1340	0	0	0
020218	10:28:59	1	15	5.0.10.0	d080_A12_A1_unplB	dA12_valB_080	9	28	300	300	0	0	1311	23	0	1	blank2r.bmp	0	1	+	0	3	B3r.bmp	500	1	blank2r.bmp	800	1	NPLW	800	1	blank2r.bmp	880	4	böse	880	1	!	1210	1	blank2r.bmp	1340	0	0	0
020218	10:28:59	1	15	5.0.10.0	d080_A12_A1_unplB	dA12_valB_080	9	29	300	300	0	0	130	23	0	1	blank2r.bmp	0	1	+	0	4	B4r.bmp	500	1	blank2r.bmp	800	1	NPLW	800	1	blank2r.bmp	880	6	traurig	880	1	!	1210	1	blank2r.bmp	1340	0	0	0
020218	10:28:59	1	15	5.0.10.0	d080_A12_A1_pleasB	dA12_valB_080	9	30	300	300	0	0	596	23	0	1	blank2r.bmp	0	1	+	0	8	C4r.bmp	500	1	blank2r.bmp	800	1	NPLW	800	1	blank2r.bmp	880	4	treu	880	1	!	1210	1	blank2r.bmp	1340	0	0	0
020218	10:28:59	1	15	5.0.10.0	d080_A12_A2_pleasB	dA12_valB_080	9	31	300	300	0	0	645	18	0	1	blank2r.bmp	0	1	+	0	5	C1r.bmp	500	1	blank2r.bmp	800	1	DHJF	800	1	blank2r.bmp	880	5	begabt	880	1	!	1210	1	blank2r.bmp	1340	0	0	0
020218	10:28:59	1	15	5.0.10.0	d080_A12_A1_pleasB	dA12_valB_080	9	32	300	300	0	0	105	23	0	1	blank2r.bmp	0	1	+	0	2	B2r.bmp	500	1	blank2r.bmp	800	1	NPLW	800	1	blank2r.bmp	880	6	kreativ	880	1	!	1210	1	blank2r.bmp	1340	0	0	0
020218	10:28:59	1	15	5.0.10.0	d080_A12_A1_pleasB	dA12_valB_080	9	33	300	300	0	0	645	23	0	1	blank2r.bmp	0	1	+	0	3	B3r.bmp	500	1	blank2r.bmp	800	1	NPLW	800	1	blank2r.bmp	880	1	gut	880	1	!	1210	1	blank2r.bmp	1340	0	0	0
020218	10:28:59	1	15	5.0.10.0	d080_A12_A2_pleasB	dA12_valB_080	9	34	300	300	0	0	219	18	0	1	blank2r.bmp	0	1	+	0	8	C4r.bmp	500	1	blank2r.bmp	800	1	DHJF	800	1	blank2r.bmp	880	2	mutig	880	1	!	1210	1	blank2r.bmp	1340	0	0	0
020218	10:28:59	1	15	5.0.10.0	d080_A12_A1_pleasB	dA12_valB_080	9	35	300	300	0	0	188	18	1	1	blank2r.bmp	0	1	+	0	6	C2r.bmp	500	1	blank2r.bmp	800	1	NPLW	800	1	blank2r.bmp	880	3	kuss	880	1	!	1210	1	blank2r.bmp	1340	0	0	0
020218	10:28:59	1	15	5.0.10.0	d080_A12_A2_pleasB	dA12_valB_080	9	36	300	300	0	0	256	18	0	1	blank2r.bmp	0	1	+	0	5	C1r.bmp	500	1	blank2r.bmp	800	1	DHJF	800	1	blank2r.bmp	880	4	treu	880	1	!	1210	1	blank2r.bmp	1340	0	0	0
020218	10:28:59	1	15	5.0.10.0	d080_A12_A2_unplB	dA12_valB_080	9	37	300	300	0	0	817	18	0	1	blank2r.bmp	0	1	+	0	7	C3r.bmp	500	1	blank2r.bmp	800	1	DHJF	800	1	blank2r.bmp	880	5	kummer	880	1	!	1210	1	blank2r.bmp	1340	0	0	0
020218	10:28:59	1	15	5.0.10.0	d080_A12_A1_unplB	dA12_valB_080	9	38	300	300	0	0	332	23	0	1	blank2r.bmp	0	1	+	0	4	B4r.bmp	500	1	blank2r.bmp	800	1	NPLW	800	1	blank2r.bmp	880	6	traurig	880	1	!	1210	1	blank2r.bmp	1340	0	0	0
020218	10:28:59	1	15	5.0.10.0	d080_A12_A1_pleasB	dA12_valB_080	9	39	300	300	0	0	253	23	0	1	blank2r.bmp	0	1	+	0	2	B2r.bmp	500	1	blank2r.bmp	800	1	NPLW	800	1	blank2r.bmp	880	2	mutig	880	1	!	1210	1	blank2r.bmp	1340	0	0	0
020218	10:28:59	1	15	5.0.10.0	d080_A12_A2_pleasB	dA12_valB_080	9	40	300	300	0	0	180	18	0	1	blank2r.bmp	0	1	+	0	1	B1r.bmp	500	1	blank2r.bmp	800	1	DHJF	800	1	blank2r.bmp	880	1	gut	880	1	!	1210	1	blank2r.bmp	1340	0	0	0
020218	10:28:59	1	15	5.0.10.0	d080_A12_A2_pleasB	dA12_valB_080	9	41	300	300	0	0	564	18	0	1	blank2r.bmp	0	1	+	0	8	C4r.bmp	500	1	blank2r.bmp	800	1	DHJF	800	1	blank2r.bmp	880	3	kuss	880	1	!	1210	1	blank2r.bmp	1340	0	0	0
020218	10:28:59	1	15	5.0.10.0	d080_A12_A1_pleasB	dA12_valB_080	9	42	300	300	0	0	525	18	1	1	blank2r.bmp	0	1	+	0	7	C3r.bmp	500	1	blank2r.bmp	800	1	NPLW	800	1	blank2r.bmp	880	6	kreativ	880	1	!	1210	1	blank2r.bmp	1340	0	0	0
020218	10:28:59	1	15	5.0.10.0	d080_A12_A2_unplB	dA12_valB_080	9	43	300	300	0	0	1193	18	0	1	blank2r.bmp	0	1	+	0	5	C1r.bmp	500	1	blank2r.bmp	800	1	DHJF	800	1	blank2r.bmp	880	1	grausam	880	1	!	1210	1	blank2r.bmp	1340	0	0	0
020218	10:28:59	1	15	5.0.10.0	d080_A12_A2_unplB	dA12_valB_080	9	44	300	300	0	0	814	18	0	1	blank2r.bmp	0	1	+	0	3	B3r.bmp	500	1	blank2r.bmp	800	1	DHJF	800	1	blank2r.bmp	880	5	kummer	880	1	!	1210	1	blank2r.bmp	1340	0	0	0
020218	10:28:59	1	15	5.0.10.0	d080_A12_A2_unplB	dA12_valB_080	9	45	300	300	0	0	159	23	1	1	blank2r.bmp	0	1	+	0	6	C2r.bmp	500	1	blank2r.bmp	800	1	DHJF	800	1	blank2r.bmp	880	4	böse	880	1	!	1210	1	blank2r.bmp	1340	0	0	0
020218	10:28:59	1	15	5.0.10.0	d080_A12_A1_unplB	dA12_valB_080	9	46	300	300	0	0	1364	18	1	1	blank2r.bmp	0	1	+	0	4	B4r.bmp	500	1	blank2r.bmp	800	1	NPLW	800	1	blank2r.bmp	880	3	ärger	880	1	!	1210	1	blank2r.bmp	1340	0	0	0
020218	10:28:59	1	15	5.0.10.0	d080_A12_A1_pleasB	dA12_valB_080	9	47	300	300	0	0	439	23	0	1	blank2r.bmp	0	1	+	0	1	B1r.bmp	500	1	blank2r.bmp	800	1	NPLW	800	1	blank2r.bmp	880	5	begabt	880	1	!	1210	1	blank2r.bmp	1340	0	0	0
020218	10:28:59	1	15	5.0.10.0	d080_A12_A2_unplB	dA12_valB_080	9	48	300	300	0	0	1358	18	0	1	blank2r.bmp	0	1	+	0	2	B2r.bmp	500	1	blank2r.bmp	800	1	DHJF	800	1	blank2r.bmp	880	2	geizig	880	1	!	1210	1	blank2r.bmp	1340	0	0	0
020218	10:28:59	1	15	5.0.10.0	endtrial	endblock	10	1	300	300	0	0	4937351	Ctrl+'Q'	1	0	0	0	0	0	0	0	0	0	0	0	0	0	0	0	0	0	0	0	0	0	0	0	0	0	0	0	0	0	0
