date	time	group	subject	build	trialcode	blockcode	blocknum	trialnum	pretrialpause	posttrialpause	trialduration	trialtimeout	latency	response	correct	stimulusnumber1	stimulusitem1	stimulusonset1	stimulusnumber2	stimulusitem2	stimulusonset2	stimulusnumber3	stimulusitem3	stimulusonset3	stimulusnumber4	stimulusitem4	stimulusonset4	stimulusnumber5	stimulusitem5	stimulusonset5	stimulusnumber6	stimulusitem6	stimulusonset6	stimulusnumber7	stimulusitem7	stimulusonset7	stimulusnumber8	stimulusitem8	stimulusonset8	stimulusnumber9	stimulusitem9	stimulusonset9	stimulusnumber10	stimulusitem10	stimulusonset10
020218	11:17:52	1	16	5.0.10.0	dL_B21_B2_unplA	dB21_valA_pract1	1	1	300	300	0	0	2768	23	0	1	blank2r.bmp	0	1	+	0	4	B4r.bmp	500	1	blank2r.bmp	700	1	GKQX	700	7	C3r.bmp	830	1	blank2r.bmp	870	5	schlecht	870	1	!	1200	1	blank2r.bmp	1330
020218	11:17:52	1	16	5.0.10.0	dL_B21_B1_pleasA	dB21_valA_pract1	1	2	300	300	0	0	804	18	0	1	blank2r.bmp	0	1	+	0	1	B1r.bmp	500	1	blank2r.bmp	700	1	BMVZ	700	4	B4r.bmp	830	1	blank2r.bmp	870	6	froh	870	1	!	1200	1	blank2r.bmp	1330
020218	11:17:52	1	16	5.0.10.0	dL_B21_B1_pleasA	dB21_valA_pract1	1	3	300	300	0	0	136	23	1	1	blank2r.bmp	0	1	+	0	6	C2r.bmp	500	1	blank2r.bmp	700	1	BMVZ	700	1	B1r.bmp	830	1	blank2r.bmp	870	3	freund	870	1	!	1200	1	blank2r.bmp	1330
020218	11:17:52	1	16	5.0.10.0	dL_B21_B1_unplA	dB21_valA_pract1	1	4	300	300	0	0	117	23	1	1	blank2r.bmp	0	1	+	0	5	C1r.bmp	500	1	blank2r.bmp	700	1	BMVZ	700	8	C4r.bmp	830	1	blank2r.bmp	870	3	töten	870	1	!	1200	1	blank2r.bmp	1330
020218	11:17:52	1	16	5.0.10.0	dL_B21_B1_unplA	dB21_valA_pract1	1	5	300	300	0	0	230	18	0	1	blank2r.bmp	0	1	+	0	3	B3r.bmp	500	1	blank2r.bmp	700	1	BMVZ	700	5	C1r.bmp	830	1	blank2r.bmp	870	1	unfair	870	1	!	1200	1	blank2r.bmp	1330
020218	11:17:52	1	16	5.0.10.0	dL_B21_B2_unplA	dB21_valA_pract1	1	6	300	300	0	0	491	23	0	1	blank2r.bmp	0	1	+	0	2	B2r.bmp	500	1	blank2r.bmp	700	1	GKQX	700	3	B3r.bmp	830	1	blank2r.bmp	870	2	neidisch	870	1	!	1200	1	blank2r.bmp	1330
020218	11:17:52	1	16	5.0.10.0	dL_B21_B1_pleasA	dB21_valA_pract1	1	7	300	300	0	0	351	23	1	1	blank2r.bmp	0	1	+	0	7	C3r.bmp	500	1	blank2r.bmp	700	1	BMVZ	700	2	B2r.bmp	830	1	blank2r.bmp	870	2	schön	870	1	!	1200	1	blank2r.bmp	1330
020218	11:17:52	1	16	5.0.10.0	dL_B21_B1_unplA	dB21_valA_pract1	1	8	300	300	0	0	2723	23	1	1	blank2r.bmp	0	1	+	0	8	C4r.bmp	500	1	blank2r.bmp	700	1	BMVZ	700	6	C2r.bmp	830	1	blank2r.bmp	870	4	elend	870	1	!	1200	1	blank2r.bmp	1330
020218	11:17:52	1	16	5.0.10.0	dL_B21_B2_pleasA	dB21_valA_pract1	1	9	300	300	0	0	2432	23	0	1	blank2r.bmp	0	1	+	0	2	B2r.bmp	500	1	blank2r.bmp	700	1	GKQX	700	1	B1r.bmp	830	1	blank2r.bmp	870	4	heiter	870	1	!	1200	1	blank2r.bmp	1330
020218	11:17:52	1	16	5.0.10.0	dL_B21_B2_pleasA	dB21_valA_pract1	1	10	300	300	0	0	151	18	1	1	blank2r.bmp	0	1	+	0	5	C1r.bmp	500	1	blank2r.bmp	700	1	GKQX	700	7	C3r.bmp	830	1	blank2r.bmp	870	1	toll	870	1	!	1200	1	blank2r.bmp	1330
020218	11:17:52	1	16	5.0.10.0	dL_B21_B2_pleasA	dB21_valA_pract1	1	11	300	300	0	0	6240	23	0	1	blank2r.bmp	0	1	+	0	3	B3r.bmp	500	1	blank2r.bmp	700	1	GKQX	700	2	B2r.bmp	830	1	blank2r.bmp	870	5	friedlich	870	1	!	1200	1	blank2r.bmp	1330
020218	11:17:52	1	16	5.0.10.0	dL_B21_B2_unplA	dB21_valA_pract1	1	12	300	300	0	0	953	18	1	1	blank2r.bmp	0	1	+	0	6	C2r.bmp	500	1	blank2r.bmp	700	1	GKQX	700	8	C4r.bmp	830	1	blank2r.bmp	870	6	leiden	870	1	!	1200	1	blank2r.bmp	1330
020218	11:17:52	1	16	5.0.10.0	dM_B21_B2_unplA	dB21_valA_pract2	2	1	300	300	0	0	367	18	1	1	blank2r.bmp	0	1	+	0	4	B4r.bmp	500	1	blank2r.bmp	730	1	GKQX	730	3	B3r.bmp	830	1	blank2r.bmp	870	3	töten	870	1	!	1200	1	blank2r.bmp	1330
020218	11:17:52	1	16	5.0.10.0	dM_B21_B1_unplA	dB21_valA_pract2	2	2	300	300	0	0	136	18	0	1	blank2r.bmp	0	1	+	0	1	B1r.bmp	500	1	blank2r.bmp	730	1	BMVZ	730	5	C1r.bmp	830	1	blank2r.bmp	870	6	leiden	870	1	!	1200	1	blank2r.bmp	1330
020218	11:17:52	1	16	5.0.10.0	dM_B21_B1_pleasA	dB21_valA_pract2	2	3	300	300	0	0	4034	23	1	1	blank2r.bmp	0	1	+	0	7	C3r.bmp	500	1	blank2r.bmp	730	1	BMVZ	730	4	B4r.bmp	830	1	blank2r.bmp	870	4	heiter	870	1	!	1200	1	blank2r.bmp	1330
020218	11:17:52	1	16	5.0.10.0	dM_B21_B1_unplA	dB21_valA_pract2	2	4	300	300	0	0	334	23	1	1	blank2r.bmp	0	1	+	0	8	C4r.bmp	500	1	blank2r.bmp	730	1	BMVZ	730	6	C2r.bmp	830	1	blank2r.bmp	870	4	elend	870	1	!	1200	1	blank2r.bmp	1330
020218	11:17:52	1	16	5.0.10.0	dM_B21_B2_pleasA	dB21_valA_pract2	2	5	300	300	0	0	774	23	0	1	blank2r.bmp	0	1	+	0	2	B2r.bmp	500	1	blank2r.bmp	730	1	GKQX	730	7	C3r.bmp	830	1	blank2r.bmp	870	3	freund	870	1	!	1200	1	blank2r.bmp	1330
020218	11:17:52	1	16	5.0.10.0	dM_B21_B2_unplA	dB21_valA_pract2	2	6	300	300	0	0	257	18	1	1	blank2r.bmp	0	1	+	0	3	B3r.bmp	500	1	blank2r.bmp	730	1	GKQX	730	4	B4r.bmp	830	1	blank2r.bmp	870	2	neidisch	870	1	!	1200	1	blank2r.bmp	1330
020218	11:17:52	1	16	5.0.10.0	dM_B21_B2_pleasA	dB21_valA_pract2	2	7	300	300	0	0	758	18	1	1	blank2r.bmp	0	1	+	0	8	C4r.bmp	500	1	blank2r.bmp	730	1	GKQX	730	5	C1r.bmp	830	1	blank2r.bmp	870	6	froh	870	1	!	1200	1	blank2r.bmp	1330
020218	11:17:52	1	16	5.0.10.0	dM_B21_B1_pleasA	dB21_valA_pract2	2	8	300	300	0	0	611	23	1	1	blank2r.bmp	0	1	+	0	5	C1r.bmp	500	1	blank2r.bmp	730	1	BMVZ	730	2	B2r.bmp	830	1	blank2r.bmp	870	2	schön	870	1	!	1200	1	blank2r.bmp	1330
020218	11:17:52	1	16	5.0.10.0	dM_B21_B2_pleasA	dB21_valA_pract2	2	9	300	300	0	0	170	18	1	1	blank2r.bmp	0	1	+	0	6	C2r.bmp	500	1	blank2r.bmp	730	1	GKQX	730	8	C4r.bmp	830	1	blank2r.bmp	870	1	toll	870	1	!	1200	1	blank2r.bmp	1330
020218	11:17:52	1	16	5.0.10.0	dM_B21_B1_unplA	dB21_valA_pract2	2	10	300	300	0	0	479	23	1	1	blank2r.bmp	0	1	+	0	1	B1r.bmp	500	1	blank2r.bmp	730	1	BMVZ	730	3	B3r.bmp	830	1	blank2r.bmp	870	5	schlecht	870	1	!	1200	1	blank2r.bmp	1330
020218	11:17:52	1	16	5.0.10.0	dM_B21_B1_pleasA	dB21_valA_pract2	2	11	300	300	0	0	214	18	0	1	blank2r.bmp	0	1	+	0	7	C3r.bmp	500	1	blank2r.bmp	730	1	BMVZ	730	6	C2r.bmp	830	1	blank2r.bmp	870	5	friedlich	870	1	!	1200	1	blank2r.bmp	1330
020218	11:17:52	1	16	5.0.10.0	dM_B21_B2_unplA	dB21_valA_pract2	2	12	300	300	0	0	3810	23	0	1	blank2r.bmp	0	1	+	0	4	B4r.bmp	500	1	blank2r.bmp	730	1	GKQX	730	1	B1r.bmp	830	1	blank2r.bmp	870	1	unfair	870	1	!	1200	1	blank2r.bmp	1330
020218	11:17:52	1	16	5.0.10.0	d070_B21_B1_pleasA	dB21_valA_070	3	1	300	300	0	0	473	18	0	1	blank2r.bmp	0	1	+	0	5	C1r.bmp	500	1	blank2r.bmp	800	1	BMVZ	800	1	blank2r.bmp	870	6	froh	870	1	!	1200	1	blank2r.bmp	1330	0	0	0
020218	11:17:52	1	16	5.0.10.0	d070_B21_B1_unplA	dB21_valA_070	3	2	300	300	0	0	420	18	0	1	blank2r.bmp	0	1	+	0	7	C3r.bmp	500	1	blank2r.bmp	800	1	BMVZ	800	1	blank2r.bmp	870	3	töten	870	1	!	1200	1	blank2r.bmp	1330	0	0	0
020218	11:17:52	1	16	5.0.10.0	d070_B21_B2_pleasA	dB21_valA_070	3	3	300	300	0	0	3066	18	1	1	blank2r.bmp	0	1	+	0	8	C4r.bmp	500	1	blank2r.bmp	800	1	GKQX	800	1	blank2r.bmp	870	3	freund	870	1	!	1200	1	blank2r.bmp	1330	0	0	0
020218	11:17:52	1	16	5.0.10.0	d070_B21_B2_unplA	dB21_valA_070	3	4	300	300	0	0	760	23	0	1	blank2r.bmp	0	1	+	0	4	B4r.bmp	500	1	blank2r.bmp	800	1	GKQX	800	1	blank2r.bmp	870	2	neidisch	870	1	!	1200	1	blank2r.bmp	1330	0	0	0
020218	11:17:52	1	16	5.0.10.0	d070_B21_B1_pleasA	dB21_valA_070	3	5	300	300	0	0	582	18	0	1	blank2r.bmp	0	1	+	0	1	B1r.bmp	500	1	blank2r.bmp	800	1	BMVZ	800	1	blank2r.bmp	870	1	toll	870	1	!	1200	1	blank2r.bmp	1330	0	0	0
020218	11:17:52	1	16	5.0.10.0	d070_B21_B1_unplA	dB21_valA_070	3	6	300	300	0	0	1025	18	0	1	blank2r.bmp	0	1	+	0	3	B3r.bmp	500	1	blank2r.bmp	800	1	BMVZ	800	1	blank2r.bmp	870	4	elend	870	1	!	1200	1	blank2r.bmp	1330	0	0	0
020218	11:17:52	1	16	5.0.10.0	d070_B21_B2_unplA	dB21_valA_070	3	7	300	300	0	0	516	18	1	1	blank2r.bmp	0	1	+	0	6	C2r.bmp	500	1	blank2r.bmp	800	1	GKQX	800	1	blank2r.bmp	870	6	leiden	870	1	!	1200	1	blank2r.bmp	1330	0	0	0
020218	11:17:52	1	16	5.0.10.0	d070_B21_B2_unplA	dB21_valA_070	3	8	300	300	0	0	160	23	0	1	blank2r.bmp	0	1	+	0	2	B2r.bmp	500	1	blank2r.bmp	800	1	GKQX	800	1	blank2r.bmp	870	1	unfair	870	1	!	1200	1	blank2r.bmp	1330	0	0	0
020218	11:17:52	1	16	5.0.10.0	d070_B21_B2_unplA	dB21_valA_070	3	9	300	300	0	0	730	23	0	1	blank2r.bmp	0	1	+	0	4	B4r.bmp	500	1	blank2r.bmp	800	1	GKQX	800	1	blank2r.bmp	870	5	schlecht	870	1	!	1200	1	blank2r.bmp	1330	0	0	0
020218	11:17:52	1	16	5.0.10.0	d070_B21_B2_pleasA	dB21_valA_070	3	10	300	300	0	0	477	18	1	1	blank2r.bmp	0	1	+	0	3	B3r.bmp	500	1	blank2r.bmp	800	1	GKQX	800	1	blank2r.bmp	870	4	heiter	870	1	!	1200	1	blank2r.bmp	1330	0	0	0
020218	11:17:52	1	16	5.0.10.0	d070_B21_B2_pleasA	dB21_valA_070	3	11	300	300	0	0	520	18	1	1	blank2r.bmp	0	1	+	0	1	B1r.bmp	500	1	blank2r.bmp	800	1	GKQX	800	1	blank2r.bmp	870	2	schön	870	1	!	1200	1	blank2r.bmp	1330	0	0	0
020218	11:17:52	1	16	5.0.10.0	d070_B21_B1_pleasA	dB21_valA_070	3	12	300	300	0	0	231	18	0	1	blank2r.bmp	0	1	+	0	6	C2r.bmp	500	1	blank2r.bmp	800	1	BMVZ	800	1	blank2r.bmp	870	5	friedlich	870	1	!	1200	1	blank2r.bmp	1330	0	0	0
020218	11:17:52	1	16	5.0.10.0	d070_B21_B1_unplA	dB21_valA_070	3	13	300	300	0	0	271	18	0	1	blank2r.bmp	0	1	+	0	8	C4r.bmp	500	1	blank2r.bmp	800	1	BMVZ	800	1	blank2r.bmp	870	3	töten	870	1	!	1200	1	blank2r.bmp	1330	0	0	0
020218	11:17:52	1	16	5.0.10.0	d070_B21_B1_unplA	dB21_valA_070	3	14	300	300	0	0	85	23	1	1	blank2r.bmp	0	1	+	0	5	C1r.bmp	500	1	blank2r.bmp	800	1	BMVZ	800	1	blank2r.bmp	870	5	schlecht	870	1	!	1200	1	blank2r.bmp	1330	0	0	0
020218	11:17:52	1	16	5.0.10.0	d070_B21_B1_unplA	dB21_valA_070	3	15	300	300	0	0	447	18	0	1	blank2r.bmp	0	1	+	0	7	C3r.bmp	500	1	blank2r.bmp	800	1	BMVZ	800	1	blank2r.bmp	870	4	elend	870	1	!	1200	1	blank2r.bmp	1330	0	0	0
020218	11:17:52	1	16	5.0.10.0	d070_B21_B2_unplA	dB21_valA_070	3	16	300	300	0	0	964	18	1	1	blank2r.bmp	0	1	+	0	2	B2r.bmp	500	1	blank2r.bmp	800	1	GKQX	800	1	blank2r.bmp	870	2	neidisch	870	1	!	1200	1	blank2r.bmp	1330	0	0	0
020218	11:17:52	1	16	5.0.10.0	d070_B21_B1_unplA	dB21_valA_070	3	17	300	300	0	0	491	18	0	1	blank2r.bmp	0	1	+	0	2	B2r.bmp	500	1	blank2r.bmp	800	1	BMVZ	800	1	blank2r.bmp	870	6	leiden	870	1	!	1200	1	blank2r.bmp	1330	0	0	0
020218	11:17:52	1	16	5.0.10.0	d070_B21_B1_pleasA	dB21_valA_070	3	18	300	300	0	0	318	18	0	1	blank2r.bmp	0	1	+	0	1	B1r.bmp	500	1	blank2r.bmp	800	1	BMVZ	800	1	blank2r.bmp	870	2	schön	870	1	!	1200	1	blank2r.bmp	1330	0	0	0
020218	11:17:52	1	16	5.0.10.0	d070_B21_B2_unplA	dB21_valA_070	3	19	300	300	0	0	458	18	1	1	blank2r.bmp	0	1	+	0	4	B4r.bmp	500	1	blank2r.bmp	800	1	GKQX	800	1	blank2r.bmp	870	1	unfair	870	1	!	1200	1	blank2r.bmp	1330	0	0	0
020218	11:17:52	1	16	5.0.10.0	d070_B21_B1_unplA	dB21_valA_070	3	20	300	300	0	0	107	23	1	1	blank2r.bmp	0	1	+	0	7	C3r.bmp	500	1	blank2r.bmp	800	1	BMVZ	800	1	blank2r.bmp	870	5	schlecht	870	1	!	1200	1	blank2r.bmp	1330	0	0	0
020218	11:17:52	1	16	5.0.10.0	d070_B21_B2_unplA	dB21_valA_070	3	21	300	300	0	0	1695	23	0	1	blank2r.bmp	0	1	+	0	6	C2r.bmp	500	1	blank2r.bmp	800	1	GKQX	800	1	blank2r.bmp	870	3	töten	870	1	!	1200	1	blank2r.bmp	1330	0	0	0
020218	11:17:52	1	16	5.0.10.0	d070_B21_B1_unplA	dB21_valA_070	3	22	300	300	0	0	307	23	1	1	blank2r.bmp	0	1	+	0	5	C1r.bmp	500	1	blank2r.bmp	800	1	BMVZ	800	1	blank2r.bmp	870	6	leiden	870	1	!	1200	1	blank2r.bmp	1330	0	0	0
020218	11:17:52	1	16	5.0.10.0	d070_B21_B2_pleasA	dB21_valA_070	3	23	300	300	0	0	324	23	0	1	blank2r.bmp	0	1	+	0	3	B3r.bmp	500	1	blank2r.bmp	800	1	GKQX	800	1	blank2r.bmp	870	6	froh	870	1	!	1200	1	blank2r.bmp	1330	0	0	0
020218	11:17:52	1	16	5.0.10.0	d070_B21_B1_pleasA	dB21_valA_070	3	24	300	300	0	0	718	18	0	1	blank2r.bmp	0	1	+	0	8	C4r.bmp	500	1	blank2r.bmp	800	1	BMVZ	800	1	blank2r.bmp	870	5	friedlich	870	1	!	1200	1	blank2r.bmp	1330	0	0	0
020218	11:17:52	1	16	5.0.10.0	d070_B21_B1_pleasA	dB21_valA_070	3	25	300	300	0	0	754	18	0	1	blank2r.bmp	0	1	+	0	3	B3r.bmp	500	1	blank2r.bmp	800	1	BMVZ	800	1	blank2r.bmp	870	3	freund	870	1	!	1200	1	blank2r.bmp	1330	0	0	0
020218	11:17:52	1	16	5.0.10.0	d070_B21_B2_pleasA	dB21_valA_070	3	26	300	300	0	0	493	23	0	1	blank2r.bmp	0	1	+	0	1	B1r.bmp	500	1	blank2r.bmp	800	1	GKQX	800	1	blank2r.bmp	870	1	toll	870	1	!	1200	1	blank2r.bmp	1330	0	0	0
020218	11:17:52	1	16	5.0.10.0	d070_B21_B2_unplA	dB21_valA_070	3	27	300	300	0	0	130	18	1	1	blank2r.bmp	0	1	+	0	6	C2r.bmp	500	1	blank2r.bmp	800	1	GKQX	800	1	blank2r.bmp	870	1	unfair	870	1	!	1200	1	blank2r.bmp	1330	0	0	0
020218	11:17:52	1	16	5.0.10.0	d070_B21_B1_unplA	dB21_valA_070	3	28	300	300	0	0	501	18	0	1	blank2r.bmp	0	1	+	0	5	C1r.bmp	500	1	blank2r.bmp	800	1	BMVZ	800	1	blank2r.bmp	870	4	elend	870	1	!	1200	1	blank2r.bmp	1330	0	0	0
020218	11:17:52	1	16	5.0.10.0	d070_B21_B2_unplA	dB21_valA_070	3	29	300	300	0	0	862	18	1	1	blank2r.bmp	0	1	+	0	8	C4r.bmp	500	1	blank2r.bmp	800	1	GKQX	800	1	blank2r.bmp	870	2	neidisch	870	1	!	1200	1	blank2r.bmp	1330	0	0	0
020218	11:17:52	1	16	5.0.10.0	d070_B21_B1_unplA	dB21_valA_070	3	30	300	300	0	0	326	23	1	1	blank2r.bmp	0	1	+	0	2	B2r.bmp	500	1	blank2r.bmp	800	1	BMVZ	800	1	blank2r.bmp	870	3	töten	870	1	!	1200	1	blank2r.bmp	1330	0	0	0
020218	11:17:52	1	16	5.0.10.0	d070_B21_B2_pleasA	dB21_valA_070	3	31	300	300	0	0	769	23	0	1	blank2r.bmp	0	1	+	0	4	B4r.bmp	500	1	blank2r.bmp	800	1	GKQX	800	1	blank2r.bmp	870	4	heiter	870	1	!	1200	1	blank2r.bmp	1330	0	0	0
020218	11:17:52	1	16	5.0.10.0	d070_B21_B1_pleasA	dB21_valA_070	3	32	300	300	0	0	927	23	1	1	blank2r.bmp	0	1	+	0	7	C3r.bmp	500	1	blank2r.bmp	800	1	BMVZ	800	1	blank2r.bmp	870	1	toll	870	1	!	1200	1	blank2r.bmp	1330	0	0	0
020218	11:17:52	1	16	5.0.10.0	d070_B21_B1_pleasA	dB21_valA_070	3	33	300	300	0	0	385	23	1	1	blank2r.bmp	0	1	+	0	2	B2r.bmp	500	1	blank2r.bmp	800	1	BMVZ	800	1	blank2r.bmp	870	5	friedlich	870	1	!	1200	1	blank2r.bmp	1330	0	0	0
020218	11:17:52	1	16	5.0.10.0	d070_B21_B1_pleasA	dB21_valA_070	3	34	300	300	0	0	830	18	0	1	blank2r.bmp	0	1	+	0	7	C3r.bmp	500	1	blank2r.bmp	800	1	BMVZ	800	1	blank2r.bmp	870	2	schön	870	1	!	1200	1	blank2r.bmp	1330	0	0	0
020218	11:17:52	1	16	5.0.10.0	d070_B21_B2_unplA	dB21_valA_070	3	35	300	300	0	0	308	18	1	1	blank2r.bmp	0	1	+	0	6	C2r.bmp	500	1	blank2r.bmp	800	1	GKQX	800	1	blank2r.bmp	870	2	neidisch	870	1	!	1200	1	blank2r.bmp	1330	0	0	0
020218	11:17:52	1	16	5.0.10.0	d070_B21_B1_unplA	dB21_valA_070	3	36	300	300	0	0	804	18	0	1	blank2r.bmp	0	1	+	0	1	B1r.bmp	500	1	blank2r.bmp	800	1	BMVZ	800	1	blank2r.bmp	870	4	elend	870	1	!	1200	1	blank2r.bmp	1330	0	0	0
020218	11:17:52	1	16	5.0.10.0	d070_B21_B2_pleasA	dB21_valA_070	3	37	300	300	0	0	171	18	1	1	blank2r.bmp	0	1	+	0	3	B3r.bmp	500	1	blank2r.bmp	800	1	GKQX	800	1	blank2r.bmp	870	6	froh	870	1	!	1200	1	blank2r.bmp	1330	0	0	0
020218	11:17:52	1	16	5.0.10.0	d070_B21_B1_unplA	dB21_valA_070	3	38	300	300	0	0	517	18	0	1	blank2r.bmp	0	1	+	0	5	C1r.bmp	500	1	blank2r.bmp	800	1	BMVZ	800	1	blank2r.bmp	870	1	unfair	870	1	!	1200	1	blank2r.bmp	1330	0	0	0
020218	11:17:52	1	16	5.0.10.0	d070_B21_B2_pleasA	dB21_valA_070	3	39	300	300	0	0	336	23	0	1	blank2r.bmp	0	1	+	0	8	C4r.bmp	500	1	blank2r.bmp	800	1	GKQX	800	1	blank2r.bmp	870	4	heiter	870	1	!	1200	1	blank2r.bmp	1330	0	0	0
020218	11:17:52	1	16	5.0.10.0	d070_B21_B2_unplA	dB21_valA_070	3	40	300	300	0	0	123	18	1	1	blank2r.bmp	0	1	+	0	4	B4r.bmp	500	1	blank2r.bmp	800	1	GKQX	800	1	blank2r.bmp	870	6	leiden	870	1	!	1200	1	blank2r.bmp	1330	0	0	0
020218	11:17:52	1	16	5.0.10.0	d070_B21_B1_pleasA	dB21_valA_070	3	41	300	300	0	0	629	18	0	1	blank2r.bmp	0	1	+	0	4	B4r.bmp	500	1	blank2r.bmp	800	1	BMVZ	800	1	blank2r.bmp	870	3	freund	870	1	!	1200	1	blank2r.bmp	1330	0	0	0
020218	11:17:52	1	16	5.0.10.0	d070_B21_B2_pleasA	dB21_valA_070	3	42	300	300	0	0	492	23	0	1	blank2r.bmp	0	1	+	0	6	C2r.bmp	500	1	blank2r.bmp	800	1	GKQX	800	1	blank2r.bmp	870	4	heiter	870	1	!	1200	1	blank2r.bmp	1330	0	0	0
020218	11:17:52	1	16	5.0.10.0	d070_B21_B1_pleasA	dB21_valA_070	3	43	300	300	0	0	439	18	0	1	blank2r.bmp	0	1	+	0	8	C4r.bmp	500	1	blank2r.bmp	800	1	BMVZ	800	1	blank2r.bmp	870	3	freund	870	1	!	1200	1	blank2r.bmp	1330	0	0	0
020218	11:17:52	1	16	5.0.10.0	d070_B21_B2_pleasA	dB21_valA_070	3	44	300	300	0	0	415	18	1	1	blank2r.bmp	0	1	+	0	1	B1r.bmp	500	1	blank2r.bmp	800	1	GKQX	800	1	blank2r.bmp	870	2	schön	870	1	!	1200	1	blank2r.bmp	1330	0	0	0
020218	11:17:52	1	16	5.0.10.0	d070_B21_B2_pleasA	dB21_valA_070	3	45	300	300	0	0	672	23	0	1	blank2r.bmp	0	1	+	0	2	B2r.bmp	500	1	blank2r.bmp	800	1	GKQX	800	1	blank2r.bmp	870	5	friedlich	870	1	!	1200	1	blank2r.bmp	1330	0	0	0
020218	11:17:52	1	16	5.0.10.0	d070_B21_B2_pleasA	dB21_valA_070	3	46	300	300	0	0	514	18	1	1	blank2r.bmp	0	1	+	0	5	C1r.bmp	500	1	blank2r.bmp	800	1	GKQX	800	1	blank2r.bmp	870	1	toll	870	1	!	1200	1	blank2r.bmp	1330	0	0	0
020218	11:17:52	1	16	5.0.10.0	d070_B21_B2_unplA	dB21_valA_070	3	47	300	300	0	0	496	18	1	1	blank2r.bmp	0	1	+	0	7	C3r.bmp	500	1	blank2r.bmp	800	1	GKQX	800	1	blank2r.bmp	870	5	schlecht	870	1	!	1200	1	blank2r.bmp	1330	0	0	0
020218	11:17:52	1	16	5.0.10.0	d070_B21_B1_pleasA	dB21_valA_070	3	48	300	300	0	0	602	18	0	1	blank2r.bmp	0	1	+	0	3	B3r.bmp	500	1	blank2r.bmp	800	1	BMVZ	800	1	blank2r.bmp	870	6	froh	870	1	!	1200	1	blank2r.bmp	1330	0	0	0
020218	11:17:52	1	16	5.0.10.0	d070_B21_B1_pleasA	dB21_valA_070	4	1	300	300	0	0	16	18	0	1	blank2r.bmp	0	1	+	0	5	C1r.bmp	500	1	blank2r.bmp	800	1	BMVZ	800	1	blank2r.bmp	870	1	toll	870	1	!	1200	1	blank2r.bmp	1330	0	0	0
020218	11:17:52	1	16	5.0.10.0	d070_B21_B2_pleasA	dB21_valA_070	4	2	300	300	0	0	2118	18	1	1	blank2r.bmp	0	1	+	0	4	B4r.bmp	500	1	blank2r.bmp	800	1	GKQX	800	1	blank2r.bmp	870	2	schön	870	1	!	1200	1	blank2r.bmp	1330	0	0	0
020218	11:17:52	1	16	5.0.10.0	d070_B21_B1_unplA	dB21_valA_070	4	3	300	300	0	0	424	18	0	1	blank2r.bmp	0	1	+	0	2	B2r.bmp	500	1	blank2r.bmp	800	1	BMVZ	800	1	blank2r.bmp	870	6	leiden	870	1	!	1200	1	blank2r.bmp	1330	0	0	0
020218	11:17:52	1	16	5.0.10.0	d070_B21_B1_unplA	dB21_valA_070	4	4	300	300	0	0	463	18	0	1	blank2r.bmp	0	1	+	0	3	B3r.bmp	500	1	blank2r.bmp	800	1	BMVZ	800	1	blank2r.bmp	870	4	elend	870	1	!	1200	1	blank2r.bmp	1330	0	0	0
020218	11:17:52	1	16	5.0.10.0	d070_B21_B2_pleasA	dB21_valA_070	4	5	300	300	0	0	577	18	1	1	blank2r.bmp	0	1	+	0	6	C2r.bmp	500	1	blank2r.bmp	800	1	GKQX	800	1	blank2r.bmp	870	3	freund	870	1	!	1200	1	blank2r.bmp	1330	0	0	0
020218	11:17:52	1	16	5.0.10.0	d070_B21_B1_unplA	dB21_valA_070	4	6	300	300	0	0	440	23	1	1	blank2r.bmp	0	1	+	0	1	B1r.bmp	500	1	blank2r.bmp	800	1	BMVZ	800	1	blank2r.bmp	870	5	schlecht	870	1	!	1200	1	blank2r.bmp	1330	0	0	0
020218	11:17:52	1	16	5.0.10.0	d070_B21_B2_pleasA	dB21_valA_070	4	7	300	300	0	0	656	23	0	1	blank2r.bmp	0	1	+	0	8	C4r.bmp	500	1	blank2r.bmp	800	1	GKQX	800	1	blank2r.bmp	870	4	heiter	870	1	!	1200	1	blank2r.bmp	1330	0	0	0
020218	11:17:52	1	16	5.0.10.0	d070_B21_B2_unplA	dB21_valA_070	4	8	300	300	0	0	259	18	1	1	blank2r.bmp	0	1	+	0	7	C3r.bmp	500	1	blank2r.bmp	800	1	GKQX	800	1	blank2r.bmp	870	2	neidisch	870	1	!	1200	1	blank2r.bmp	1330	0	0	0
020218	11:17:52	1	16	5.0.10.0	d070_B21_B2_unplA	dB21_valA_070	4	9	300	300	0	0	309	23	0	1	blank2r.bmp	0	1	+	0	1	B1r.bmp	500	1	blank2r.bmp	800	1	GKQX	800	1	blank2r.bmp	870	3	töten	870	1	!	1200	1	blank2r.bmp	1330	0	0	0
020218	11:17:52	1	16	5.0.10.0	d070_B21_B1_unplA	dB21_valA_070	4	10	300	300	0	0	126	18	0	1	blank2r.bmp	0	1	+	0	4	B4r.bmp	500	1	blank2r.bmp	800	1	BMVZ	800	1	blank2r.bmp	870	1	unfair	870	1	!	1200	1	blank2r.bmp	1330	0	0	0
020218	11:17:52	1	16	5.0.10.0	d070_B21_B1_pleasA	dB21_valA_070	4	11	300	300	0	0	581	23	1	1	blank2r.bmp	0	1	+	0	6	C2r.bmp	500	1	blank2r.bmp	800	1	BMVZ	800	1	blank2r.bmp	870	5	friedlich	870	1	!	1200	1	blank2r.bmp	1330	0	0	0
020218	11:17:52	1	16	5.0.10.0	d070_B21_B1_unplA	dB21_valA_070	4	12	300	300	0	0	26	18	0	1	blank2r.bmp	0	1	+	0	2	B2r.bmp	500	1	blank2r.bmp	800	1	BMVZ	800	1	blank2r.bmp	870	5	schlecht	870	1	!	1200	1	blank2r.bmp	1330	0	0	0
020218	11:17:52	1	16	5.0.10.0	d070_B21_B1_pleasA	dB21_valA_070	4	13	300	300	0	0	2218	23	1	1	blank2r.bmp	0	1	+	0	8	C4r.bmp	500	1	blank2r.bmp	800	1	BMVZ	800	1	blank2r.bmp	870	6	froh	870	1	!	1200	1	blank2r.bmp	1330	0	0	0
020218	11:17:52	1	16	5.0.10.0	d070_B21_B1_unplA	dB21_valA_070	4	14	300	300	0	0	259	18	0	1	blank2r.bmp	0	1	+	0	3	B3r.bmp	500	1	blank2r.bmp	800	1	BMVZ	800	1	blank2r.bmp	870	4	elend	870	1	!	1200	1	blank2r.bmp	1330	0	0	0
020218	11:17:52	1	16	5.0.10.0	d070_B21_B2_unplA	dB21_valA_070	4	15	300	300	0	0	485	18	1	1	blank2r.bmp	0	1	+	0	5	C1r.bmp	500	1	blank2r.bmp	800	1	GKQX	800	1	blank2r.bmp	870	1	unfair	870	1	!	1200	1	blank2r.bmp	1330	0	0	0
020218	11:17:52	1	16	5.0.10.0	d070_B21_B2_pleasA	dB21_valA_070	4	16	300	300	0	0	206	18	1	1	blank2r.bmp	0	1	+	0	7	C3r.bmp	500	1	blank2r.bmp	800	1	GKQX	800	1	blank2r.bmp	870	5	friedlich	870	1	!	1200	1	blank2r.bmp	1330	0	0	0
020218	11:17:52	1	16	5.0.10.0	d070_B21_B2_unplA	dB21_valA_070	4	17	300	300	0	0	800	23	0	1	blank2r.bmp	0	1	+	0	1	B1r.bmp	500	1	blank2r.bmp	800	1	GKQX	800	1	blank2r.bmp	870	6	leiden	870	1	!	1200	1	blank2r.bmp	1330	0	0	0
020218	11:17:52	1	16	5.0.10.0	d070_B21_B1_pleasA	dB21_valA_070	4	18	300	300	0	0	881	23	1	1	blank2r.bmp	0	1	+	0	2	B2r.bmp	500	1	blank2r.bmp	800	1	BMVZ	800	1	blank2r.bmp	870	4	heiter	870	1	!	1200	1	blank2r.bmp	1330	0	0	0
020218	11:17:52	1	16	5.0.10.0	d070_B21_B2_unplA	dB21_valA_070	4	19	300	300	0	0	153	18	1	1	blank2r.bmp	0	1	+	0	5	C1r.bmp	500	1	blank2r.bmp	800	1	GKQX	800	1	blank2r.bmp	870	3	töten	870	1	!	1200	1	blank2r.bmp	1330	0	0	0
020218	11:17:52	1	16	5.0.10.0	d070_B21_B1_pleasA	dB21_valA_070	4	20	300	300	0	0	524	18	0	1	blank2r.bmp	0	1	+	0	3	B3r.bmp	500	1	blank2r.bmp	800	1	BMVZ	800	1	blank2r.bmp	870	2	schön	870	1	!	1200	1	blank2r.bmp	1330	0	0	0
020218	11:17:52	1	16	5.0.10.0	d070_B21_B1_unplA	dB21_valA_070	4	21	300	300	0	0	701	18	0	1	blank2r.bmp	0	1	+	0	4	B4r.bmp	500	1	blank2r.bmp	800	1	BMVZ	800	1	blank2r.bmp	870	2	neidisch	870	1	!	1200	1	blank2r.bmp	1330	0	0	0
020218	11:17:52	1	16	5.0.10.0	d070_B21_B2_pleasA	dB21_valA_070	4	22	300	300	0	0	101	23	0	1	blank2r.bmp	0	1	+	0	6	C2r.bmp	500	1	blank2r.bmp	800	1	GKQX	800	1	blank2r.bmp	870	1	toll	870	1	!	1200	1	blank2r.bmp	1330	0	0	0
020218	11:17:52	1	16	5.0.10.0	d070_B21_B2_pleasA	dB21_valA_070	4	23	300	300	0	0	2290	23	0	1	blank2r.bmp	0	1	+	0	8	C4r.bmp	500	1	blank2r.bmp	800	1	GKQX	800	1	blank2r.bmp	870	3	freund	870	1	!	1200	1	blank2r.bmp	1330	0	0	0
020218	11:17:52	1	16	5.0.10.0	d070_B21_B1_unplA	dB21_valA_070	4	24	300	300	0	0	316	18	0	1	blank2r.bmp	0	1	+	0	7	C3r.bmp	500	1	blank2r.bmp	800	1	BMVZ	800	1	blank2r.bmp	870	1	unfair	870	1	!	1200	1	blank2r.bmp	1330	0	0	0
020218	11:17:52	1	16	5.0.10.0	d070_B21_B2_unplA	dB21_valA_070	4	25	300	300	0	0	832	18	1	1	blank2r.bmp	0	1	+	0	6	C2r.bmp	500	1	blank2r.bmp	800	1	GKQX	800	1	blank2r.bmp	870	4	elend	870	1	!	1200	1	blank2r.bmp	1330	0	0	0
020218	11:17:52	1	16	5.0.10.0	d070_B21_B1_unplA	dB21_valA_070	4	26	300	300	0	0	759	18	0	1	blank2r.bmp	0	1	+	0	8	C4r.bmp	500	1	blank2r.bmp	800	1	BMVZ	800	1	blank2r.bmp	870	3	töten	870	1	!	1200	1	blank2r.bmp	1330	0	0	0
020218	11:17:52	1	16	5.0.10.0	d070_B21_B2_unplA	dB21_valA_070	4	27	300	300	0	0	99	23	0	1	blank2r.bmp	0	1	+	0	2	B2r.bmp	500	1	blank2r.bmp	800	1	GKQX	800	1	blank2r.bmp	870	5	schlecht	870	1	!	1200	1	blank2r.bmp	1330	0	0	0
020218	11:17:52	1	16	5.0.10.0	d070_B21_B1_unplA	dB21_valA_070	4	28	300	300	0	0	145	18	0	1	blank2r.bmp	0	1	+	0	3	B3r.bmp	500	1	blank2r.bmp	800	1	BMVZ	800	1	blank2r.bmp	870	2	neidisch	870	1	!	1200	1	blank2r.bmp	1330	0	0	0
020218	11:17:52	1	16	5.0.10.0	d070_B21_B2_pleasA	dB21_valA_070	4	29	300	300	0	0	412	18	1	1	blank2r.bmp	0	1	+	0	5	C1r.bmp	500	1	blank2r.bmp	800	1	GKQX	800	1	blank2r.bmp	870	6	froh	870	1	!	1200	1	blank2r.bmp	1330	0	0	0
020218	11:17:52	1	16	5.0.10.0	d070_B21_B2_unplA	dB21_valA_070	4	30	300	300	0	0	648	18	1	1	blank2r.bmp	0	1	+	0	7	C3r.bmp	500	1	blank2r.bmp	800	1	GKQX	800	1	blank2r.bmp	870	6	leiden	870	1	!	1200	1	blank2r.bmp	1330	0	0	0
020218	11:17:52	1	16	5.0.10.0	d070_B21_B1_pleasA	dB21_valA_070	4	31	300	300	0	0	72	23	1	1	blank2r.bmp	0	1	+	0	4	B4r.bmp	500	1	blank2r.bmp	800	1	BMVZ	800	1	blank2r.bmp	870	6	froh	870	1	!	1200	1	blank2r.bmp	1330	0	0	0
020218	11:17:52	1	16	5.0.10.0	d070_B21_B2_pleasA	dB21_valA_070	4	32	300	300	0	0	296	18	1	1	blank2r.bmp	0	1	+	0	1	B1r.bmp	500	1	blank2r.bmp	800	1	GKQX	800	1	blank2r.bmp	870	5	friedlich	870	1	!	1200	1	blank2r.bmp	1330	0	0	0
020218	11:17:52	1	16	5.0.10.0	d070_B21_B2_pleasA	dB21_valA_070	4	33	300	300	0	0	274	18	1	1	blank2r.bmp	0	1	+	0	8	C4r.bmp	500	1	blank2r.bmp	800	1	GKQX	800	1	blank2r.bmp	870	2	schön	870	1	!	1200	1	blank2r.bmp	1330	0	0	0
020218	11:17:52	1	16	5.0.10.0	d070_B21_B1_pleasA	dB21_valA_070	4	34	300	300	0	0	280	18	0	1	blank2r.bmp	0	1	+	0	6	C2r.bmp	500	1	blank2r.bmp	800	1	BMVZ	800	1	blank2r.bmp	870	1	toll	870	1	!	1200	1	blank2r.bmp	1330	0	0	0
020218	11:17:52	1	16	5.0.10.0	d070_B21_B2_unplA	dB21_valA_070	4	35	300	300	0	0	86	23	0	1	blank2r.bmp	0	1	+	0	3	B3r.bmp	500	1	blank2r.bmp	800	1	GKQX	800	1	blank2r.bmp	870	6	leiden	870	1	!	1200	1	blank2r.bmp	1330	0	0	0
020218	11:17:52	1	16	5.0.10.0	d070_B21_B1_pleasA	dB21_valA_070	4	36	300	300	0	0	390	18	0	1	blank2r.bmp	0	1	+	0	4	B4r.bmp	500	1	blank2r.bmp	800	1	BMVZ	800	1	blank2r.bmp	870	4	heiter	870	1	!	1200	1	blank2r.bmp	1330	0	0	0
020218	11:17:52	1	16	5.0.10.0	d070_B21_B2_pleasA	dB21_valA_070	4	37	300	300	0	0	271	18	1	1	blank2r.bmp	0	1	+	0	1	B1r.bmp	500	1	blank2r.bmp	800	1	GKQX	800	1	blank2r.bmp	870	3	freund	870	1	!	1200	1	blank2r.bmp	1330	0	0	0
020218	11:17:52	1	16	5.0.10.0	d070_B21_B2_pleasA	dB21_valA_070	4	38	300	300	0	0	333	18	1	1	blank2r.bmp	0	1	+	0	5	C1r.bmp	500	1	blank2r.bmp	800	1	GKQX	800	1	blank2r.bmp	870	4	heiter	870	1	!	1200	1	blank2r.bmp	1330	0	0	0
020218	11:17:52	1	16	5.0.10.0	d070_B21_B1_pleasA	dB21_valA_070	4	39	300	300	0	0	249	18	0	1	blank2r.bmp	0	1	+	0	7	C3r.bmp	500	1	blank2r.bmp	800	1	BMVZ	800	1	blank2r.bmp	870	3	freund	870	1	!	1200	1	blank2r.bmp	1330	0	0	0
020218	11:17:52	1	16	5.0.10.0	d070_B21_B2_unplA	dB21_valA_070	4	40	300	300	0	0	34	23	0	1	blank2r.bmp	0	1	+	0	2	B2r.bmp	500	1	blank2r.bmp	800	1	GKQX	800	1	blank2r.bmp	870	5	schlecht	870	1	!	1200	1	blank2r.bmp	1330	0	0	0
020218	11:17:52	1	16	5.0.10.0	d070_B21_B1_pleasA	dB21_valA_070	4	41	300	300	0	0	186	18	0	1	blank2r.bmp	0	1	+	0	4	B4r.bmp	500	1	blank2r.bmp	800	1	BMVZ	800	1	blank2r.bmp	870	5	friedlich	870	1	!	1200	1	blank2r.bmp	1330	0	0	0
020218	11:17:52	1	16	5.0.10.0	d070_B21_B2_pleasA	dB21_valA_070	4	42	300	300	0	0	199	18	1	1	blank2r.bmp	0	1	+	0	2	B2r.bmp	500	1	blank2r.bmp	800	1	GKQX	800	1	blank2r.bmp	870	6	froh	870	1	!	1200	1	blank2r.bmp	1330	0	0	0
020218	11:17:52	1	16	5.0.10.0	d070_B21_B1_pleasA	dB21_valA_070	4	43	300	300	0	0	255	18	0	1	blank2r.bmp	0	1	+	0	7	C3r.bmp	500	1	blank2r.bmp	800	1	BMVZ	800	1	blank2r.bmp	870	1	toll	870	1	!	1200	1	blank2r.bmp	1330	0	0	0
020218	11:17:52	1	16	5.0.10.0	d070_B21_B2_unplA	dB21_valA_070	4	44	300	300	0	0	244	23	0	1	blank2r.bmp	0	1	+	0	6	C2r.bmp	500	1	blank2r.bmp	800	1	GKQX	800	1	blank2r.bmp	870	2	neidisch	870	1	!	1200	1	blank2r.bmp	1330	0	0	0
020218	11:17:52	1	16	5.0.10.0	d070_B21_B1_unplA	dB21_valA_070	4	45	300	300	0	0	2455	23	1	1	blank2r.bmp	0	1	+	0	3	B3r.bmp	500	1	blank2r.bmp	800	1	BMVZ	800	1	blank2r.bmp	870	1	unfair	870	1	!	1200	1	blank2r.bmp	1330	0	0	0
020218	11:17:52	1	16	5.0.10.0	d070_B21_B2_unplA	dB21_valA_070	4	46	300	300	0	0	87	23	0	1	blank2r.bmp	0	1	+	0	5	C1r.bmp	500	1	blank2r.bmp	800	1	GKQX	800	1	blank2r.bmp	870	4	elend	870	1	!	1200	1	blank2r.bmp	1330	0	0	0
020218	11:17:52	1	16	5.0.10.0	d070_B21_B1_pleasA	dB21_valA_070	4	47	300	300	0	0	147	18	0	1	blank2r.bmp	0	1	+	0	1	B1r.bmp	500	1	blank2r.bmp	800	1	BMVZ	800	1	blank2r.bmp	870	2	schön	870	1	!	1200	1	blank2r.bmp	1330	0	0	0
020218	11:17:52	1	16	5.0.10.0	d070_B21_B1_unplA	dB21_valA_070	4	48	300	300	0	0	186	18	0	1	blank2r.bmp	0	1	+	0	8	C4r.bmp	500	1	blank2r.bmp	800	1	BMVZ	800	1	blank2r.bmp	870	3	töten	870	1	!	1200	1	blank2r.bmp	1330	0	0	0
020218	11:17:52	1	16	5.0.10.0	dL_A21_A2_pleasB	dA21_valB_pract1	6	1	300	300	0	0	733	18	1	1	blank2r.bmp	0	1	+	0	6	C2r.bmp	500	1	blank2r.bmp	700	1	DHJF	700	2	B2r.bmp	830	1	blank2r.bmp	870	2	mutig	870	1	!	1200	1	blank2r.bmp	1330
020218	11:17:52	1	16	5.0.10.0	dL_A21_A1_unplB	dA21_valB_pract1	6	2	300	300	0	0	536	23	1	1	blank2r.bmp	0	1	+	0	2	B2r.bmp	500	1	blank2r.bmp	700	1	NPLW	700	3	B3r.bmp	830	1	blank2r.bmp	870	5	kummer	870	1	!	1200	1	blank2r.bmp	1330
020218	11:17:52	1	16	5.0.10.0	dL_A21_A1_unplB	dA21_valB_pract1	6	3	300	300	0	0	837	23	1	1	blank2r.bmp	0	1	+	0	5	C1r.bmp	500	1	blank2r.bmp	700	1	NPLW	700	6	C2r.bmp	830	1	blank2r.bmp	870	3	ärger	870	1	!	1200	1	blank2r.bmp	1330
020218	11:17:52	1	16	5.0.10.0	dL_A21_A1_pleasB	dA21_valB_pract1	6	4	300	300	0	0	159	23	1	1	blank2r.bmp	0	1	+	0	3	B3r.bmp	500	1	blank2r.bmp	700	1	NPLW	700	4	B4r.bmp	830	1	blank2r.bmp	870	3	kuss	870	1	!	1200	1	blank2r.bmp	1330
020218	11:17:52	1	16	5.0.10.0	dL_A21_A2_pleasB	dA21_valB_pract1	6	5	300	300	0	0	246	18	1	1	blank2r.bmp	0	1	+	0	7	C3r.bmp	500	1	blank2r.bmp	700	1	DHJF	700	8	C4r.bmp	830	1	blank2r.bmp	870	5	begabt	870	1	!	1200	1	blank2r.bmp	1330
020218	11:17:52	1	16	5.0.10.0	dL_A21_A2_unplB	dA21_valB_pract1	6	6	300	300	0	0	800	23	0	1	blank2r.bmp	0	1	+	0	1	B1r.bmp	500	1	blank2r.bmp	700	1	DHJF	700	7	C3r.bmp	830	1	blank2r.bmp	870	1	grausam	870	1	!	1200	1	blank2r.bmp	1330
020218	11:17:52	1	16	5.0.10.0	dL_A21_A2_unplB	dA21_valB_pract1	6	7	300	300	0	0	564	23	0	1	blank2r.bmp	0	1	+	0	8	C4r.bmp	500	1	blank2r.bmp	700	1	DHJF	700	1	B1r.bmp	830	1	blank2r.bmp	870	4	böse	870	1	!	1200	1	blank2r.bmp	1330
020218	11:17:52	1	16	5.0.10.0	dL_A21_A1_unplB	dA21_valB_pract1	6	8	300	300	0	0	568	23	1	1	blank2r.bmp	0	1	+	0	4	B4r.bmp	500	1	blank2r.bmp	700	1	NPLW	700	5	C1r.bmp	830	1	blank2r.bmp	870	6	traurig	870	1	!	1200	1	blank2r.bmp	1330
020218	11:17:52	1	16	5.0.10.0	dL_A21_A1_pleasB	dA21_valB_pract1	6	9	300	300	0	0	3366	23	1	1	blank2r.bmp	0	1	+	0	6	C2r.bmp	500	1	blank2r.bmp	700	1	NPLW	700	8	C4r.bmp	830	1	blank2r.bmp	870	4	treu	870	1	!	1200	1	blank2r.bmp	1330
020218	11:17:52	1	16	5.0.10.0	dL_A21_A2_unplB	dA21_valB_pract1	6	10	300	300	0	0	108	18	1	1	blank2r.bmp	0	1	+	0	3	B3r.bmp	500	1	blank2r.bmp	700	1	DHJF	700	7	C3r.bmp	830	1	blank2r.bmp	870	2	geizig	870	1	!	1200	1	blank2r.bmp	1330
020218	11:17:52	1	16	5.0.10.0	dL_A21_A2_pleasB	dA21_valB_pract1	6	11	300	300	0	0	3169	18	1	1	blank2r.bmp	0	1	+	0	8	C4r.bmp	500	1	blank2r.bmp	700	1	DHJF	700	6	C2r.bmp	830	1	blank2r.bmp	870	6	kreativ	870	1	!	1200	1	blank2r.bmp	1330
020218	11:17:52	1	16	5.0.10.0	dL_A21_A1_pleasB	dA21_valB_pract1	6	12	300	300	0	0	152	18	0	1	blank2r.bmp	0	1	+	0	1	B1r.bmp	500	1	blank2r.bmp	700	1	NPLW	700	2	B2r.bmp	830	1	blank2r.bmp	870	1	gut	870	1	!	1200	1	blank2r.bmp	1330
020218	11:17:52	1	16	5.0.10.0	dM_A21_A1_pleasB	dA21_valB_pract2	7	1	300	300	0	0	361	23	1	1	blank2r.bmp	0	1	+	0	2	B2r.bmp	500	1	blank2r.bmp	730	1	NPLW	730	3	B3r.bmp	830	1	blank2r.bmp	870	3	kuss	870	1	!	1200	1	blank2r.bmp	1330
020218	11:17:52	1	16	5.0.10.0	dM_A21_A2_unplB	dA21_valB_pract2	7	2	300	300	0	0	909	18	1	1	blank2r.bmp	0	1	+	0	5	C1r.bmp	500	1	blank2r.bmp	730	1	DHJF	730	1	B1r.bmp	830	1	blank2r.bmp	870	2	geizig	870	1	!	1200	1	blank2r.bmp	1330
020218	11:17:52	1	16	5.0.10.0	dM_A21_A2_pleasB	dA21_valB_pract2	7	3	300	300	0	0	794	18	1	1	blank2r.bmp	0	1	+	0	7	C3r.bmp	500	1	blank2r.bmp	730	1	DHJF	730	5	C1r.bmp	830	1	blank2r.bmp	870	5	begabt	870	1	!	1200	1	blank2r.bmp	1330
020218	11:17:52	1	16	5.0.10.0	dM_A21_A2_unplB	dA21_valB_pract2	7	4	300	300	0	0	712	23	0	1	blank2r.bmp	0	1	+	0	4	B4r.bmp	500	1	blank2r.bmp	730	1	DHJF	730	4	B4r.bmp	830	1	blank2r.bmp	870	1	grausam	870	1	!	1200	1	blank2r.bmp	1330
020218	11:17:52	1	16	5.0.10.0	dM_A21_A2_unplB	dA21_valB_pract2	7	5	300	300	0	0	72	18	1	1	blank2r.bmp	0	1	+	0	7	C3r.bmp	500	1	blank2r.bmp	730	1	DHJF	730	2	B2r.bmp	830	1	blank2r.bmp	870	3	ärger	870	1	!	1200	1	blank2r.bmp	1330
020218	11:17:52	1	16	5.0.10.0	dM_A21_A1_unplB	dA21_valB_pract2	7	6	300	300	0	0	115	18	0	1	blank2r.bmp	0	1	+	0	4	B4r.bmp	500	1	blank2r.bmp	730	1	NPLW	730	6	C2r.bmp	830	1	blank2r.bmp	870	4	böse	870	1	!	1200	1	blank2r.bmp	1330
020218	11:17:52	1	16	5.0.10.0	dM_A21_A1_pleasB	dA21_valB_pract2	7	7	300	300	0	0	660	18	0	1	blank2r.bmp	0	1	+	0	8	C4r.bmp	500	1	blank2r.bmp	730	1	NPLW	730	3	B3r.bmp	830	1	blank2r.bmp	870	2	mutig	870	1	!	1200	1	blank2r.bmp	1330
020218	11:17:52	1	16	5.0.10.0	dM_A21_A1_unplB	dA21_valB_pract2	7	8	300	300	0	0	350	23	1	1	blank2r.bmp	0	1	+	0	5	C1r.bmp	500	1	blank2r.bmp	730	1	NPLW	730	7	C3r.bmp	830	1	blank2r.bmp	870	5	kummer	870	1	!	1200	1	blank2r.bmp	1330
020218	11:17:52	1	16	5.0.10.0	dM_A21_A2_pleasB	dA21_valB_pract2	7	9	300	300	0	0	168	23	0	1	blank2r.bmp	0	1	+	0	1	B1r.bmp	500	1	blank2r.bmp	730	1	DHJF	730	4	B4r.bmp	830	1	blank2r.bmp	870	4	treu	870	1	!	1200	1	blank2r.bmp	1330
020218	11:17:52	1	16	5.0.10.0	dM_A21_A2_pleasB	dA21_valB_pract2	7	10	300	300	0	0	176	18	1	1	blank2r.bmp	0	1	+	0	6	C2r.bmp	500	1	blank2r.bmp	730	1	DHJF	730	5	C1r.bmp	830	1	blank2r.bmp	870	6	kreativ	870	1	!	1200	1	blank2r.bmp	1330
020218	11:17:52	1	16	5.0.10.0	dM_A21_A1_unplB	dA21_valB_pract2	7	11	300	300	0	0	209	18	0	1	blank2r.bmp	0	1	+	0	3	B3r.bmp	500	1	blank2r.bmp	730	1	NPLW	730	1	B1r.bmp	830	1	blank2r.bmp	870	6	traurig	870	1	!	1200	1	blank2r.bmp	1330
020218	11:17:52	1	16	5.0.10.0	dM_A21_A1_pleasB	dA21_valB_pract2	7	12	300	300	0	0	689	18	0	1	blank2r.bmp	0	1	+	0	2	B2r.bmp	500	1	blank2r.bmp	730	1	NPLW	730	8	C4r.bmp	830	1	blank2r.bmp	870	1	gut	870	1	!	1200	1	blank2r.bmp	1330
020218	11:17:52	1	16	5.0.10.0	d080_A21_A1_pleasB	dA21_valB_080	8	1	300	300	0	0	189	23	1	1	blank2r.bmp	0	1	+	0	6	C2r.bmp	500	1	blank2r.bmp	800	1	NPLW	800	1	blank2r.bmp	880	6	kreativ	880	1	!	1210	1	blank2r.bmp	1340	0	0	0
020218	11:17:52	1	16	5.0.10.0	d080_A21_A2_pleasB	dA21_valB_080	8	2	300	300	0	0	215	23	0	1	blank2r.bmp	0	1	+	0	2	B2r.bmp	500	1	blank2r.bmp	800	1	DHJF	800	1	blank2r.bmp	880	4	treu	880	1	!	1210	1	blank2r.bmp	1340	0	0	0
020218	11:17:52	1	16	5.0.10.0	d080_A21_A1_unplB	dA21_valB_080	8	3	300	300	0	0	178	23	1	1	blank2r.bmp	0	1	+	0	8	C4r.bmp	500	1	blank2r.bmp	800	1	NPLW	800	1	blank2r.bmp	880	6	traurig	880	1	!	1210	1	blank2r.bmp	1340	0	0	0
020218	11:17:52	1	16	5.0.10.0	d080_A21_A1_pleasB	dA21_valB_080	8	4	300	300	0	0	438	18	0	1	blank2r.bmp	0	1	+	0	7	C3r.bmp	500	1	blank2r.bmp	800	1	NPLW	800	1	blank2r.bmp	880	1	gut	880	1	!	1210	1	blank2r.bmp	1340	0	0	0
020218	11:17:52	1	16	5.0.10.0	d080_A21_A2_pleasB	dA21_valB_080	8	5	300	300	0	0	164	18	1	1	blank2r.bmp	0	1	+	0	5	C1r.bmp	500	1	blank2r.bmp	800	1	DHJF	800	1	blank2r.bmp	880	3	kuss	880	1	!	1210	1	blank2r.bmp	1340	0	0	0
020218	11:17:52	1	16	5.0.10.0	d080_A21_A2_pleasB	dA21_valB_080	8	6	300	300	0	0	113	18	1	1	blank2r.bmp	0	1	+	0	1	B1r.bmp	500	1	blank2r.bmp	800	1	DHJF	800	1	blank2r.bmp	880	2	mutig	880	1	!	1210	1	blank2r.bmp	1340	0	0	0
020218	11:17:52	1	16	5.0.10.0	d080_A21_A2_unplB	dA21_valB_080	8	7	300	300	0	0	384	18	1	1	blank2r.bmp	0	1	+	0	4	B4r.bmp	500	1	blank2r.bmp	800	1	DHJF	800	1	blank2r.bmp	880	5	kummer	880	1	!	1210	1	blank2r.bmp	1340	0	0	0
020218	11:17:52	1	16	5.0.10.0	d080_A21_A1_pleasB	dA21_valB_080	8	8	300	300	0	0	187	23	1	1	blank2r.bmp	0	1	+	0	3	B3r.bmp	500	1	blank2r.bmp	800	1	NPLW	800	1	blank2r.bmp	880	5	begabt	880	1	!	1210	1	blank2r.bmp	1340	0	0	0
020218	11:17:52	1	16	5.0.10.0	d080_A21_A1_unplB	dA21_valB_080	8	9	300	300	0	0	336	18	0	1	blank2r.bmp	0	1	+	0	6	C2r.bmp	500	1	blank2r.bmp	800	1	NPLW	800	1	blank2r.bmp	880	1	grausam	880	1	!	1210	1	blank2r.bmp	1340	0	0	0
020218	11:17:52	1	16	5.0.10.0	d080_A21_A2_unplB	dA21_valB_080	8	10	300	300	0	0	2560	18	1	1	blank2r.bmp	0	1	+	0	4	B4r.bmp	500	1	blank2r.bmp	800	1	DHJF	800	1	blank2r.bmp	880	3	ärger	880	1	!	1210	1	blank2r.bmp	1340	0	0	0
020218	11:17:52	1	16	5.0.10.0	d080_A21_A2_unplB	dA21_valB_080	8	11	300	300	0	0	2678	23	0	1	blank2r.bmp	0	1	+	0	7	C3r.bmp	500	1	blank2r.bmp	800	1	DHJF	800	1	blank2r.bmp	880	4	böse	880	1	!	1210	1	blank2r.bmp	1340	0	0	0
020218	11:17:52	1	16	5.0.10.0	d080_A21_A2_unplB	dA21_valB_080	8	12	300	300	0	0	450	18	1	1	blank2r.bmp	0	1	+	0	5	C1r.bmp	500	1	blank2r.bmp	800	1	DHJF	800	1	blank2r.bmp	880	2	geizig	880	1	!	1210	1	blank2r.bmp	1340	0	0	0
020218	11:17:52	1	16	5.0.10.0	d080_A21_A2_pleasB	dA21_valB_080	8	13	300	300	0	0	185	23	0	1	blank2r.bmp	0	1	+	0	8	C4r.bmp	500	1	blank2r.bmp	800	1	DHJF	800	1	blank2r.bmp	880	1	gut	880	1	!	1210	1	blank2r.bmp	1340	0	0	0
020218	11:17:52	1	16	5.0.10.0	d080_A21_A1_unplB	dA21_valB_080	8	14	300	300	0	0	194	23	1	1	blank2r.bmp	0	1	+	0	1	B1r.bmp	500	1	blank2r.bmp	800	1	NPLW	800	1	blank2r.bmp	880	6	traurig	880	1	!	1210	1	blank2r.bmp	1340	0	0	0
020218	11:17:52	1	16	5.0.10.0	d080_A21_A2_unplB	dA21_valB_080	8	15	300	300	0	0	312	23	0	1	blank2r.bmp	0	1	+	0	2	B2r.bmp	500	1	blank2r.bmp	800	1	DHJF	800	1	blank2r.bmp	880	2	geizig	880	1	!	1210	1	blank2r.bmp	1340	0	0	0
020218	11:17:52	1	16	5.0.10.0	d080_A21_A1_pleasB	dA21_valB_080	8	16	300	300	0	0	157	23	1	1	blank2r.bmp	0	1	+	0	3	B3r.bmp	500	1	blank2r.bmp	800	1	NPLW	800	1	blank2r.bmp	880	5	begabt	880	1	!	1210	1	blank2r.bmp	1340	0	0	0
020218	11:17:52	1	16	5.0.10.0	d080_A21_A1_pleasB	dA21_valB_080	8	17	300	300	0	0	204	23	1	1	blank2r.bmp	0	1	+	0	7	C3r.bmp	500	1	blank2r.bmp	800	1	NPLW	800	1	blank2r.bmp	880	3	kuss	880	1	!	1210	1	blank2r.bmp	1340	0	0	0
020218	11:17:52	1	16	5.0.10.0	d080_A21_A1_pleasB	dA21_valB_080	8	18	300	300	0	0	1460	23	1	1	blank2r.bmp	0	1	+	0	1	B1r.bmp	500	1	blank2r.bmp	800	1	NPLW	800	1	blank2r.bmp	880	2	mutig	880	1	!	1210	1	blank2r.bmp	1340	0	0	0
020218	11:17:52	1	16	5.0.10.0	d080_A21_A2_pleasB	dA21_valB_080	8	19	300	300	0	0	3807	23	0	1	blank2r.bmp	0	1	+	0	4	B4r.bmp	500	1	blank2r.bmp	800	1	DHJF	800	1	blank2r.bmp	880	4	treu	880	1	!	1210	1	blank2r.bmp	1340	0	0	0
020218	11:17:52	1	16	5.0.10.0	d080_A21_A2_unplB	dA21_valB_080	8	20	300	300	0	0	401	23	0	1	blank2r.bmp	0	1	+	0	3	B3r.bmp	500	1	blank2r.bmp	800	1	DHJF	800	1	blank2r.bmp	880	4	böse	880	1	!	1210	1	blank2r.bmp	1340	0	0	0
020218	11:17:52	1	16	5.0.10.0	d080_A21_A2_pleasB	dA21_valB_080	8	21	300	300	0	0	92	18	1	1	blank2r.bmp	0	1	+	0	2	B2r.bmp	500	1	blank2r.bmp	800	1	DHJF	800	1	blank2r.bmp	880	6	kreativ	880	1	!	1210	1	blank2r.bmp	1340	0	0	0
020218	11:17:52	1	16	5.0.10.0	d080_A21_A1_pleasB	dA21_valB_080	8	22	300	300	0	0	236	18	0	1	blank2r.bmp	0	1	+	0	5	C1r.bmp	500	1	blank2r.bmp	800	1	NPLW	800	1	blank2r.bmp	880	6	kreativ	880	1	!	1210	1	blank2r.bmp	1340	0	0	0
020218	11:17:52	1	16	5.0.10.0	d080_A21_A1_unplB	dA21_valB_080	8	23	300	300	0	0	187	23	1	1	blank2r.bmp	0	1	+	0	6	C2r.bmp	500	1	blank2r.bmp	800	1	NPLW	800	1	blank2r.bmp	880	3	ärger	880	1	!	1210	1	blank2r.bmp	1340	0	0	0
020218	11:17:52	1	16	5.0.10.0	d080_A21_A2_unplB	dA21_valB_080	8	24	300	300	0	0	567	23	0	1	blank2r.bmp	0	1	+	0	8	C4r.bmp	500	1	blank2r.bmp	800	1	DHJF	800	1	blank2r.bmp	880	1	grausam	880	1	!	1210	1	blank2r.bmp	1340	0	0	0
020218	11:17:52	1	16	5.0.10.0	d080_A21_A2_unplB	dA21_valB_080	8	25	300	300	0	0	30	23	0	1	blank2r.bmp	0	1	+	0	8	C4r.bmp	500	1	blank2r.bmp	800	1	DHJF	800	1	blank2r.bmp	880	5	kummer	880	1	!	1210	1	blank2r.bmp	1340	0	0	0
020218	11:17:52	1	16	5.0.10.0	d080_A21_A1_pleasB	dA21_valB_080	8	26	300	300	0	0	211	18	0	1	blank2r.bmp	0	1	+	0	6	C2r.bmp	500	1	blank2r.bmp	800	1	NPLW	800	1	blank2r.bmp	880	5	begabt	880	1	!	1210	1	blank2r.bmp	1340	0	0	0
020218	11:17:52	1	16	5.0.10.0	d080_A21_A1_unplB	dA21_valB_080	8	27	300	300	0	0	2212	18	0	1	blank2r.bmp	0	1	+	0	2	B2r.bmp	500	1	blank2r.bmp	800	1	NPLW	800	1	blank2r.bmp	880	3	ärger	880	1	!	1210	1	blank2r.bmp	1340	0	0	0
020218	11:17:52	1	16	5.0.10.0	d080_A21_A1_pleasB	dA21_valB_080	8	28	300	300	0	0	598	18	0	1	blank2r.bmp	0	1	+	0	7	C3r.bmp	500	1	blank2r.bmp	800	1	NPLW	800	1	blank2r.bmp	880	2	mutig	880	1	!	1210	1	blank2r.bmp	1340	0	0	0
020218	11:17:52	1	16	5.0.10.0	d080_A21_A1_pleasB	dA21_valB_080	8	29	300	300	0	0	2617	23	1	1	blank2r.bmp	0	1	+	0	5	C1r.bmp	500	1	blank2r.bmp	800	1	NPLW	800	1	blank2r.bmp	880	3	kuss	880	1	!	1210	1	blank2r.bmp	1340	0	0	0
020218	11:17:52	1	16	5.0.10.0	d080_A21_A2_pleasB	dA21_valB_080	8	30	300	300	0	0	2073	23	0	1	blank2r.bmp	0	1	+	0	4	B4r.bmp	500	1	blank2r.bmp	800	1	DHJF	800	1	blank2r.bmp	880	4	treu	880	1	!	1210	1	blank2r.bmp	1340	0	0	0
020218	11:17:52	1	16	5.0.10.0	d080_A21_A1_unplB	dA21_valB_080	8	31	300	300	0	0	768	18	0	1	blank2r.bmp	0	1	+	0	3	B3r.bmp	500	1	blank2r.bmp	800	1	NPLW	800	1	blank2r.bmp	880	1	grausam	880	1	!	1210	1	blank2r.bmp	1340	0	0	0
020218	11:17:52	1	16	5.0.10.0	d080_A21_A1_unplB	dA21_valB_080	8	32	300	300	0	0	800	18	0	1	blank2r.bmp	0	1	+	0	1	B1r.bmp	500	1	blank2r.bmp	800	1	NPLW	800	1	blank2r.bmp	880	6	traurig	880	1	!	1210	1	blank2r.bmp	1340	0	0	0
020218	11:17:52	1	16	5.0.10.0	d080_A21_A1_unplB	dA21_valB_080	8	33	300	300	0	0	504	18	0	1	blank2r.bmp	0	1	+	0	5	C1r.bmp	500	1	blank2r.bmp	800	1	NPLW	800	1	blank2r.bmp	880	5	kummer	880	1	!	1210	1	blank2r.bmp	1340	0	0	0
020218	11:17:52	1	16	5.0.10.0	d080_A21_A1_unplB	dA21_valB_080	8	34	300	300	0	0	213	23	1	1	blank2r.bmp	0	1	+	0	6	C2r.bmp	500	1	blank2r.bmp	800	1	NPLW	800	1	blank2r.bmp	880	4	böse	880	1	!	1210	1	blank2r.bmp	1340	0	0	0
020218	11:17:52	1	16	5.0.10.0	d080_A21_A2_pleasB	dA21_valB_080	8	35	300	300	0	0	606	23	0	1	blank2r.bmp	0	1	+	0	1	B1r.bmp	500	1	blank2r.bmp	800	1	DHJF	800	1	blank2r.bmp	880	1	gut	880	1	!	1210	1	blank2r.bmp	1340	0	0	0
020218	11:17:52	1	16	5.0.10.0	d080_A21_A2_pleasB	dA21_valB_080	8	36	300	300	0	0	596	23	0	1	blank2r.bmp	0	1	+	0	4	B4r.bmp	500	1	blank2r.bmp	800	1	DHJF	800	1	blank2r.bmp	880	1	gut	880	1	!	1210	1	blank2r.bmp	1340	0	0	0
020218	11:17:52	1	16	5.0.10.0	d080_A21_A2_unplB	dA21_valB_080	8	37	300	300	0	0	355	18	1	1	blank2r.bmp	0	1	+	0	7	C3r.bmp	500	1	blank2r.bmp	800	1	DHJF	800	1	blank2r.bmp	880	2	geizig	880	1	!	1210	1	blank2r.bmp	1340	0	0	0
020218	11:17:52	1	16	5.0.10.0	d080_A21_A1_unplB	dA21_valB_080	8	38	300	300	0	0	320	18	0	1	blank2r.bmp	0	1	+	0	2	B2r.bmp	500	1	blank2r.bmp	800	1	NPLW	800	1	blank2r.bmp	880	4	böse	880	1	!	1210	1	blank2r.bmp	1340	0	0	0
020218	11:17:52	1	16	5.0.10.0	d080_A21_A2_unplB	dA21_valB_080	8	39	300	300	0	0	611	18	1	1	blank2r.bmp	0	1	+	0	3	B3r.bmp	500	1	blank2r.bmp	800	1	DHJF	800	1	blank2r.bmp	880	3	ärger	880	1	!	1210	1	blank2r.bmp	1340	0	0	0
020218	11:17:52	1	16	5.0.10.0	d080_A21_A2_pleasB	dA21_valB_080	8	40	300	300	0	0	939	18	1	1	blank2r.bmp	0	1	+	0	8	C4r.bmp	500	1	blank2r.bmp	800	1	DHJF	800	1	blank2r.bmp	880	4	treu	880	1	!	1210	1	blank2r.bmp	1340	0	0	0
020218	11:17:52	1	16	5.0.10.0	d080_A21_A1_pleasB	dA21_valB_080	8	41	300	300	0	0	358	23	1	1	blank2r.bmp	0	1	+	0	6	C2r.bmp	500	1	blank2r.bmp	800	1	NPLW	800	1	blank2r.bmp	880	5	begabt	880	1	!	1210	1	blank2r.bmp	1340	0	0	0
020218	11:17:52	1	16	5.0.10.0	d080_A21_A2_unplB	dA21_valB_080	8	42	300	300	0	0	283	23	0	1	blank2r.bmp	0	1	+	0	2	B2r.bmp	500	1	blank2r.bmp	800	1	DHJF	800	1	blank2r.bmp	880	1	grausam	880	1	!	1210	1	blank2r.bmp	1340	0	0	0
020218	11:17:52	1	16	5.0.10.0	d080_A21_A2_pleasB	dA21_valB_080	8	43	300	300	0	0	1323	18	1	1	blank2r.bmp	0	1	+	0	3	B3r.bmp	500	1	blank2r.bmp	800	1	DHJF	800	1	blank2r.bmp	880	6	kreativ	880	1	!	1210	1	blank2r.bmp	1340	0	0	0
020218	11:17:52	1	16	5.0.10.0	d080_A21_A1_unplB	dA21_valB_080	8	44	300	300	0	0	175	18	0	1	blank2r.bmp	0	1	+	0	7	C3r.bmp	500	1	blank2r.bmp	800	1	NPLW	800	1	blank2r.bmp	880	6	traurig	880	1	!	1210	1	blank2r.bmp	1340	0	0	0
020218	11:17:52	1	16	5.0.10.0	d080_A21_A2_pleasB	dA21_valB_080	8	45	300	300	0	0	372	18	1	1	blank2r.bmp	0	1	+	0	1	B1r.bmp	500	1	blank2r.bmp	800	1	DHJF	800	1	blank2r.bmp	880	3	kuss	880	1	!	1210	1	blank2r.bmp	1340	0	0	0
020218	11:17:52	1	16	5.0.10.0	d080_A21_A2_unplB	dA21_valB_080	8	46	300	300	0	0	484	18	1	1	blank2r.bmp	0	1	+	0	4	B4r.bmp	500	1	blank2r.bmp	800	1	DHJF	800	1	blank2r.bmp	880	2	geizig	880	1	!	1210	1	blank2r.bmp	1340	0	0	0
020218	11:17:52	1	16	5.0.10.0	d080_A21_A1_pleasB	dA21_valB_080	8	47	300	300	0	0	831	18	0	1	blank2r.bmp	0	1	+	0	5	C1r.bmp	500	1	blank2r.bmp	800	1	NPLW	800	1	blank2r.bmp	880	2	mutig	880	1	!	1210	1	blank2r.bmp	1340	0	0	0
020218	11:17:52	1	16	5.0.10.0	d080_A21_A1_unplB	dA21_valB_080	8	48	300	300	0	0	28	23	1	1	blank2r.bmp	0	1	+	0	8	C4r.bmp	500	1	blank2r.bmp	800	1	NPLW	800	1	blank2r.bmp	880	5	kummer	880	1	!	1210	1	blank2r.bmp	1340	0	0	0
020218	11:17:52	1	16	5.0.10.0	d080_A21_A2_pleasB	dA21_valB_080	9	1	300	300	0	0	80	23	0	1	blank2r.bmp	0	1	+	0	3	B3r.bmp	500	1	blank2r.bmp	800	1	DHJF	800	1	blank2r.bmp	880	1	gut	880	1	!	1210	1	blank2r.bmp	1340	0	0	0
020218	11:17:52	1	16	5.0.10.0	d080_A21_A1_pleasB	dA21_valB_080	9	2	300	300	0	0	201	18	0	1	blank2r.bmp	0	1	+	0	5	C1r.bmp	500	1	blank2r.bmp	800	1	NPLW	800	1	blank2r.bmp	880	4	treu	880	1	!	1210	1	blank2r.bmp	1340	0	0	0
020218	11:17:52	1	16	5.0.10.0	d080_A21_A1_pleasB	dA21_valB_080	9	3	300	300	0	0	225	23	1	1	blank2r.bmp	0	1	+	0	6	C2r.bmp	500	1	blank2r.bmp	800	1	NPLW	800	1	blank2r.bmp	880	6	kreativ	880	1	!	1210	1	blank2r.bmp	1340	0	0	0
020218	11:17:52	1	16	5.0.10.0	d080_A21_A2_unplB	dA21_valB_080	9	4	300	300	0	0	1279	18	1	1	blank2r.bmp	0	1	+	0	4	B4r.bmp	500	1	blank2r.bmp	800	1	DHJF	800	1	blank2r.bmp	880	4	böse	880	1	!	1210	1	blank2r.bmp	1340	0	0	0
020218	11:17:52	1	16	5.0.10.0	d080_A21_A1_unplB	dA21_valB_080	9	5	300	300	0	0	332	18	0	1	blank2r.bmp	0	1	+	0	7	C3r.bmp	500	1	blank2r.bmp	800	1	NPLW	800	1	blank2r.bmp	880	1	grausam	880	1	!	1210	1	blank2r.bmp	1340	0	0	0
020218	11:17:52	1	16	5.0.10.0	d080_A21_A2_pleasB	dA21_valB_080	9	6	300	300	0	0	252	23	0	1	blank2r.bmp	0	1	+	0	1	B1r.bmp	500	1	blank2r.bmp	800	1	DHJF	800	1	blank2r.bmp	880	5	begabt	880	1	!	1210	1	blank2r.bmp	1340	0	0	0
020218	11:17:52	1	16	5.0.10.0	d080_A21_A2_pleasB	dA21_valB_080	9	7	300	300	0	0	254	18	1	1	blank2r.bmp	0	1	+	0	2	B2r.bmp	500	1	blank2r.bmp	800	1	DHJF	800	1	blank2r.bmp	880	3	kuss	880	1	!	1210	1	blank2r.bmp	1340	0	0	0
020218	11:17:52	1	16	5.0.10.0	d080_A21_A1_unplB	dA21_valB_080	9	8	300	300	0	0	139	23	1	1	blank2r.bmp	0	1	+	0	8	C4r.bmp	500	1	blank2r.bmp	800	1	NPLW	800	1	blank2r.bmp	880	6	traurig	880	1	!	1210	1	blank2r.bmp	1340	0	0	0
020218	11:17:52	1	16	5.0.10.0	d080_A21_A2_unplB	dA21_valB_080	9	9	300	300	0	0	130	23	0	1	blank2r.bmp	0	1	+	0	6	C2r.bmp	500	1	blank2r.bmp	800	1	DHJF	800	1	blank2r.bmp	880	3	ärger	880	1	!	1210	1	blank2r.bmp	1340	0	0	0
020218	11:17:52	1	16	5.0.10.0	d080_A21_A1_unplB	dA21_valB_080	9	10	300	300	0	0	435	18	0	1	blank2r.bmp	0	1	+	0	7	C3r.bmp	500	1	blank2r.bmp	800	1	NPLW	800	1	blank2r.bmp	880	5	kummer	880	1	!	1210	1	blank2r.bmp	1340	0	0	0
020218	11:17:52	1	16	5.0.10.0	d080_A21_A2_pleasB	dA21_valB_080	9	11	300	300	0	0	727	23	0	1	blank2r.bmp	0	1	+	0	5	C1r.bmp	500	1	blank2r.bmp	800	1	DHJF	800	1	blank2r.bmp	880	2	mutig	880	1	!	1210	1	blank2r.bmp	1340	0	0	0
020218	11:17:52	1	16	5.0.10.0	d080_A21_A2_unplB	dA21_valB_080	9	12	300	300	0	0	10	23	0	1	blank2r.bmp	0	1	+	0	2	B2r.bmp	500	1	blank2r.bmp	800	1	DHJF	800	1	blank2r.bmp	880	2	geizig	880	1	!	1210	1	blank2r.bmp	1340	0	0	0
020218	11:17:52	1	16	5.0.10.0	d080_A21_A2_unplB	dA21_valB_080	9	13	300	300	0	0	720	18	1	1	blank2r.bmp	0	1	+	0	1	B1r.bmp	500	1	blank2r.bmp	800	1	DHJF	800	1	blank2r.bmp	880	1	grausam	880	1	!	1210	1	blank2r.bmp	1340	0	0	0
020218	11:17:52	1	16	5.0.10.0	d080_A21_A2_unplB	dA21_valB_080	9	14	300	300	0	0	241	18	1	1	blank2r.bmp	0	1	+	0	4	B4r.bmp	500	1	blank2r.bmp	800	1	DHJF	800	1	blank2r.bmp	880	5	kummer	880	1	!	1210	1	blank2r.bmp	1340	0	0	0
020218	11:17:52	1	16	5.0.10.0	d080_A21_A2_unplB	dA21_valB_080	9	15	300	300	0	0	729	23	0	1	blank2r.bmp	0	1	+	0	3	B3r.bmp	500	1	blank2r.bmp	800	1	DHJF	800	1	blank2r.bmp	880	2	geizig	880	1	!	1210	1	blank2r.bmp	1340	0	0	0
020218	11:17:52	1	16	5.0.10.0	d080_A21_A1_unplB	dA21_valB_080	9	16	300	300	0	0	2753	18	0	1	blank2r.bmp	0	1	+	0	8	C4r.bmp	500	1	blank2r.bmp	800	1	NPLW	800	1	blank2r.bmp	880	6	traurig	880	1	!	1210	1	blank2r.bmp	1340	0	0	0
020218	11:17:52	1	16	5.0.10.0	d080_A21_A1_pleasB	dA21_valB_080	9	17	300	300	0	0	315	23	1	1	blank2r.bmp	0	1	+	0	2	B2r.bmp	500	1	blank2r.bmp	800	1	NPLW	800	1	blank2r.bmp	880	3	kuss	880	1	!	1210	1	blank2r.bmp	1340	0	0	0
020218	11:17:52	1	16	5.0.10.0	d080_A21_A1_unplB	dA21_valB_080	9	18	300	300	0	0	476	18	0	1	blank2r.bmp	0	1	+	0	5	C1r.bmp	500	1	blank2r.bmp	800	1	NPLW	800	1	blank2r.bmp	880	4	böse	880	1	!	1210	1	blank2r.bmp	1340	0	0	0
020218	11:17:52	1	16	5.0.10.0	d080_A21_A2_pleasB	dA21_valB_080	9	19	300	300	0	0	168	23	0	1	blank2r.bmp	0	1	+	0	3	B3r.bmp	500	1	blank2r.bmp	800	1	DHJF	800	1	blank2r.bmp	880	2	mutig	880	1	!	1210	1	blank2r.bmp	1340	0	0	0
020218	11:17:52	1	16	5.0.10.0	d080_A21_A2_unplB	dA21_valB_080	9	20	300	300	0	0	289	18	1	1	blank2r.bmp	0	1	+	0	8	C4r.bmp	500	1	blank2r.bmp	800	1	DHJF	800	1	blank2r.bmp	880	3	ärger	880	1	!	1210	1	blank2r.bmp	1340	0	0	0
020218	11:17:52	1	16	5.0.10.0	d080_A21_A1_pleasB	dA21_valB_080	9	21	300	300	0	0	857	18	0	1	blank2r.bmp	0	1	+	0	6	C2r.bmp	500	1	blank2r.bmp	800	1	NPLW	800	1	blank2r.bmp	880	1	gut	880	1	!	1210	1	blank2r.bmp	1340	0	0	0
020218	11:17:52	1	16	5.0.10.0	d080_A21_A2_pleasB	dA21_valB_080	9	22	300	300	0	0	54	23	0	1	blank2r.bmp	0	1	+	0	7	C3r.bmp	500	1	blank2r.bmp	800	1	DHJF	800	1	blank2r.bmp	880	5	begabt	880	1	!	1210	1	blank2r.bmp	1340	0	0	0
020218	11:17:52	1	16	5.0.10.0	d080_A21_A2_pleasB	dA21_valB_080	9	23	300	300	0	0	260	18	1	1	blank2r.bmp	0	1	+	0	1	B1r.bmp	500	1	blank2r.bmp	800	1	DHJF	800	1	blank2r.bmp	880	6	kreativ	880	1	!	1210	1	blank2r.bmp	1340	0	0	0
020218	11:17:52	1	16	5.0.10.0	d080_A21_A1_pleasB	dA21_valB_080	9	24	300	300	0	0	81	23	1	1	blank2r.bmp	0	1	+	0	4	B4r.bmp	500	1	blank2r.bmp	800	1	NPLW	800	1	blank2r.bmp	880	4	treu	880	1	!	1210	1	blank2r.bmp	1340	0	0	0
020218	11:17:52	1	16	5.0.10.0	d080_A21_A1_pleasB	dA21_valB_080	9	25	300	300	0	0	673	18	0	1	blank2r.bmp	0	1	+	0	8	C4r.bmp	500	1	blank2r.bmp	800	1	NPLW	800	1	blank2r.bmp	880	4	treu	880	1	!	1210	1	blank2r.bmp	1340	0	0	0
020218	11:17:52	1	16	5.0.10.0	d080_A21_A2_pleasB	dA21_valB_080	9	26	300	300	0	0	123	23	0	1	blank2r.bmp	0	1	+	0	4	B4r.bmp	500	1	blank2r.bmp	800	1	DHJF	800	1	blank2r.bmp	880	3	kuss	880	1	!	1210	1	blank2r.bmp	1340	0	0	0
020218	11:17:52	1	16	5.0.10.0	d080_A21_A2_unplB	dA21_valB_080	9	27	300	300	0	0	142	18	1	1	blank2r.bmp	0	1	+	0	1	B1r.bmp	500	1	blank2r.bmp	800	1	DHJF	800	1	blank2r.bmp	880	3	ärger	880	1	!	1210	1	blank2r.bmp	1340	0	0	0
020218	11:17:52	1	16	5.0.10.0	d080_A21_A2_pleasB	dA21_valB_080	9	28	300	300	0	0	273	23	0	1	blank2r.bmp	0	1	+	0	6	C2r.bmp	500	1	blank2r.bmp	800	1	DHJF	800	1	blank2r.bmp	880	2	mutig	880	1	!	1210	1	blank2r.bmp	1340	0	0	0
020218	11:17:52	1	16	5.0.10.0	d080_A21_A2_unplB	dA21_valB_080	9	29	300	300	0	0	2039	18	1	1	blank2r.bmp	0	1	+	0	3	B3r.bmp	500	1	blank2r.bmp	800	1	DHJF	800	1	blank2r.bmp	880	6	traurig	880	1	!	1210	1	blank2r.bmp	1340	0	0	0
020218	11:17:52	1	16	5.0.10.0	d080_A21_A1_pleasB	dA21_valB_080	9	30	300	300	0	0	2124	18	0	1	blank2r.bmp	0	1	+	0	7	C3r.bmp	500	1	blank2r.bmp	800	1	NPLW	800	1	blank2r.bmp	880	6	kreativ	880	1	!	1210	1	blank2r.bmp	1340	0	0	0
020218	11:17:52	1	16	5.0.10.0	d080_A21_A2_pleasB	dA21_valB_080	9	31	300	300	0	0	298	18	1	1	blank2r.bmp	0	1	+	0	5	C1r.bmp	500	1	blank2r.bmp	800	1	DHJF	800	1	blank2r.bmp	880	1	gut	880	1	!	1210	1	blank2r.bmp	1340	0	0	0
020218	11:17:52	1	16	5.0.10.0	d080_A21_A1_unplB	dA21_valB_080	9	32	300	300	0	0	252	23	1	1	blank2r.bmp	0	1	+	0	2	B2r.bmp	500	1	blank2r.bmp	800	1	NPLW	800	1	blank2r.bmp	880	5	kummer	880	1	!	1210	1	blank2r.bmp	1340	0	0	0
020218	11:17:52	1	16	5.0.10.0	d080_A21_A2_unplB	dA21_valB_080	9	33	300	300	0	0	317	18	1	1	blank2r.bmp	0	1	+	0	4	B4r.bmp	500	1	blank2r.bmp	800	1	DHJF	800	1	blank2r.bmp	880	1	grausam	880	1	!	1210	1	blank2r.bmp	1340	0	0	0
020218	11:17:52	1	16	5.0.10.0	d080_A21_A2_pleasB	dA21_valB_080	9	34	300	300	0	0	135	23	0	1	blank2r.bmp	0	1	+	0	6	C2r.bmp	500	1	blank2r.bmp	800	1	DHJF	800	1	blank2r.bmp	880	5	begabt	880	1	!	1210	1	blank2r.bmp	1340	0	0	0
020218	11:17:52	1	16	5.0.10.0	d080_A21_A2_pleasB	dA21_valB_080	9	35	300	300	0	0	484	18	1	1	blank2r.bmp	0	1	+	0	2	B2r.bmp	500	1	blank2r.bmp	800	1	DHJF	800	1	blank2r.bmp	880	4	treu	880	1	!	1210	1	blank2r.bmp	1340	0	0	0
020218	11:17:52	1	16	5.0.10.0	d080_A21_A1_unplB	dA21_valB_080	9	36	300	300	0	0	333	23	1	1	blank2r.bmp	0	1	+	0	3	B3r.bmp	500	1	blank2r.bmp	800	1	NPLW	800	1	blank2r.bmp	880	2	geizig	880	1	!	1210	1	blank2r.bmp	1340	0	0	0
020218	11:17:52	1	16	5.0.10.0	d080_A21_A1_unplB	dA21_valB_080	9	37	300	300	0	0	1763	18	0	1	blank2r.bmp	0	1	+	0	5	C1r.bmp	500	1	blank2r.bmp	800	1	NPLW	800	1	blank2r.bmp	880	4	böse	880	1	!	1210	1	blank2r.bmp	1340	0	0	0
020218	11:17:52	1	16	5.0.10.0	d080_A21_A1_pleasB	dA21_valB_080	9	38	300	300	0	0	168	23	1	1	blank2r.bmp	0	1	+	0	7	C3r.bmp	500	1	blank2r.bmp	800	1	NPLW	800	1	blank2r.bmp	880	2	mutig	880	1	!	1210	1	blank2r.bmp	1340	0	0	0
020218	11:17:52	1	16	5.0.10.0	d080_A21_A1_unplB	dA21_valB_080	9	39	300	300	0	0	563	18	0	1	blank2r.bmp	0	1	+	0	1	B1r.bmp	500	1	blank2r.bmp	800	1	NPLW	800	1	blank2r.bmp	880	2	geizig	880	1	!	1210	1	blank2r.bmp	1340	0	0	0
020218	11:17:52	1	16	5.0.10.0	d080_A21_A1_pleasB	dA21_valB_080	9	40	300	300	0	0	185	23	1	1	blank2r.bmp	0	1	+	0	8	C4r.bmp	500	1	blank2r.bmp	800	1	NPLW	800	1	blank2r.bmp	880	1	gut	880	1	!	1210	1	blank2r.bmp	1340	0	0	0
020218	11:17:52	1	16	5.0.10.0	d080_A21_A2_unplB	dA21_valB_080	9	41	300	300	0	0	216	18	1	1	blank2r.bmp	0	1	+	0	1	B1r.bmp	500	1	blank2r.bmp	800	1	DHJF	800	1	blank2r.bmp	880	1	grausam	880	1	!	1210	1	blank2r.bmp	1340	0	0	0
020218	11:17:52	1	16	5.0.10.0	d080_A21_A1_pleasB	dA21_valB_080	9	42	300	300	0	0	255	23	1	1	blank2r.bmp	0	1	+	0	5	C1r.bmp	500	1	blank2r.bmp	800	1	NPLW	800	1	blank2r.bmp	880	6	kreativ	880	1	!	1210	1	blank2r.bmp	1340	0	0	0
020218	11:17:52	1	16	5.0.10.0	d080_A21_A1_unplB	dA21_valB_080	9	43	300	300	0	0	220	18	0	1	blank2r.bmp	0	1	+	0	8	C4r.bmp	500	1	blank2r.bmp	800	1	NPLW	800	1	blank2r.bmp	880	5	kummer	880	1	!	1210	1	blank2r.bmp	1340	0	0	0
020218	11:17:52	1	16	5.0.10.0	d080_A21_A1_unplB	dA21_valB_080	9	44	300	300	0	0	217	18	0	1	blank2r.bmp	0	1	+	0	7	C3r.bmp	500	1	blank2r.bmp	800	1	NPLW	800	1	blank2r.bmp	880	6	traurig	880	1	!	1210	1	blank2r.bmp	1340	0	0	0
020218	11:17:52	1	16	5.0.10.0	d080_A21_A1_pleasB	dA21_valB_080	9	45	300	300	0	0	873	23	1	1	blank2r.bmp	0	1	+	0	6	C2r.bmp	500	1	blank2r.bmp	800	1	NPLW	800	1	blank2r.bmp	880	3	kuss	880	1	!	1210	1	blank2r.bmp	1340	0	0	0
020218	11:17:52	1	16	5.0.10.0	d080_A21_A1_pleasB	dA21_valB_080	9	46	300	300	0	0	2208	23	1	1	blank2r.bmp	0	1	+	0	4	B4r.bmp	500	1	blank2r.bmp	800	1	NPLW	800	1	blank2r.bmp	880	5	begabt	880	1	!	1210	1	blank2r.bmp	1340	0	0	0
020218	11:17:52	1	16	5.0.10.0	d080_A21_A1_unplB	dA21_valB_080	9	47	300	300	0	0	220	18	0	1	blank2r.bmp	0	1	+	0	3	B3r.bmp	500	1	blank2r.bmp	800	1	NPLW	800	1	blank2r.bmp	880	4	böse	880	1	!	1210	1	blank2r.bmp	1340	0	0	0
020218	11:17:52	1	16	5.0.10.0	d080_A21_A2_unplB	dA21_valB_080	9	48	300	300	0	0	147	23	0	1	blank2r.bmp	0	1	+	0	2	B2r.bmp	500	1	blank2r.bmp	800	1	DHJF	800	1	blank2r.bmp	880	3	ärger	880	1	!	1210	1	blank2r.bmp	1340	0	0	0
020218	11:17:52	1	16	5.0.10.0	endtrial	endblock	10	1	300	300	0	0	1941830	Ctrl+'Q'	1	0	0	0	0	0	0	0	0	0	0	0	0	0	0	0	0	0	0	0	0	0	0	0	0	0	0	0	0	0	0
