date	time	group	subject	build	trialcode	blockcode	blocknum	trialnum	pretrialpause	posttrialpause	trialduration	trialtimeout	latency	response	correct	stimulusnumber1	stimulusitem1	stimulusonset1	stimulusnumber2	stimulusitem2	stimulusonset2	stimulusnumber3	stimulusitem3	stimulusonset3	stimulusnumber4	stimulusitem4	stimulusonset4	stimulusnumber5	stimulusitem5	stimulusonset5	stimulusnumber6	stimulusitem6	stimulusonset6	stimulusnumber7	stimulusitem7	stimulusonset7	stimulusnumber8	stimulusitem8	stimulusonset8	stimulusnumber9	stimulusitem9	stimulusonset9	stimulusnumber10	stimulusitem10	stimulusonset10
020118	12:04:20	1	8	5.0.10.0	dL_B21_B2_pleasA	dB21_valA_pract1	1	1	300	300	0	0	2795	23	0	1	blank2r.bmp	0	1	+	0	2	B2r.bmp	500	1	blank2r.bmp	700	1	GKQX	700	4	B4r.bmp	830	1	blank2r.bmp	870	3	freund	870	1	!	1200	1	blank2r.bmp	1330
020118	12:04:20	1	8	5.0.10.0	dL_B21_B1_pleasA	dB21_valA_pract1	1	2	300	300	0	0	89	23	1	1	blank2r.bmp	0	1	+	0	8	C4r.bmp	500	1	blank2r.bmp	700	1	BMVZ	700	2	B2r.bmp	830	1	blank2r.bmp	870	2	schön	870	1	!	1200	1	blank2r.bmp	1330
020118	12:04:20	1	8	5.0.10.0	dL_B21_B1_unplA	dB21_valA_pract1	1	3	300	300	0	0	8525	23	1	1	blank2r.bmp	0	1	+	0	3	B3r.bmp	500	1	blank2r.bmp	700	1	BMVZ	700	8	C4r.bmp	830	1	blank2r.bmp	870	3	töten	870	1	!	1200	1	blank2r.bmp	1330
020118	12:04:20	1	8	5.0.10.0	dL_B21_B2_unplA	dB21_valA_pract1	1	4	300	300	0	0	21618	23	0	1	blank2r.bmp	0	1	+	0	4	B4r.bmp	500	1	blank2r.bmp	700	1	GKQX	700	1	B1r.bmp	830	1	blank2r.bmp	870	2	neidisch	870	1	!	1200	1	blank2r.bmp	1330
020118	12:04:20	1	8	5.0.10.0	dL_B21_B1_pleasA	dB21_valA_pract1	1	5	300	300	0	0	4239	18	0	1	blank2r.bmp	0	1	+	0	6	C2r.bmp	500	1	blank2r.bmp	700	1	BMVZ	700	5	C1r.bmp	830	1	blank2r.bmp	870	4	heiter	870	1	!	1200	1	blank2r.bmp	1330
020118	12:04:20	1	8	5.0.10.0	dL_B21_B2_pleasA	dB21_valA_pract1	1	6	300	300	0	0	5962	18	1	1	blank2r.bmp	0	1	+	0	7	C3r.bmp	500	1	blank2r.bmp	700	1	GKQX	700	3	B3r.bmp	830	1	blank2r.bmp	870	1	toll	870	1	!	1200	1	blank2r.bmp	1330
020118	12:04:20	1	8	5.0.10.0	dL_B21_B1_unplA	dB21_valA_pract1	1	7	300	300	0	0	4650	23	1	1	blank2r.bmp	0	1	+	0	1	B1r.bmp	500	1	blank2r.bmp	700	1	BMVZ	700	6	C2r.bmp	830	1	blank2r.bmp	870	1	unfair	870	1	!	1200	1	blank2r.bmp	1330
020118	12:04:20	1	8	5.0.10.0	dL_B21_B2_pleasA	dB21_valA_pract1	1	8	300	300	0	0	3432	18	1	1	blank2r.bmp	0	1	+	0	5	C1r.bmp	500	1	blank2r.bmp	700	1	GKQX	700	7	C3r.bmp	830	1	blank2r.bmp	870	5	friedlich	870	1	!	1200	1	blank2r.bmp	1330
020118	12:04:20	1	8	5.0.10.0	dL_B21_B1_pleasA	dB21_valA_pract1	1	9	300	300	0	0	542	23	1	1	blank2r.bmp	0	1	+	0	6	C2r.bmp	500	1	blank2r.bmp	700	1	BMVZ	700	7	C3r.bmp	830	1	blank2r.bmp	870	6	froh	870	1	!	1200	1	blank2r.bmp	1330
020118	12:04:20	1	8	5.0.10.0	dL_B21_B2_unplA	dB21_valA_pract1	1	10	300	300	0	0	1013	18	1	1	blank2r.bmp	0	1	+	0	4	B4r.bmp	500	1	blank2r.bmp	700	1	GKQX	700	1	B1r.bmp	830	1	blank2r.bmp	870	5	schlecht	870	1	!	1200	1	blank2r.bmp	1330
020118	12:04:20	1	8	5.0.10.0	dL_B21_B2_unplA	dB21_valA_pract1	1	11	300	300	0	0	2338	18	1	1	blank2r.bmp	0	1	+	0	2	B2r.bmp	500	1	blank2r.bmp	700	1	GKQX	700	4	B4r.bmp	830	1	blank2r.bmp	870	4	elend	870	1	!	1200	1	blank2r.bmp	1330
020118	12:04:20	1	8	5.0.10.0	dL_B21_B1_unplA	dB21_valA_pract1	1	12	300	300	0	0	3145	18	0	1	blank2r.bmp	0	1	+	0	3	B3r.bmp	500	1	blank2r.bmp	700	1	BMVZ	700	6	C2r.bmp	830	1	blank2r.bmp	870	6	leiden	870	1	!	1200	1	blank2r.bmp	1330
020118	12:04:20	1	8	5.0.10.0	dM_B21_B2_unplA	dB21_valA_pract2	2	1	300	300	0	0	279	18	1	1	blank2r.bmp	0	1	+	0	5	C1r.bmp	500	1	blank2r.bmp	730	1	GKQX	730	8	C4r.bmp	830	1	blank2r.bmp	870	4	elend	870	1	!	1200	1	blank2r.bmp	1330
020118	12:04:20	1	8	5.0.10.0	dM_B21_B2_pleasA	dB21_valA_pract2	2	2	300	300	0	0	353	18	1	1	blank2r.bmp	0	1	+	0	8	C4r.bmp	500	1	blank2r.bmp	730	1	GKQX	730	2	B2r.bmp	830	1	blank2r.bmp	870	5	friedlich	870	1	!	1200	1	blank2r.bmp	1330
020118	12:04:20	1	8	5.0.10.0	dM_B21_B1_unplA	dB21_valA_pract2	2	3	300	300	0	0	218	23	1	1	blank2r.bmp	0	1	+	0	7	C3r.bmp	500	1	blank2r.bmp	730	1	BMVZ	730	5	C1r.bmp	830	1	blank2r.bmp	870	2	neidisch	870	1	!	1200	1	blank2r.bmp	1330
020118	12:04:20	1	8	5.0.10.0	dM_B21_B1_pleasA	dB21_valA_pract2	2	4	300	300	0	0	446	23	1	1	blank2r.bmp	0	1	+	0	1	B1r.bmp	500	1	blank2r.bmp	730	1	BMVZ	730	3	B3r.bmp	830	1	blank2r.bmp	870	2	schön	870	1	!	1200	1	blank2r.bmp	1330
020118	12:04:20	1	8	5.0.10.0	dM_B21_B2_pleasA	dB21_valA_pract2	2	5	300	300	0	0	121	18	1	1	blank2r.bmp	0	1	+	0	6	C2r.bmp	500	1	blank2r.bmp	730	1	GKQX	730	2	B2r.bmp	830	1	blank2r.bmp	870	1	toll	870	1	!	1200	1	blank2r.bmp	1330
020118	12:04:20	1	8	5.0.10.0	dM_B21_B1_unplA	dB21_valA_pract2	2	6	300	300	0	0	58	23	1	1	blank2r.bmp	0	1	+	0	2	B2r.bmp	500	1	blank2r.bmp	730	1	BMVZ	730	7	C3r.bmp	830	1	blank2r.bmp	870	6	leiden	870	1	!	1200	1	blank2r.bmp	1330
020118	12:04:20	1	8	5.0.10.0	dM_B21_B1_pleasA	dB21_valA_pract2	2	7	300	300	0	0	329	23	1	1	blank2r.bmp	0	1	+	0	8	C4r.bmp	500	1	blank2r.bmp	730	1	BMVZ	730	6	C2r.bmp	830	1	blank2r.bmp	870	6	froh	870	1	!	1200	1	blank2r.bmp	1330
020118	12:04:20	1	8	5.0.10.0	dM_B21_B2_unplA	dB21_valA_pract2	2	8	300	300	0	0	236	18	1	1	blank2r.bmp	0	1	+	0	5	C1r.bmp	500	1	blank2r.bmp	730	1	GKQX	730	1	B1r.bmp	830	1	blank2r.bmp	870	5	schlecht	870	1	!	1200	1	blank2r.bmp	1330
020118	12:04:20	1	8	5.0.10.0	dM_B21_B1_pleasA	dB21_valA_pract2	2	9	300	300	0	0	127	23	1	1	blank2r.bmp	0	1	+	0	4	B4r.bmp	500	1	blank2r.bmp	730	1	BMVZ	730	8	C4r.bmp	830	1	blank2r.bmp	870	4	heiter	870	1	!	1200	1	blank2r.bmp	1330
020118	12:04:20	1	8	5.0.10.0	dM_B21_B2_pleasA	dB21_valA_pract2	2	10	300	300	0	0	321	18	1	1	blank2r.bmp	0	1	+	0	1	B1r.bmp	500	1	blank2r.bmp	730	1	GKQX	730	5	C1r.bmp	830	1	blank2r.bmp	870	3	freund	870	1	!	1200	1	blank2r.bmp	1330
020118	12:04:20	1	8	5.0.10.0	dM_B21_B2_unplA	dB21_valA_pract2	2	11	300	300	0	0	357	18	1	1	blank2r.bmp	0	1	+	0	3	B3r.bmp	500	1	blank2r.bmp	730	1	GKQX	730	4	B4r.bmp	830	1	blank2r.bmp	870	3	töten	870	1	!	1200	1	blank2r.bmp	1330
020118	12:04:20	1	8	5.0.10.0	dM_B21_B1_unplA	dB21_valA_pract2	2	12	300	300	0	0	327	23	1	1	blank2r.bmp	0	1	+	0	7	C3r.bmp	500	1	blank2r.bmp	730	1	BMVZ	730	3	B3r.bmp	830	1	blank2r.bmp	870	1	unfair	870	1	!	1200	1	blank2r.bmp	1330
020118	12:04:20	1	8	5.0.10.0	d070_B21_B1_unplA	dB21_valA_070	3	1	300	300	0	0	448	18	0	1	blank2r.bmp	0	1	+	0	6	C2r.bmp	500	1	blank2r.bmp	800	1	BMVZ	800	1	blank2r.bmp	870	4	elend	870	1	!	1200	1	blank2r.bmp	1330	0	0	0
020118	12:04:20	1	8	5.0.10.0	d070_B21_B2_pleasA	dB21_valA_070	3	2	300	300	0	0	374	18	1	1	blank2r.bmp	0	1	+	0	5	C1r.bmp	500	1	blank2r.bmp	800	1	GKQX	800	1	blank2r.bmp	870	5	friedlich	870	1	!	1200	1	blank2r.bmp	1330	0	0	0
020118	12:04:20	1	8	5.0.10.0	d070_B21_B1_unplA	dB21_valA_070	3	3	300	300	0	0	525	23	1	1	blank2r.bmp	0	1	+	0	4	B4r.bmp	500	1	blank2r.bmp	800	1	BMVZ	800	1	blank2r.bmp	870	1	unfair	870	1	!	1200	1	blank2r.bmp	1330	0	0	0
020118	12:04:20	1	8	5.0.10.0	d070_B21_B2_pleasA	dB21_valA_070	3	4	300	300	0	0	236	18	1	1	blank2r.bmp	0	1	+	0	3	B3r.bmp	500	1	blank2r.bmp	800	1	GKQX	800	1	blank2r.bmp	870	3	freund	870	1	!	1200	1	blank2r.bmp	1330	0	0	0
020118	12:04:20	1	8	5.0.10.0	d070_B21_B2_unplA	dB21_valA_070	3	5	300	300	0	0	298	18	1	1	blank2r.bmp	0	1	+	0	7	C3r.bmp	500	1	blank2r.bmp	800	1	GKQX	800	1	blank2r.bmp	870	5	schlecht	870	1	!	1200	1	blank2r.bmp	1330	0	0	0
020118	12:04:20	1	8	5.0.10.0	d070_B21_B2_pleasA	dB21_valA_070	3	6	300	300	0	0	96	18	1	1	blank2r.bmp	0	1	+	0	1	B1r.bmp	500	1	blank2r.bmp	800	1	GKQX	800	1	blank2r.bmp	870	2	schön	870	1	!	1200	1	blank2r.bmp	1330	0	0	0
020118	12:04:20	1	8	5.0.10.0	d070_B21_B2_unplA	dB21_valA_070	3	7	300	300	0	0	112	18	1	1	blank2r.bmp	0	1	+	0	2	B2r.bmp	500	1	blank2r.bmp	800	1	GKQX	800	1	blank2r.bmp	870	3	töten	870	1	!	1200	1	blank2r.bmp	1330	0	0	0
020118	12:04:20	1	8	5.0.10.0	d070_B21_B1_pleasA	dB21_valA_070	3	8	300	300	0	0	27	23	1	1	blank2r.bmp	0	1	+	0	8	C4r.bmp	500	1	blank2r.bmp	800	1	BMVZ	800	1	blank2r.bmp	870	6	froh	870	1	!	1200	1	blank2r.bmp	1330	0	0	0
020118	12:04:20	1	8	5.0.10.0	d070_B21_B1_unplA	dB21_valA_070	3	9	300	300	0	0	144	23	1	1	blank2r.bmp	0	1	+	0	5	C1r.bmp	500	1	blank2r.bmp	800	1	BMVZ	800	1	blank2r.bmp	870	2	neidisch	870	1	!	1200	1	blank2r.bmp	1330	0	0	0
020118	12:04:20	1	8	5.0.10.0	d070_B21_B2_pleasA	dB21_valA_070	3	10	300	300	0	0	890	18	1	1	blank2r.bmp	0	1	+	0	8	C4r.bmp	500	1	blank2r.bmp	800	1	GKQX	800	1	blank2r.bmp	870	1	toll	870	1	!	1200	1	blank2r.bmp	1330	0	0	0
020118	12:04:20	1	8	5.0.10.0	d070_B21_B2_unplA	dB21_valA_070	3	11	300	300	0	0	241	23	0	1	blank2r.bmp	0	1	+	0	6	C2r.bmp	500	1	blank2r.bmp	800	1	GKQX	800	1	blank2r.bmp	870	6	leiden	870	1	!	1200	1	blank2r.bmp	1330	0	0	0
020118	12:04:20	1	8	5.0.10.0	d070_B21_B1_pleasA	dB21_valA_070	3	12	300	300	0	0	330	18	0	1	blank2r.bmp	0	1	+	0	7	C3r.bmp	500	1	blank2r.bmp	800	1	BMVZ	800	1	blank2r.bmp	870	4	heiter	870	1	!	1200	1	blank2r.bmp	1330	0	0	0
020118	12:04:20	1	8	5.0.10.0	d070_B21_B1_unplA	dB21_valA_070	3	13	300	300	0	0	278	23	1	1	blank2r.bmp	0	1	+	0	1	B1r.bmp	500	1	blank2r.bmp	800	1	BMVZ	800	1	blank2r.bmp	870	1	unfair	870	1	!	1200	1	blank2r.bmp	1330	0	0	0
020118	12:04:20	1	8	5.0.10.0	d070_B21_B1_pleasA	dB21_valA_070	3	14	300	300	0	0	222	18	0	1	blank2r.bmp	0	1	+	0	3	B3r.bmp	500	1	blank2r.bmp	800	1	BMVZ	800	1	blank2r.bmp	870	5	friedlich	870	1	!	1200	1	blank2r.bmp	1330	0	0	0
020118	12:04:20	1	8	5.0.10.0	d070_B21_B1_pleasA	dB21_valA_070	3	15	300	300	0	0	188	23	1	1	blank2r.bmp	0	1	+	0	2	B2r.bmp	500	1	blank2r.bmp	800	1	BMVZ	800	1	blank2r.bmp	870	1	toll	870	1	!	1200	1	blank2r.bmp	1330	0	0	0
020118	12:04:20	1	8	5.0.10.0	d070_B21_B2_pleasA	dB21_valA_070	3	16	300	300	0	0	15	18	1	1	blank2r.bmp	0	1	+	0	4	B4r.bmp	500	1	blank2r.bmp	800	1	GKQX	800	1	blank2r.bmp	870	2	schön	870	1	!	1200	1	blank2r.bmp	1330	0	0	0
020118	12:04:20	1	8	5.0.10.0	d070_B21_B1_unplA	dB21_valA_070	3	17	300	300	0	0	47	23	1	1	blank2r.bmp	0	1	+	0	7	C3r.bmp	500	1	blank2r.bmp	800	1	BMVZ	800	1	blank2r.bmp	870	4	elend	870	1	!	1200	1	blank2r.bmp	1330	0	0	0
020118	12:04:20	1	8	5.0.10.0	d070_B21_B2_pleasA	dB21_valA_070	3	18	300	300	0	0	2980	18	1	1	blank2r.bmp	0	1	+	0	3	B3r.bmp	500	1	blank2r.bmp	800	1	GKQX	800	1	blank2r.bmp	870	6	froh	870	1	!	1200	1	blank2r.bmp	1330	0	0	0
020118	12:04:20	1	8	5.0.10.0	d070_B21_B1_pleasA	dB21_valA_070	3	19	300	300	0	0	133	23	1	1	blank2r.bmp	0	1	+	0	5	C1r.bmp	500	1	blank2r.bmp	800	1	BMVZ	800	1	blank2r.bmp	870	4	heiter	870	1	!	1200	1	blank2r.bmp	1330	0	0	0
020118	12:04:20	1	8	5.0.10.0	d070_B21_B1_unplA	dB21_valA_070	3	20	300	300	0	0	235	18	0	1	blank2r.bmp	0	1	+	0	2	B2r.bmp	500	1	blank2r.bmp	800	1	BMVZ	800	1	blank2r.bmp	870	2	neidisch	870	1	!	1200	1	blank2r.bmp	1330	0	0	0
020118	12:04:20	1	8	5.0.10.0	d070_B21_B2_unplA	dB21_valA_070	3	21	300	300	0	0	178	18	1	1	blank2r.bmp	0	1	+	0	8	C4r.bmp	500	1	blank2r.bmp	800	1	GKQX	800	1	blank2r.bmp	870	3	töten	870	1	!	1200	1	blank2r.bmp	1330	0	0	0
020118	12:04:20	1	8	5.0.10.0	d070_B21_B2_pleasA	dB21_valA_070	3	22	300	300	0	0	143	23	0	1	blank2r.bmp	0	1	+	0	6	C2r.bmp	500	1	blank2r.bmp	800	1	GKQX	800	1	blank2r.bmp	870	3	freund	870	1	!	1200	1	blank2r.bmp	1330	0	0	0
020118	12:04:20	1	8	5.0.10.0	d070_B21_B2_unplA	dB21_valA_070	3	23	300	300	0	0	1594	18	1	1	blank2r.bmp	0	1	+	0	4	B4r.bmp	500	1	blank2r.bmp	800	1	GKQX	800	1	blank2r.bmp	870	5	schlecht	870	1	!	1200	1	blank2r.bmp	1330	0	0	0
020118	12:04:20	1	8	5.0.10.0	d070_B21_B1_pleasA	dB21_valA_070	3	24	300	300	0	0	296	23	1	1	blank2r.bmp	0	1	+	0	1	B1r.bmp	500	1	blank2r.bmp	800	1	BMVZ	800	1	blank2r.bmp	870	2	schön	870	1	!	1200	1	blank2r.bmp	1330	0	0	0
020118	12:04:20	1	8	5.0.10.0	d070_B21_B1_unplA	dB21_valA_070	3	25	300	300	0	0	315	23	1	1	blank2r.bmp	0	1	+	0	1	B1r.bmp	500	1	blank2r.bmp	800	1	BMVZ	800	1	blank2r.bmp	870	6	leiden	870	1	!	1200	1	blank2r.bmp	1330	0	0	0
020118	12:04:20	1	8	5.0.10.0	d070_B21_B1_unplA	dB21_valA_070	3	26	300	300	0	0	238	23	1	1	blank2r.bmp	0	1	+	0	3	B3r.bmp	500	1	blank2r.bmp	800	1	BMVZ	800	1	blank2r.bmp	870	6	leiden	870	1	!	1200	1	blank2r.bmp	1330	0	0	0
020118	12:04:20	1	8	5.0.10.0	d070_B21_B2_pleasA	dB21_valA_070	3	27	300	300	0	0	344	23	0	1	blank2r.bmp	0	1	+	0	8	C4r.bmp	500	1	blank2r.bmp	800	1	GKQX	800	1	blank2r.bmp	870	3	freund	870	1	!	1200	1	blank2r.bmp	1330	0	0	0
020118	12:04:20	1	8	5.0.10.0	d070_B21_B2_unplA	dB21_valA_070	3	28	300	300	0	0	1751	18	1	1	blank2r.bmp	0	1	+	0	6	C2r.bmp	500	1	blank2r.bmp	800	1	GKQX	800	1	blank2r.bmp	870	1	unfair	870	1	!	1200	1	blank2r.bmp	1330	0	0	0
020118	12:04:20	1	8	5.0.10.0	d070_B21_B1_pleasA	dB21_valA_070	3	29	300	300	0	0	137	23	1	1	blank2r.bmp	0	1	+	0	5	C1r.bmp	500	1	blank2r.bmp	800	1	BMVZ	800	1	blank2r.bmp	870	4	heiter	870	1	!	1200	1	blank2r.bmp	1330	0	0	0
020118	12:04:20	1	8	5.0.10.0	d070_B21_B2_unplA	dB21_valA_070	3	30	300	300	0	0	106	18	1	1	blank2r.bmp	0	1	+	0	7	C3r.bmp	500	1	blank2r.bmp	800	1	GKQX	800	1	blank2r.bmp	870	2	neidisch	870	1	!	1200	1	blank2r.bmp	1330	0	0	0
020118	12:04:20	1	8	5.0.10.0	d070_B21_B2_unplA	dB21_valA_070	3	31	300	300	0	0	298	18	1	1	blank2r.bmp	0	1	+	0	2	B2r.bmp	500	1	blank2r.bmp	800	1	GKQX	800	1	blank2r.bmp	870	4	elend	870	1	!	1200	1	blank2r.bmp	1330	0	0	0
020118	12:04:20	1	8	5.0.10.0	d070_B21_B2_pleasA	dB21_valA_070	3	32	300	300	0	0	184	18	1	1	blank2r.bmp	0	1	+	0	4	B4r.bmp	500	1	blank2r.bmp	800	1	GKQX	800	1	blank2r.bmp	870	6	froh	870	1	!	1200	1	blank2r.bmp	1330	0	0	0
020118	12:04:20	1	8	5.0.10.0	d070_B21_B1_unplA	dB21_valA_070	3	33	300	300	0	0	616	23	1	1	blank2r.bmp	0	1	+	0	5	C1r.bmp	500	1	blank2r.bmp	800	1	BMVZ	800	1	blank2r.bmp	870	3	töten	870	1	!	1200	1	blank2r.bmp	1330	0	0	0
020118	12:04:20	1	8	5.0.10.0	d070_B21_B2_pleasA	dB21_valA_070	3	34	300	300	0	0	277	18	1	1	blank2r.bmp	0	1	+	0	1	B1r.bmp	500	1	blank2r.bmp	800	1	GKQX	800	1	blank2r.bmp	870	1	toll	870	1	!	1200	1	blank2r.bmp	1330	0	0	0
020118	12:04:20	1	8	5.0.10.0	d070_B21_B2_unplA	dB21_valA_070	3	35	300	300	0	0	2341	23	0	1	blank2r.bmp	0	1	+	0	6	C2r.bmp	500	1	blank2r.bmp	800	1	GKQX	800	1	blank2r.bmp	870	5	schlecht	870	1	!	1200	1	blank2r.bmp	1330	0	0	0
020118	12:04:20	1	8	5.0.10.0	d070_B21_B1_pleasA	dB21_valA_070	3	36	300	300	0	0	9	18	0	1	blank2r.bmp	0	1	+	0	2	B2r.bmp	500	1	blank2r.bmp	800	1	BMVZ	800	1	blank2r.bmp	870	5	friedlich	870	1	!	1200	1	blank2r.bmp	1330	0	0	0
020118	12:04:20	1	8	5.0.10.0	d070_B21_B1_unplA	dB21_valA_070	3	37	300	300	0	0	112	18	0	1	blank2r.bmp	0	1	+	0	4	B4r.bmp	500	1	blank2r.bmp	800	1	BMVZ	800	1	blank2r.bmp	870	5	schlecht	870	1	!	1200	1	blank2r.bmp	1330	0	0	0
020118	12:04:20	1	8	5.0.10.0	d070_B21_B1_unplA	dB21_valA_070	3	38	300	300	0	0	2021	18	0	1	blank2r.bmp	0	1	+	0	3	B3r.bmp	500	1	blank2r.bmp	800	1	BMVZ	800	1	blank2r.bmp	870	1	unfair	870	1	!	1200	1	blank2r.bmp	1330	0	0	0
020118	12:04:20	1	8	5.0.10.0	d070_B21_B1_unplA	dB21_valA_070	3	39	300	300	0	0	1504	23	1	1	blank2r.bmp	0	1	+	0	8	C4r.bmp	500	1	blank2r.bmp	800	1	BMVZ	800	1	blank2r.bmp	870	6	leiden	870	1	!	1200	1	blank2r.bmp	1330	0	0	0
020118	12:04:20	1	8	5.0.10.0	d070_B21_B2_pleasA	dB21_valA_070	3	40	300	300	0	0	3079	18	1	1	blank2r.bmp	0	1	+	0	7	C3r.bmp	500	1	blank2r.bmp	800	1	GKQX	800	1	blank2r.bmp	870	3	freund	870	1	!	1200	1	blank2r.bmp	1330	0	0	0
020118	12:04:20	1	8	5.0.10.0	d070_B21_B1_pleasA	dB21_valA_070	3	41	300	300	0	0	3936	23	1	1	blank2r.bmp	0	1	+	0	8	C4r.bmp	500	1	blank2r.bmp	800	1	BMVZ	800	1	blank2r.bmp	870	4	heiter	870	1	!	1200	1	blank2r.bmp	1330	0	0	0
020118	12:04:20	1	8	5.0.10.0	d070_B21_B2_unplA	dB21_valA_070	3	42	300	300	0	0	0	23	0	1	blank2r.bmp	0	1	+	0	3	B3r.bmp	500	1	blank2r.bmp	800	1	GKQX	800	1	blank2r.bmp	870	2	neidisch	870	1	!	1200	1	blank2r.bmp	1330	0	0	0
020118	12:04:20	1	8	5.0.10.0	d070_B21_B2_unplA	dB21_valA_070	3	43	300	300	0	0	466	23	0	1	blank2r.bmp	0	1	+	0	5	C1r.bmp	500	1	blank2r.bmp	800	1	GKQX	800	1	blank2r.bmp	870	3	töten	870	1	!	1200	1	blank2r.bmp	1330	0	0	0
020118	12:04:20	1	8	5.0.10.0	d070_B21_B1_pleasA	dB21_valA_070	3	44	300	300	0	0	260	23	1	1	blank2r.bmp	0	1	+	0	1	B1r.bmp	500	1	blank2r.bmp	800	1	BMVZ	800	1	blank2r.bmp	870	1	toll	870	1	!	1200	1	blank2r.bmp	1330	0	0	0
020118	12:04:20	1	8	5.0.10.0	d070_B21_B1_pleasA	dB21_valA_070	3	45	300	300	0	0	423	23	1	1	blank2r.bmp	0	1	+	0	7	C3r.bmp	500	1	blank2r.bmp	800	1	BMVZ	800	1	blank2r.bmp	870	5	friedlich	870	1	!	1200	1	blank2r.bmp	1330	0	0	0
020118	12:04:20	1	8	5.0.10.0	d070_B21_B2_pleasA	dB21_valA_070	3	46	300	300	0	0	474	23	0	1	blank2r.bmp	0	1	+	0	6	C2r.bmp	500	1	blank2r.bmp	800	1	GKQX	800	1	blank2r.bmp	870	2	schön	870	1	!	1200	1	blank2r.bmp	1330	0	0	0
020118	12:04:20	1	8	5.0.10.0	d070_B21_B2_unplA	dB21_valA_070	3	47	300	300	0	0	274	23	0	1	blank2r.bmp	0	1	+	0	2	B2r.bmp	500	1	blank2r.bmp	800	1	GKQX	800	1	blank2r.bmp	870	4	elend	870	1	!	1200	1	blank2r.bmp	1330	0	0	0
020118	12:04:20	1	8	5.0.10.0	d070_B21_B1_pleasA	dB21_valA_070	3	48	300	300	0	0	982	23	1	1	blank2r.bmp	0	1	+	0	4	B4r.bmp	500	1	blank2r.bmp	800	1	BMVZ	800	1	blank2r.bmp	870	6	froh	870	1	!	1200	1	blank2r.bmp	1330	0	0	0
020118	12:04:20	1	8	5.0.10.0	d070_B21_B1_unplA	dB21_valA_070	4	1	300	300	0	0	106	18	0	1	blank2r.bmp	0	1	+	0	1	B1r.bmp	500	1	blank2r.bmp	800	1	BMVZ	800	1	blank2r.bmp	870	3	töten	870	1	!	1200	1	blank2r.bmp	1330	0	0	0
020118	12:04:20	1	8	5.0.10.0	d070_B21_B2_unplA	dB21_valA_070	4	2	300	300	0	0	1733	23	0	1	blank2r.bmp	0	1	+	0	3	B3r.bmp	500	1	blank2r.bmp	800	1	GKQX	800	1	blank2r.bmp	870	4	elend	870	1	!	1200	1	blank2r.bmp	1330	0	0	0
020118	12:04:20	1	8	5.0.10.0	d070_B21_B1_unplA	dB21_valA_070	4	3	300	300	0	0	37	23	1	1	blank2r.bmp	0	1	+	0	4	B4r.bmp	500	1	blank2r.bmp	800	1	BMVZ	800	1	blank2r.bmp	870	2	neidisch	870	1	!	1200	1	blank2r.bmp	1330	0	0	0
020118	12:04:20	1	8	5.0.10.0	d070_B21_B2_unplA	dB21_valA_070	4	4	300	300	0	0	1042	18	1	1	blank2r.bmp	0	1	+	0	6	C2r.bmp	500	1	blank2r.bmp	800	1	GKQX	800	1	blank2r.bmp	870	1	unfair	870	1	!	1200	1	blank2r.bmp	1330	0	0	0
020118	12:04:20	1	8	5.0.10.0	d070_B21_B2_unplA	dB21_valA_070	4	5	300	300	0	0	104	18	1	1	blank2r.bmp	0	1	+	0	7	C3r.bmp	500	1	blank2r.bmp	800	1	GKQX	800	1	blank2r.bmp	870	5	schlecht	870	1	!	1200	1	blank2r.bmp	1330	0	0	0
020118	12:04:20	1	8	5.0.10.0	d070_B21_B1_pleasA	dB21_valA_070	4	6	300	300	0	0	1697	23	1	1	blank2r.bmp	0	1	+	0	5	C1r.bmp	500	1	blank2r.bmp	800	1	BMVZ	800	1	blank2r.bmp	870	4	heiter	870	1	!	1200	1	blank2r.bmp	1330	0	0	0
020118	12:04:20	1	8	5.0.10.0	d070_B21_B2_unplA	dB21_valA_070	4	7	300	300	0	0	177	18	1	1	blank2r.bmp	0	1	+	0	8	C4r.bmp	500	1	blank2r.bmp	800	1	GKQX	800	1	blank2r.bmp	870	6	leiden	870	1	!	1200	1	blank2r.bmp	1330	0	0	0
020118	12:04:20	1	8	5.0.10.0	d070_B21_B2_unplA	dB21_valA_070	4	8	300	300	0	0	2881	18	1	1	blank2r.bmp	0	1	+	0	2	B2r.bmp	500	1	blank2r.bmp	800	1	GKQX	800	1	blank2r.bmp	870	5	schlecht	870	1	!	1200	1	blank2r.bmp	1330	0	0	0
020118	12:04:20	1	8	5.0.10.0	d070_B21_B1_pleasA	dB21_valA_070	4	9	300	300	0	0	249	23	1	1	blank2r.bmp	0	1	+	0	6	C2r.bmp	500	1	blank2r.bmp	800	1	BMVZ	800	1	blank2r.bmp	870	5	friedlich	870	1	!	1200	1	blank2r.bmp	1330	0	0	0
020118	12:04:20	1	8	5.0.10.0	d070_B21_B2_unplA	dB21_valA_070	4	10	300	300	0	0	220	18	1	1	blank2r.bmp	0	1	+	0	7	C3r.bmp	500	1	blank2r.bmp	800	1	GKQX	800	1	blank2r.bmp	870	1	unfair	870	1	!	1200	1	blank2r.bmp	1330	0	0	0
020118	12:04:20	1	8	5.0.10.0	d070_B21_B1_unplA	dB21_valA_070	4	11	300	300	0	0	118	23	1	1	blank2r.bmp	0	1	+	0	8	C4r.bmp	500	1	blank2r.bmp	800	1	BMVZ	800	1	blank2r.bmp	870	4	elend	870	1	!	1200	1	blank2r.bmp	1330	0	0	0
020118	12:04:20	1	8	5.0.10.0	d070_B21_B2_pleasA	dB21_valA_070	4	12	300	300	0	0	2350	23	0	1	blank2r.bmp	0	1	+	0	4	B4r.bmp	500	1	blank2r.bmp	800	1	GKQX	800	1	blank2r.bmp	870	3	freund	870	1	!	1200	1	blank2r.bmp	1330	0	0	0
020118	12:04:20	1	8	5.0.10.0	d070_B21_B1_pleasA	dB21_valA_070	4	13	300	300	0	0	1800	18	0	1	blank2r.bmp	0	1	+	0	2	B2r.bmp	500	1	blank2r.bmp	800	1	BMVZ	800	1	blank2r.bmp	870	6	froh	870	1	!	1200	1	blank2r.bmp	1330	0	0	0
020118	12:04:20	1	8	5.0.10.0	d070_B21_B2_pleasA	dB21_valA_070	4	14	300	300	0	0	741	18	1	1	blank2r.bmp	0	1	+	0	1	B1r.bmp	500	1	blank2r.bmp	800	1	GKQX	800	1	blank2r.bmp	870	2	schön	870	1	!	1200	1	blank2r.bmp	1330	0	0	0
020118	12:04:20	1	8	5.0.10.0	d070_B21_B1_unplA	dB21_valA_070	4	15	300	300	0	0	2370	23	1	1	blank2r.bmp	0	1	+	0	5	C1r.bmp	500	1	blank2r.bmp	800	1	BMVZ	800	1	blank2r.bmp	870	2	neidisch	870	1	!	1200	1	blank2r.bmp	1330	0	0	0
020118	12:04:20	1	8	5.0.10.0	d070_B21_B1_unplA	dB21_valA_070	4	16	300	300	0	0	1478	23	1	1	blank2r.bmp	0	1	+	0	3	B3r.bmp	500	1	blank2r.bmp	800	1	BMVZ	800	1	blank2r.bmp	870	3	töten	870	1	!	1200	1	blank2r.bmp	1330	0	0	0
020118	12:04:20	1	8	5.0.10.0	d070_B21_B1_pleasA	dB21_valA_070	4	17	300	300	0	0	791	18	0	1	blank2r.bmp	0	1	+	0	6	C2r.bmp	500	1	blank2r.bmp	800	1	BMVZ	800	1	blank2r.bmp	870	1	toll	870	1	!	1200	1	blank2r.bmp	1330	0	0	0
020118	12:04:20	1	8	5.0.10.0	d070_B21_B2_unplA	dB21_valA_070	4	18	300	300	0	0	818	18	1	1	blank2r.bmp	0	1	+	0	1	B1r.bmp	500	1	blank2r.bmp	800	1	GKQX	800	1	blank2r.bmp	870	6	leiden	870	1	!	1200	1	blank2r.bmp	1330	0	0	0
020118	12:04:20	1	8	5.0.10.0	d070_B21_B2_pleasA	dB21_valA_070	4	19	300	300	0	0	753	23	0	1	blank2r.bmp	0	1	+	0	4	B4r.bmp	500	1	blank2r.bmp	800	1	GKQX	800	1	blank2r.bmp	870	3	freund	870	1	!	1200	1	blank2r.bmp	1330	0	0	0
020118	12:04:20	1	8	5.0.10.0	d070_B21_B1_unplA	dB21_valA_070	4	20	300	300	0	0	403	18	0	1	blank2r.bmp	0	1	+	0	2	B2r.bmp	500	1	blank2r.bmp	800	1	BMVZ	800	1	blank2r.bmp	870	3	töten	870	1	!	1200	1	blank2r.bmp	1330	0	0	0
020118	12:04:20	1	8	5.0.10.0	d070_B21_B1_unplA	dB21_valA_070	4	21	300	300	0	0	491	18	0	1	blank2r.bmp	0	1	+	0	3	B3r.bmp	500	1	blank2r.bmp	800	1	BMVZ	800	1	blank2r.bmp	870	1	unfair	870	1	!	1200	1	blank2r.bmp	1330	0	0	0
020118	12:04:20	1	8	5.0.10.0	d070_B21_B2_unplA	dB21_valA_070	4	22	300	300	0	0	842	18	1	1	blank2r.bmp	0	1	+	0	7	C3r.bmp	500	1	blank2r.bmp	800	1	GKQX	800	1	blank2r.bmp	870	2	neidisch	870	1	!	1200	1	blank2r.bmp	1330	0	0	0
020118	12:04:20	1	8	5.0.10.0	d070_B21_B2_unplA	dB21_valA_070	4	23	300	300	0	0	576	23	0	1	blank2r.bmp	0	1	+	0	8	C4r.bmp	500	1	blank2r.bmp	800	1	GKQX	800	1	blank2r.bmp	870	4	elend	870	1	!	1200	1	blank2r.bmp	1330	0	0	0
020118	12:04:20	1	8	5.0.10.0	d070_B21_B2_unplA	dB21_valA_070	4	24	300	300	0	0	545	23	0	1	blank2r.bmp	0	1	+	0	5	C1r.bmp	500	1	blank2r.bmp	800	1	GKQX	800	1	blank2r.bmp	870	6	leiden	870	1	!	1200	1	blank2r.bmp	1330	0	0	0
020118	12:04:20	1	8	5.0.10.0	d070_B21_B2_pleasA	dB21_valA_070	4	25	300	300	0	0	1283	18	1	1	blank2r.bmp	0	1	+	0	2	B2r.bmp	500	1	blank2r.bmp	800	1	GKQX	800	1	blank2r.bmp	870	6	froh	870	1	!	1200	1	blank2r.bmp	1330	0	0	0
020118	12:04:20	1	8	5.0.10.0	d070_B21_B1_unplA	dB21_valA_070	4	26	300	300	0	0	484	18	0	1	blank2r.bmp	0	1	+	0	4	B4r.bmp	500	1	blank2r.bmp	800	1	BMVZ	800	1	blank2r.bmp	870	5	schlecht	870	1	!	1200	1	blank2r.bmp	1330	0	0	0
020118	12:04:20	1	8	5.0.10.0	d070_B21_B2_pleasA	dB21_valA_070	4	27	300	300	0	0	888	18	1	1	blank2r.bmp	0	1	+	0	3	B3r.bmp	500	1	blank2r.bmp	800	1	GKQX	800	1	blank2r.bmp	870	4	heiter	870	1	!	1200	1	blank2r.bmp	1330	0	0	0
020118	12:04:20	1	8	5.0.10.0	d070_B21_B1_pleasA	dB21_valA_070	4	28	300	300	0	0	605	23	1	1	blank2r.bmp	0	1	+	0	8	C4r.bmp	500	1	blank2r.bmp	800	1	BMVZ	800	1	blank2r.bmp	870	2	schön	870	1	!	1200	1	blank2r.bmp	1330	0	0	0
020118	12:04:20	1	8	5.0.10.0	d070_B21_B1_unplA	dB21_valA_070	4	29	300	300	0	0	655	23	1	1	blank2r.bmp	0	1	+	0	1	B1r.bmp	500	1	blank2r.bmp	800	1	BMVZ	800	1	blank2r.bmp	870	3	töten	870	1	!	1200	1	blank2r.bmp	1330	0	0	0
020118	12:04:20	1	8	5.0.10.0	d070_B21_B1_unplA	dB21_valA_070	4	30	300	300	0	0	907	23	1	1	blank2r.bmp	0	1	+	0	6	C2r.bmp	500	1	blank2r.bmp	800	1	BMVZ	800	1	blank2r.bmp	870	6	leiden	870	1	!	1200	1	blank2r.bmp	1330	0	0	0
020118	12:04:20	1	8	5.0.10.0	d070_B21_B1_pleasA	dB21_valA_070	4	31	300	300	0	0	906	23	1	1	blank2r.bmp	0	1	+	0	7	C3r.bmp	500	1	blank2r.bmp	800	1	BMVZ	800	1	blank2r.bmp	870	5	friedlich	870	1	!	1200	1	blank2r.bmp	1330	0	0	0
020118	12:04:20	1	8	5.0.10.0	d070_B21_B2_unplA	dB21_valA_070	4	32	300	300	0	0	881	18	1	1	blank2r.bmp	0	1	+	0	5	C1r.bmp	500	1	blank2r.bmp	800	1	GKQX	800	1	blank2r.bmp	870	2	neidisch	870	1	!	1200	1	blank2r.bmp	1330	0	0	0
020118	12:04:20	1	8	5.0.10.0	d070_B21_B2_pleasA	dB21_valA_070	4	33	300	300	0	0	419	18	1	1	blank2r.bmp	0	1	+	0	5	C1r.bmp	500	1	blank2r.bmp	800	1	GKQX	800	1	blank2r.bmp	870	1	toll	870	1	!	1200	1	blank2r.bmp	1330	0	0	0
020118	12:04:20	1	8	5.0.10.0	d070_B21_B2_pleasA	dB21_valA_070	4	34	300	300	0	0	530	18	1	1	blank2r.bmp	0	1	+	0	7	C3r.bmp	500	1	blank2r.bmp	800	1	GKQX	800	1	blank2r.bmp	870	6	froh	870	1	!	1200	1	blank2r.bmp	1330	0	0	0
020118	12:04:20	1	8	5.0.10.0	d070_B21_B2_pleasA	dB21_valA_070	4	35	300	300	0	0	689	18	1	1	blank2r.bmp	0	1	+	0	8	C4r.bmp	500	1	blank2r.bmp	800	1	GKQX	800	1	blank2r.bmp	870	2	schön	870	1	!	1200	1	blank2r.bmp	1330	0	0	0
020118	12:04:20	1	8	5.0.10.0	d070_B21_B2_pleasA	dB21_valA_070	4	36	300	300	0	0	889	23	0	1	blank2r.bmp	0	1	+	0	6	C2r.bmp	500	1	blank2r.bmp	800	1	GKQX	800	1	blank2r.bmp	870	3	freund	870	1	!	1200	1	blank2r.bmp	1330	0	0	0
020118	12:04:20	1	8	5.0.10.0	d070_B21_B2_pleasA	dB21_valA_070	4	37	300	300	0	0	654	23	0	1	blank2r.bmp	0	1	+	0	3	B3r.bmp	500	1	blank2r.bmp	800	1	GKQX	800	1	blank2r.bmp	870	4	heiter	870	1	!	1200	1	blank2r.bmp	1330	0	0	0
020118	12:04:20	1	8	5.0.10.0	d070_B21_B1_pleasA	dB21_valA_070	4	38	300	300	0	0	335	23	1	1	blank2r.bmp	0	1	+	0	1	B1r.bmp	500	1	blank2r.bmp	800	1	BMVZ	800	1	blank2r.bmp	870	1	toll	870	1	!	1200	1	blank2r.bmp	1330	0	0	0
020118	12:04:20	1	8	5.0.10.0	d070_B21_B2_unplA	dB21_valA_070	4	39	300	300	0	0	571	23	0	1	blank2r.bmp	0	1	+	0	4	B4r.bmp	500	1	blank2r.bmp	800	1	GKQX	800	1	blank2r.bmp	870	1	unfair	870	1	!	1200	1	blank2r.bmp	1330	0	0	0
020118	12:04:20	1	8	5.0.10.0	d070_B21_B1_pleasA	dB21_valA_070	4	40	300	300	0	0	1467	23	1	1	blank2r.bmp	0	1	+	0	2	B2r.bmp	500	1	blank2r.bmp	800	1	BMVZ	800	1	blank2r.bmp	870	5	friedlich	870	1	!	1200	1	blank2r.bmp	1330	0	0	0
020118	12:04:20	1	8	5.0.10.0	d070_B21_B2_pleasA	dB21_valA_070	4	41	300	300	0	0	239	18	1	1	blank2r.bmp	0	1	+	0	7	C3r.bmp	500	1	blank2r.bmp	800	1	GKQX	800	1	blank2r.bmp	870	6	froh	870	1	!	1200	1	blank2r.bmp	1330	0	0	0
020118	12:04:20	1	8	5.0.10.0	d070_B21_B1_pleasA	dB21_valA_070	4	42	300	300	0	0	332	23	1	1	blank2r.bmp	0	1	+	0	5	C1r.bmp	500	1	blank2r.bmp	800	1	BMVZ	800	1	blank2r.bmp	870	4	heiter	870	1	!	1200	1	blank2r.bmp	1330	0	0	0
020118	12:04:20	1	8	5.0.10.0	d070_B21_B1_pleasA	dB21_valA_070	4	43	300	300	0	0	280	18	0	1	blank2r.bmp	0	1	+	0	8	C4r.bmp	500	1	blank2r.bmp	800	1	BMVZ	800	1	blank2r.bmp	870	5	friedlich	870	1	!	1200	1	blank2r.bmp	1330	0	0	0
020118	12:04:20	1	8	5.0.10.0	d070_B21_B2_pleasA	dB21_valA_070	4	44	300	300	0	0	442	18	1	1	blank2r.bmp	0	1	+	0	3	B3r.bmp	500	1	blank2r.bmp	800	1	GKQX	800	1	blank2r.bmp	870	1	toll	870	1	!	1200	1	blank2r.bmp	1330	0	0	0
020118	12:04:20	1	8	5.0.10.0	d070_B21_B1_unplA	dB21_valA_070	4	45	300	300	0	0	1424	23	1	1	blank2r.bmp	0	1	+	0	6	C2r.bmp	500	1	blank2r.bmp	800	1	BMVZ	800	1	blank2r.bmp	870	5	schlecht	870	1	!	1200	1	blank2r.bmp	1330	0	0	0
020118	12:04:20	1	8	5.0.10.0	d070_B21_B1_pleasA	dB21_valA_070	4	46	300	300	0	0	419	18	0	1	blank2r.bmp	0	1	+	0	4	B4r.bmp	500	1	blank2r.bmp	800	1	BMVZ	800	1	blank2r.bmp	870	3	freund	870	1	!	1200	1	blank2r.bmp	1330	0	0	0
020118	12:04:20	1	8	5.0.10.0	d070_B21_B1_pleasA	dB21_valA_070	4	47	300	300	0	0	193	18	0	1	blank2r.bmp	0	1	+	0	2	B2r.bmp	500	1	blank2r.bmp	800	1	BMVZ	800	1	blank2r.bmp	870	2	schön	870	1	!	1200	1	blank2r.bmp	1330	0	0	0
020118	12:04:20	1	8	5.0.10.0	d070_B21_B1_unplA	dB21_valA_070	4	48	300	300	0	0	544	23	1	1	blank2r.bmp	0	1	+	0	1	B1r.bmp	500	1	blank2r.bmp	800	1	BMVZ	800	1	blank2r.bmp	870	4	elend	870	1	!	1200	1	blank2r.bmp	1330	0	0	0
020118	12:04:20	1	8	5.0.10.0	dL_A21_A1_unplB	dA21_valB_pract1	6	1	300	300	0	0	61	23	1	1	blank2r.bmp	0	1	+	0	3	B3r.bmp	500	1	blank2r.bmp	700	1	NPLW	700	7	C3r.bmp	830	1	blank2r.bmp	870	6	traurig	870	1	!	1200	1	blank2r.bmp	1330
020118	12:04:20	1	8	5.0.10.0	dL_A21_A2_pleasB	dA21_valB_pract1	6	2	300	300	0	0	109	18	1	1	blank2r.bmp	0	1	+	0	4	B4r.bmp	500	1	blank2r.bmp	700	1	DHJF	700	6	C2r.bmp	830	1	blank2r.bmp	870	6	kreativ	870	1	!	1200	1	blank2r.bmp	1330
020118	12:04:20	1	8	5.0.10.0	dL_A21_A2_pleasB	dA21_valB_pract1	6	3	300	300	0	0	408	18	1	1	blank2r.bmp	0	1	+	0	7	C3r.bmp	500	1	blank2r.bmp	700	1	DHJF	700	5	C1r.bmp	830	1	blank2r.bmp	870	1	gut	870	1	!	1200	1	blank2r.bmp	1330
020118	12:04:20	1	8	5.0.10.0	dL_A21_A1_unplB	dA21_valB_pract1	6	4	300	300	0	0	148	23	1	1	blank2r.bmp	0	1	+	0	2	B2r.bmp	500	1	blank2r.bmp	700	1	NPLW	700	3	B3r.bmp	830	1	blank2r.bmp	870	5	kummer	870	1	!	1200	1	blank2r.bmp	1330
020118	12:04:20	1	8	5.0.10.0	dL_A21_A2_unplB	dA21_valB_pract1	6	5	300	300	0	0	245	18	1	1	blank2r.bmp	0	1	+	0	6	C2r.bmp	500	1	blank2r.bmp	700	1	DHJF	700	4	B4r.bmp	830	1	blank2r.bmp	870	1	grausam	870	1	!	1200	1	blank2r.bmp	1330
020118	12:04:20	1	8	5.0.10.0	dL_A21_A1_pleasB	dA21_valB_pract1	6	6	300	300	0	0	1485	23	1	1	blank2r.bmp	0	1	+	0	8	C4r.bmp	500	1	blank2r.bmp	700	1	NPLW	700	2	B2r.bmp	830	1	blank2r.bmp	870	3	kuss	870	1	!	1200	1	blank2r.bmp	1330
020118	12:04:20	1	8	5.0.10.0	dL_A21_A1_pleasB	dA21_valB_pract1	6	7	300	300	0	0	2747	23	1	1	blank2r.bmp	0	1	+	0	1	B1r.bmp	500	1	blank2r.bmp	700	1	NPLW	700	8	C4r.bmp	830	1	blank2r.bmp	870	2	mutig	870	1	!	1200	1	blank2r.bmp	1330
020118	12:04:20	1	8	5.0.10.0	dL_A21_A2_unplB	dA21_valB_pract1	6	8	300	300	0	0	336	18	1	1	blank2r.bmp	0	1	+	0	5	C1r.bmp	500	1	blank2r.bmp	700	1	DHJF	700	1	B1r.bmp	830	1	blank2r.bmp	870	4	böse	870	1	!	1200	1	blank2r.bmp	1330
020118	12:04:20	1	8	5.0.10.0	dL_A21_A2_pleasB	dA21_valB_pract1	6	9	300	300	0	0	370	18	1	1	blank2r.bmp	0	1	+	0	8	C4r.bmp	500	1	blank2r.bmp	700	1	DHJF	700	2	B2r.bmp	830	1	blank2r.bmp	870	4	treu	870	1	!	1200	1	blank2r.bmp	1330
020118	12:04:20	1	8	5.0.10.0	dL_A21_A1_unplB	dA21_valB_pract1	6	10	300	300	0	0	518	23	1	1	blank2r.bmp	0	1	+	0	2	B2r.bmp	500	1	blank2r.bmp	700	1	NPLW	700	1	B1r.bmp	830	1	blank2r.bmp	870	2	geizig	870	1	!	1200	1	blank2r.bmp	1330
020118	12:04:20	1	8	5.0.10.0	dL_A21_A1_pleasB	dA21_valB_pract1	6	11	300	300	0	0	665	23	1	1	blank2r.bmp	0	1	+	0	4	B4r.bmp	500	1	blank2r.bmp	700	1	NPLW	700	6	C2r.bmp	830	1	blank2r.bmp	870	5	begabt	870	1	!	1200	1	blank2r.bmp	1330
020118	12:04:20	1	8	5.0.10.0	dL_A21_A2_unplB	dA21_valB_pract1	6	12	300	300	0	0	263	18	1	1	blank2r.bmp	0	1	+	0	1	B1r.bmp	500	1	blank2r.bmp	700	1	DHJF	700	4	B4r.bmp	830	1	blank2r.bmp	870	3	ärger	870	1	!	1200	1	blank2r.bmp	1330
020118	12:04:20	1	8	5.0.10.0	dM_A21_A2_unplB	dA21_valB_pract2	7	1	300	300	0	0	252	18	1	1	blank2r.bmp	0	1	+	0	5	C1r.bmp	500	1	blank2r.bmp	730	1	DHJF	730	7	C3r.bmp	830	1	blank2r.bmp	870	6	traurig	870	1	!	1200	1	blank2r.bmp	1330
020118	12:04:20	1	8	5.0.10.0	dM_A21_A1_pleasB	dA21_valB_pract2	7	2	300	300	0	0	1546	18	0	1	blank2r.bmp	0	1	+	0	7	C3r.bmp	500	1	blank2r.bmp	730	1	NPLW	730	5	C1r.bmp	830	1	blank2r.bmp	870	3	kuss	870	1	!	1200	1	blank2r.bmp	1330
020118	12:04:20	1	8	5.0.10.0	dM_A21_A2_unplB	dA21_valB_pract2	7	3	300	300	0	0	188	18	1	1	blank2r.bmp	0	1	+	0	3	B3r.bmp	500	1	blank2r.bmp	730	1	DHJF	730	8	C4r.bmp	830	1	blank2r.bmp	870	3	ärger	870	1	!	1200	1	blank2r.bmp	1330
020118	12:04:20	1	8	5.0.10.0	dM_A21_A1_pleasB	dA21_valB_pract2	7	4	300	300	0	0	162	23	1	1	blank2r.bmp	0	1	+	0	6	C2r.bmp	500	1	blank2r.bmp	730	1	NPLW	730	3	B3r.bmp	830	1	blank2r.bmp	870	2	mutig	870	1	!	1200	1	blank2r.bmp	1330
020118	12:04:20	1	8	5.0.10.0	dM_A21_A2_unplB	dA21_valB_pract2	7	5	300	300	0	0	269	18	1	1	blank2r.bmp	0	1	+	0	3	B3r.bmp	500	1	blank2r.bmp	730	1	DHJF	730	4	B4r.bmp	830	1	blank2r.bmp	870	5	kummer	870	1	!	1200	1	blank2r.bmp	1330
020118	12:04:20	1	8	5.0.10.0	dM_A21_A2_pleasB	dA21_valB_pract2	7	6	300	300	0	0	281	18	1	1	blank2r.bmp	0	1	+	0	4	B4r.bmp	500	1	blank2r.bmp	730	1	DHJF	730	8	C4r.bmp	830	1	blank2r.bmp	870	1	gut	870	1	!	1200	1	blank2r.bmp	1330
020118	12:04:20	1	8	5.0.10.0	dM_A21_A1_unplB	dA21_valB_pract2	7	7	300	300	0	0	321	23	1	1	blank2r.bmp	0	1	+	0	7	C3r.bmp	500	1	blank2r.bmp	730	1	NPLW	730	1	B1r.bmp	830	1	blank2r.bmp	870	4	böse	870	1	!	1200	1	blank2r.bmp	1330
020118	12:04:20	1	8	5.0.10.0	dM_A21_A2_pleasB	dA21_valB_pract2	7	8	300	300	0	0	87	18	1	1	blank2r.bmp	0	1	+	0	6	C2r.bmp	500	1	blank2r.bmp	730	1	DHJF	730	7	C3r.bmp	830	1	blank2r.bmp	870	6	kreativ	870	1	!	1200	1	blank2r.bmp	1330
020118	12:04:20	1	8	5.0.10.0	dM_A21_A1_unplB	dA21_valB_pract2	7	9	300	300	0	0	203	23	1	1	blank2r.bmp	0	1	+	0	8	C4r.bmp	500	1	blank2r.bmp	730	1	NPLW	730	2	B2r.bmp	830	1	blank2r.bmp	870	1	grausam	870	1	!	1200	1	blank2r.bmp	1330
020118	12:04:20	1	8	5.0.10.0	dM_A21_A1_unplB	dA21_valB_pract2	7	10	300	300	0	0	192	23	1	1	blank2r.bmp	0	1	+	0	5	C1r.bmp	500	1	blank2r.bmp	730	1	NPLW	730	6	C2r.bmp	830	1	blank2r.bmp	870	2	geizig	870	1	!	1200	1	blank2r.bmp	1330
020118	12:04:20	1	8	5.0.10.0	dM_A21_A1_pleasB	dA21_valB_pract2	7	11	300	300	0	0	252	18	0	1	blank2r.bmp	0	1	+	0	1	B1r.bmp	500	1	blank2r.bmp	730	1	NPLW	730	3	B3r.bmp	830	1	blank2r.bmp	870	4	treu	870	1	!	1200	1	blank2r.bmp	1330
020118	12:04:20	1	8	5.0.10.0	dM_A21_A2_pleasB	dA21_valB_pract2	7	12	300	300	0	0	319	18	1	1	blank2r.bmp	0	1	+	0	2	B2r.bmp	500	1	blank2r.bmp	730	1	DHJF	730	5	C1r.bmp	830	1	blank2r.bmp	870	5	begabt	870	1	!	1200	1	blank2r.bmp	1330
020118	12:04:20	1	8	5.0.10.0	d080_A21_A1_pleasB	dA21_valB_080	8	1	300	300	0	0	576	23	1	1	blank2r.bmp	0	1	+	0	6	C2r.bmp	500	1	blank2r.bmp	800	1	NPLW	800	1	blank2r.bmp	880	5	begabt	880	1	!	1210	1	blank2r.bmp	1340	0	0	0
020118	12:04:20	1	8	5.0.10.0	d080_A21_A2_pleasB	dA21_valB_080	8	2	300	300	0	0	50	18	1	1	blank2r.bmp	0	1	+	0	5	C1r.bmp	500	1	blank2r.bmp	800	1	DHJF	800	1	blank2r.bmp	880	3	kuss	880	1	!	1210	1	blank2r.bmp	1340	0	0	0
020118	12:04:20	1	8	5.0.10.0	d080_A21_A1_unplB	dA21_valB_080	8	3	300	300	0	0	103	18	0	1	blank2r.bmp	0	1	+	0	1	B1r.bmp	500	1	blank2r.bmp	800	1	NPLW	800	1	blank2r.bmp	880	6	traurig	880	1	!	1210	1	blank2r.bmp	1340	0	0	0
020118	12:04:20	1	8	5.0.10.0	d080_A21_A1_pleasB	dA21_valB_080	8	4	300	300	0	0	1590	23	1	1	blank2r.bmp	0	1	+	0	3	B3r.bmp	500	1	blank2r.bmp	800	1	NPLW	800	1	blank2r.bmp	880	4	treu	880	1	!	1210	1	blank2r.bmp	1340	0	0	0
020118	12:04:20	1	8	5.0.10.0	d080_A21_A2_pleasB	dA21_valB_080	8	5	300	300	0	0	249	18	1	1	blank2r.bmp	0	1	+	0	7	C3r.bmp	500	1	blank2r.bmp	800	1	DHJF	800	1	blank2r.bmp	880	6	kreativ	880	1	!	1210	1	blank2r.bmp	1340	0	0	0
020118	12:04:20	1	8	5.0.10.0	d080_A21_A2_pleasB	dA21_valB_080	8	6	300	300	0	0	2240	18	1	1	blank2r.bmp	0	1	+	0	4	B4r.bmp	500	1	blank2r.bmp	800	1	DHJF	800	1	blank2r.bmp	880	1	gut	880	1	!	1210	1	blank2r.bmp	1340	0	0	0
020118	12:04:20	1	8	5.0.10.0	d080_A21_A2_unplB	dA21_valB_080	8	7	300	300	0	0	408	18	1	1	blank2r.bmp	0	1	+	0	8	C4r.bmp	500	1	blank2r.bmp	800	1	DHJF	800	1	blank2r.bmp	880	5	kummer	880	1	!	1210	1	blank2r.bmp	1340	0	0	0
020118	12:04:20	1	8	5.0.10.0	d080_A21_A2_pleasB	dA21_valB_080	8	8	300	300	0	0	203	18	1	1	blank2r.bmp	0	1	+	0	2	B2r.bmp	500	1	blank2r.bmp	800	1	DHJF	800	1	blank2r.bmp	880	2	mutig	880	1	!	1210	1	blank2r.bmp	1340	0	0	0
020118	12:04:20	1	8	5.0.10.0	d080_A21_A1_pleasB	dA21_valB_080	8	9	300	300	0	0	326	23	1	1	blank2r.bmp	0	1	+	0	2	B2r.bmp	500	1	blank2r.bmp	800	1	NPLW	800	1	blank2r.bmp	880	3	kuss	880	1	!	1210	1	blank2r.bmp	1340	0	0	0
020118	12:04:20	1	8	5.0.10.0	d080_A21_A2_unplB	dA21_valB_080	8	10	300	300	0	0	1666	18	1	1	blank2r.bmp	0	1	+	0	8	C4r.bmp	500	1	blank2r.bmp	800	1	DHJF	800	1	blank2r.bmp	880	4	böse	880	1	!	1210	1	blank2r.bmp	1340	0	0	0
020118	12:04:20	1	8	5.0.10.0	d080_A21_A1_pleasB	dA21_valB_080	8	11	300	300	0	0	176	23	1	1	blank2r.bmp	0	1	+	0	7	C3r.bmp	500	1	blank2r.bmp	800	1	NPLW	800	1	blank2r.bmp	880	2	mutig	880	1	!	1210	1	blank2r.bmp	1340	0	0	0
020118	12:04:20	1	8	5.0.10.0	d080_A21_A1_pleasB	dA21_valB_080	8	12	300	300	0	0	2586	18	0	1	blank2r.bmp	0	1	+	0	5	C1r.bmp	500	1	blank2r.bmp	800	1	NPLW	800	1	blank2r.bmp	880	1	gut	880	1	!	1210	1	blank2r.bmp	1340	0	0	0
020118	12:04:20	1	8	5.0.10.0	d080_A21_A1_unplB	dA21_valB_080	8	13	300	300	0	0	1148	23	1	1	blank2r.bmp	0	1	+	0	3	B3r.bmp	500	1	blank2r.bmp	800	1	NPLW	800	1	blank2r.bmp	880	1	grausam	880	1	!	1210	1	blank2r.bmp	1340	0	0	0
020118	12:04:20	1	8	5.0.10.0	d080_A21_A2_pleasB	dA21_valB_080	8	14	300	300	0	0	720	18	1	1	blank2r.bmp	0	1	+	0	6	C2r.bmp	500	1	blank2r.bmp	800	1	DHJF	800	1	blank2r.bmp	880	5	begabt	880	1	!	1210	1	blank2r.bmp	1340	0	0	0
020118	12:04:20	1	8	5.0.10.0	d080_A21_A1_unplB	dA21_valB_080	8	15	300	300	0	0	2266	23	1	1	blank2r.bmp	0	1	+	0	1	B1r.bmp	500	1	blank2r.bmp	800	1	NPLW	800	1	blank2r.bmp	880	3	ärger	880	1	!	1210	1	blank2r.bmp	1340	0	0	0
020118	12:04:20	1	8	5.0.10.0	d080_A21_A2_pleasB	dA21_valB_080	8	16	300	300	0	0	413	23	0	1	blank2r.bmp	0	1	+	0	4	B4r.bmp	500	1	blank2r.bmp	800	1	DHJF	800	1	blank2r.bmp	880	4	treu	880	1	!	1210	1	blank2r.bmp	1340	0	0	0
020118	12:04:20	1	8	5.0.10.0	d080_A21_A2_unplB	dA21_valB_080	8	17	300	300	0	0	110	18	1	1	blank2r.bmp	0	1	+	0	8	C4r.bmp	500	1	blank2r.bmp	800	1	DHJF	800	1	blank2r.bmp	880	2	geizig	880	1	!	1210	1	blank2r.bmp	1340	0	0	0
020118	12:04:20	1	8	5.0.10.0	d080_A21_A1_unplB	dA21_valB_080	8	18	300	300	0	0	816	23	1	1	blank2r.bmp	0	1	+	0	7	C3r.bmp	500	1	blank2r.bmp	800	1	NPLW	800	1	blank2r.bmp	880	2	geizig	880	1	!	1210	1	blank2r.bmp	1340	0	0	0
020118	12:04:20	1	8	5.0.10.0	d080_A21_A2_unplB	dA21_valB_080	8	19	300	300	0	0	295	18	1	1	blank2r.bmp	0	1	+	0	4	B4r.bmp	500	1	blank2r.bmp	800	1	DHJF	800	1	blank2r.bmp	880	1	grausam	880	1	!	1210	1	blank2r.bmp	1340	0	0	0
020118	12:04:20	1	8	5.0.10.0	d080_A21_A2_unplB	dA21_valB_080	8	20	300	300	0	0	318	18	1	1	blank2r.bmp	0	1	+	0	3	B3r.bmp	500	1	blank2r.bmp	800	1	DHJF	800	1	blank2r.bmp	880	3	ärger	880	1	!	1210	1	blank2r.bmp	1340	0	0	0
020118	12:04:20	1	8	5.0.10.0	d080_A21_A2_pleasB	dA21_valB_080	8	21	300	300	0	0	326	23	0	1	blank2r.bmp	0	1	+	0	5	C1r.bmp	500	1	blank2r.bmp	800	1	DHJF	800	1	blank2r.bmp	880	6	kreativ	880	1	!	1210	1	blank2r.bmp	1340	0	0	0
020118	12:04:20	1	8	5.0.10.0	d080_A21_A2_unplB	dA21_valB_080	8	22	300	300	0	0	78	23	0	1	blank2r.bmp	0	1	+	0	1	B1r.bmp	500	1	blank2r.bmp	800	1	DHJF	800	1	blank2r.bmp	880	6	traurig	880	1	!	1210	1	blank2r.bmp	1340	0	0	0
020118	12:04:20	1	8	5.0.10.0	d080_A21_A1_pleasB	dA21_valB_080	8	23	300	300	0	0	1505	23	1	1	blank2r.bmp	0	1	+	0	2	B2r.bmp	500	1	blank2r.bmp	800	1	NPLW	800	1	blank2r.bmp	880	4	treu	880	1	!	1210	1	blank2r.bmp	1340	0	0	0
020118	12:04:20	1	8	5.0.10.0	d080_A21_A2_pleasB	dA21_valB_080	8	24	300	300	0	0	471	18	1	1	blank2r.bmp	0	1	+	0	6	C2r.bmp	500	1	blank2r.bmp	800	1	DHJF	800	1	blank2r.bmp	880	2	mutig	880	1	!	1210	1	blank2r.bmp	1340	0	0	0
020118	12:04:20	1	8	5.0.10.0	d080_A21_A2_pleasB	dA21_valB_080	8	25	300	300	0	0	725	18	1	1	blank2r.bmp	0	1	+	0	8	C4r.bmp	500	1	blank2r.bmp	800	1	DHJF	800	1	blank2r.bmp	880	1	gut	880	1	!	1210	1	blank2r.bmp	1340	0	0	0
020118	12:04:20	1	8	5.0.10.0	d080_A21_A1_unplB	dA21_valB_080	8	26	300	300	0	0	1467	23	1	1	blank2r.bmp	0	1	+	0	4	B4r.bmp	500	1	blank2r.bmp	800	1	NPLW	800	1	blank2r.bmp	880	5	kummer	880	1	!	1210	1	blank2r.bmp	1340	0	0	0
020118	12:04:20	1	8	5.0.10.0	d080_A21_A1_unplB	dA21_valB_080	8	27	300	300	0	0	496	18	0	1	blank2r.bmp	0	1	+	0	3	B3r.bmp	500	1	blank2r.bmp	800	1	NPLW	800	1	blank2r.bmp	880	4	böse	880	1	!	1210	1	blank2r.bmp	1340	0	0	0
020118	12:04:20	1	8	5.0.10.0	d080_A21_A1_unplB	dA21_valB_080	8	28	300	300	0	0	769	23	1	1	blank2r.bmp	0	1	+	0	5	C1r.bmp	500	1	blank2r.bmp	800	1	NPLW	800	1	blank2r.bmp	880	2	geizig	880	1	!	1210	1	blank2r.bmp	1340	0	0	0
020118	12:04:20	1	8	5.0.10.0	d080_A21_A1_unplB	dA21_valB_080	8	29	300	300	0	0	150	18	0	1	blank2r.bmp	0	1	+	0	2	B2r.bmp	500	1	blank2r.bmp	800	1	NPLW	800	1	blank2r.bmp	880	4	böse	880	1	!	1210	1	blank2r.bmp	1340	0	0	0
020118	12:04:20	1	8	5.0.10.0	d080_A21_A2_unplB	dA21_valB_080	8	30	300	300	0	0	50	23	0	1	blank2r.bmp	0	1	+	0	6	C2r.bmp	500	1	blank2r.bmp	800	1	DHJF	800	1	blank2r.bmp	880	1	grausam	880	1	!	1210	1	blank2r.bmp	1340	0	0	0
020118	12:04:20	1	8	5.0.10.0	d080_A21_A1_pleasB	dA21_valB_080	8	31	300	300	0	0	254	23	1	1	blank2r.bmp	0	1	+	0	1	B1r.bmp	500	1	blank2r.bmp	800	1	NPLW	800	1	blank2r.bmp	880	6	kreativ	880	1	!	1210	1	blank2r.bmp	1340	0	0	0
020118	12:04:20	1	8	5.0.10.0	d080_A21_A2_unplB	dA21_valB_080	8	32	300	300	0	0	110	23	0	1	blank2r.bmp	0	1	+	0	7	C3r.bmp	500	1	blank2r.bmp	800	1	DHJF	800	1	blank2r.bmp	880	3	ärger	880	1	!	1210	1	blank2r.bmp	1340	0	0	0
020118	12:04:20	1	8	5.0.10.0	d080_A21_A1_pleasB	dA21_valB_080	8	33	300	300	0	0	1673	18	0	1	blank2r.bmp	0	1	+	0	3	B3r.bmp	500	1	blank2r.bmp	800	1	NPLW	800	1	blank2r.bmp	880	3	kuss	880	1	!	1210	1	blank2r.bmp	1340	0	0	0
020118	12:04:20	1	8	5.0.10.0	d080_A21_A2_unplB	dA21_valB_080	8	34	300	300	0	0	590	23	0	1	blank2r.bmp	0	1	+	0	5	C1r.bmp	500	1	blank2r.bmp	800	1	DHJF	800	1	blank2r.bmp	880	5	kummer	880	1	!	1210	1	blank2r.bmp	1340	0	0	0
020118	12:04:20	1	8	5.0.10.0	d080_A21_A1_unplB	dA21_valB_080	8	35	300	300	0	0	1204	23	1	1	blank2r.bmp	0	1	+	0	4	B4r.bmp	500	1	blank2r.bmp	800	1	NPLW	800	1	blank2r.bmp	880	6	traurig	880	1	!	1210	1	blank2r.bmp	1340	0	0	0
020118	12:04:20	1	8	5.0.10.0	d080_A21_A2_pleasB	dA21_valB_080	8	36	300	300	0	0	154	18	1	1	blank2r.bmp	0	1	+	0	1	B1r.bmp	500	1	blank2r.bmp	800	1	DHJF	800	1	blank2r.bmp	880	5	begabt	880	1	!	1210	1	blank2r.bmp	1340	0	0	0
020118	12:04:20	1	8	5.0.10.0	d080_A21_A1_pleasB	dA21_valB_080	8	37	300	300	0	0	407	18	0	1	blank2r.bmp	0	1	+	0	8	C4r.bmp	500	1	blank2r.bmp	800	1	NPLW	800	1	blank2r.bmp	880	2	mutig	880	1	!	1210	1	blank2r.bmp	1340	0	0	0
020118	12:04:20	1	8	5.0.10.0	d080_A21_A2_unplB	dA21_valB_080	8	38	300	300	0	0	458	23	0	1	blank2r.bmp	0	1	+	0	2	B2r.bmp	500	1	blank2r.bmp	800	1	DHJF	800	1	blank2r.bmp	880	4	böse	880	1	!	1210	1	blank2r.bmp	1340	0	0	0
020118	12:04:20	1	8	5.0.10.0	d080_A21_A2_unplB	dA21_valB_080	8	39	300	300	0	0	347	18	1	1	blank2r.bmp	0	1	+	0	6	C2r.bmp	500	1	blank2r.bmp	800	1	DHJF	800	1	blank2r.bmp	880	3	ärger	880	1	!	1210	1	blank2r.bmp	1340	0	0	0
020118	12:04:20	1	8	5.0.10.0	d080_A21_A2_pleasB	dA21_valB_080	8	40	300	300	0	0	161	23	0	1	blank2r.bmp	0	1	+	0	7	C3r.bmp	500	1	blank2r.bmp	800	1	DHJF	800	1	blank2r.bmp	880	4	treu	880	1	!	1210	1	blank2r.bmp	1340	0	0	0
020118	12:04:20	1	8	5.0.10.0	d080_A21_A1_unplB	dA21_valB_080	8	41	300	300	0	0	638	23	1	1	blank2r.bmp	0	1	+	0	2	B2r.bmp	500	1	blank2r.bmp	800	1	NPLW	800	1	blank2r.bmp	880	6	traurig	880	1	!	1210	1	blank2r.bmp	1340	0	0	0
020118	12:04:20	1	8	5.0.10.0	d080_A21_A1_unplB	dA21_valB_080	8	42	300	300	0	0	327	23	1	1	blank2r.bmp	0	1	+	0	5	C1r.bmp	500	1	blank2r.bmp	800	1	NPLW	800	1	blank2r.bmp	880	5	kummer	880	1	!	1210	1	blank2r.bmp	1340	0	0	0
020118	12:04:20	1	8	5.0.10.0	d080_A21_A2_unplB	dA21_valB_080	8	43	300	300	0	0	14	23	0	1	blank2r.bmp	0	1	+	0	1	B1r.bmp	500	1	blank2r.bmp	800	1	DHJF	800	1	blank2r.bmp	880	2	geizig	880	1	!	1210	1	blank2r.bmp	1340	0	0	0
020118	12:04:20	1	8	5.0.10.0	d080_A21_A1_pleasB	dA21_valB_080	8	44	300	300	0	0	143	23	1	1	blank2r.bmp	0	1	+	0	3	B3r.bmp	500	1	blank2r.bmp	800	1	NPLW	800	1	blank2r.bmp	880	6	kreativ	880	1	!	1210	1	blank2r.bmp	1340	0	0	0
020118	12:04:20	1	8	5.0.10.0	d080_A21_A1_unplB	dA21_valB_080	8	45	300	300	0	0	194	18	0	1	blank2r.bmp	0	1	+	0	8	C4r.bmp	500	1	blank2r.bmp	800	1	NPLW	800	1	blank2r.bmp	880	1	grausam	880	1	!	1210	1	blank2r.bmp	1340	0	0	0
020118	12:04:20	1	8	5.0.10.0	d080_A21_A1_pleasB	dA21_valB_080	8	46	300	300	0	0	59	18	0	1	blank2r.bmp	0	1	+	0	7	C3r.bmp	500	1	blank2r.bmp	800	1	NPLW	800	1	blank2r.bmp	880	1	gut	880	1	!	1210	1	blank2r.bmp	1340	0	0	0
020118	12:04:20	1	8	5.0.10.0	d080_A21_A1_pleasB	dA21_valB_080	8	47	300	300	0	0	617	23	1	1	blank2r.bmp	0	1	+	0	4	B4r.bmp	500	1	blank2r.bmp	800	1	NPLW	800	1	blank2r.bmp	880	3	kuss	880	1	!	1210	1	blank2r.bmp	1340	0	0	0
020118	12:04:20	1	8	5.0.10.0	d080_A21_A2_pleasB	dA21_valB_080	8	48	300	300	0	0	77	18	1	1	blank2r.bmp	0	1	+	0	6	C2r.bmp	500	1	blank2r.bmp	800	1	DHJF	800	1	blank2r.bmp	880	5	begabt	880	1	!	1210	1	blank2r.bmp	1340	0	0	0
020118	12:04:20	1	8	5.0.10.0	d080_A21_A1_pleasB	dA21_valB_080	9	1	300	300	0	0	87	23	1	1	blank2r.bmp	0	1	+	0	7	C3r.bmp	500	1	blank2r.bmp	800	1	NPLW	800	1	blank2r.bmp	880	1	gut	880	1	!	1210	1	blank2r.bmp	1340	0	0	0
020118	12:04:20	1	8	5.0.10.0	d080_A21_A2_unplB	dA21_valB_080	9	2	300	300	0	0	128	23	0	1	blank2r.bmp	0	1	+	0	3	B3r.bmp	500	1	blank2r.bmp	800	1	DHJF	800	1	blank2r.bmp	880	6	traurig	880	1	!	1210	1	blank2r.bmp	1340	0	0	0
020118	12:04:20	1	8	5.0.10.0	d080_A21_A1_unplB	dA21_valB_080	9	3	300	300	0	0	78	18	0	1	blank2r.bmp	0	1	+	0	5	C1r.bmp	500	1	blank2r.bmp	800	1	NPLW	800	1	blank2r.bmp	880	1	grausam	880	1	!	1210	1	blank2r.bmp	1340	0	0	0
020118	12:04:20	1	8	5.0.10.0	d080_A21_A2_unplB	dA21_valB_080	9	4	300	300	0	0	220	18	1	1	blank2r.bmp	0	1	+	0	6	C2r.bmp	500	1	blank2r.bmp	800	1	DHJF	800	1	blank2r.bmp	880	4	böse	880	1	!	1210	1	blank2r.bmp	1340	0	0	0
020118	12:04:20	1	8	5.0.10.0	d080_A21_A2_pleasB	dA21_valB_080	9	5	300	300	0	0	376	23	0	1	blank2r.bmp	0	1	+	0	8	C4r.bmp	500	1	blank2r.bmp	800	1	DHJF	800	1	blank2r.bmp	880	3	kuss	880	1	!	1210	1	blank2r.bmp	1340	0	0	0
020118	12:04:20	1	8	5.0.10.0	d080_A21_A2_pleasB	dA21_valB_080	9	6	300	300	0	0	334	23	0	1	blank2r.bmp	0	1	+	0	1	B1r.bmp	500	1	blank2r.bmp	800	1	DHJF	800	1	blank2r.bmp	880	5	begabt	880	1	!	1210	1	blank2r.bmp	1340	0	0	0
020118	12:04:20	1	8	5.0.10.0	d080_A21_A1_pleasB	dA21_valB_080	9	7	300	300	0	0	506	18	0	1	blank2r.bmp	0	1	+	0	2	B2r.bmp	500	1	blank2r.bmp	800	1	NPLW	800	1	blank2r.bmp	880	4	treu	880	1	!	1210	1	blank2r.bmp	1340	0	0	0
020118	12:04:20	1	8	5.0.10.0	d080_A21_A2_unplB	dA21_valB_080	9	8	300	300	0	0	1398	18	1	1	blank2r.bmp	0	1	+	0	4	B4r.bmp	500	1	blank2r.bmp	800	1	DHJF	800	1	blank2r.bmp	880	3	ärger	880	1	!	1210	1	blank2r.bmp	1340	0	0	0
020118	12:04:20	1	8	5.0.10.0	d080_A21_A1_unplB	dA21_valB_080	9	9	300	300	0	0	2460	23	1	1	blank2r.bmp	0	1	+	0	7	C3r.bmp	500	1	blank2r.bmp	800	1	NPLW	800	1	blank2r.bmp	880	5	kummer	880	1	!	1210	1	blank2r.bmp	1340	0	0	0
020118	12:04:20	1	8	5.0.10.0	d080_A21_A1_unplB	dA21_valB_080	9	10	300	300	0	0	593	18	0	1	blank2r.bmp	0	1	+	0	4	B4r.bmp	500	1	blank2r.bmp	800	1	NPLW	800	1	blank2r.bmp	880	2	geizig	880	1	!	1210	1	blank2r.bmp	1340	0	0	0
020118	12:04:20	1	8	5.0.10.0	d080_A21_A1_unplB	dA21_valB_080	9	11	300	300	0	0	1060	18	0	1	blank2r.bmp	0	1	+	0	2	B2r.bmp	500	1	blank2r.bmp	800	1	NPLW	800	1	blank2r.bmp	880	2	geizig	880	1	!	1210	1	blank2r.bmp	1340	0	0	0
020118	12:04:20	1	8	5.0.10.0	d080_A21_A1_unplB	dA21_valB_080	9	12	300	300	0	0	824	23	1	1	blank2r.bmp	0	1	+	0	8	C4r.bmp	500	1	blank2r.bmp	800	1	NPLW	800	1	blank2r.bmp	880	1	grausam	880	1	!	1210	1	blank2r.bmp	1340	0	0	0
020118	12:04:20	1	8	5.0.10.0	d080_A21_A2_pleasB	dA21_valB_080	9	13	300	300	0	0	256	23	0	1	blank2r.bmp	0	1	+	0	1	B1r.bmp	500	1	blank2r.bmp	800	1	DHJF	800	1	blank2r.bmp	880	2	mutig	880	1	!	1210	1	blank2r.bmp	1340	0	0	0
020118	12:04:20	1	8	5.0.10.0	d080_A21_A2_unplB	dA21_valB_080	9	14	300	300	0	0	651	18	1	1	blank2r.bmp	0	1	+	0	3	B3r.bmp	500	1	blank2r.bmp	800	1	DHJF	800	1	blank2r.bmp	880	5	kummer	880	1	!	1210	1	blank2r.bmp	1340	0	0	0
020118	12:04:20	1	8	5.0.10.0	d080_A21_A2_unplB	dA21_valB_080	9	15	300	300	0	0	1378	18	1	1	blank2r.bmp	0	1	+	0	6	C2r.bmp	500	1	blank2r.bmp	800	1	DHJF	800	1	blank2r.bmp	880	4	böse	880	1	!	1210	1	blank2r.bmp	1340	0	0	0
020118	12:04:20	1	8	5.0.10.0	d080_A21_A1_pleasB	dA21_valB_080	9	16	300	300	0	0	999	18	0	1	blank2r.bmp	0	1	+	0	5	C1r.bmp	500	1	blank2r.bmp	800	1	NPLW	800	1	blank2r.bmp	880	6	kreativ	880	1	!	1210	1	blank2r.bmp	1340	0	0	0
020118	12:04:20	1	8	5.0.10.0	d080_A21_A2_unplB	dA21_valB_080	9	17	300	300	0	0	330	23	0	1	blank2r.bmp	0	1	+	0	7	C3r.bmp	500	1	blank2r.bmp	800	1	DHJF	800	1	blank2r.bmp	880	6	traurig	880	1	!	1210	1	blank2r.bmp	1340	0	0	0
020118	12:04:20	1	8	5.0.10.0	d080_A21_A1_pleasB	dA21_valB_080	9	18	300	300	0	0	449	23	1	1	blank2r.bmp	0	1	+	0	8	C4r.bmp	500	1	blank2r.bmp	800	1	NPLW	800	1	blank2r.bmp	880	6	kreativ	880	1	!	1210	1	blank2r.bmp	1340	0	0	0
020118	12:04:20	1	8	5.0.10.0	d080_A21_A1_pleasB	dA21_valB_080	9	19	300	300	0	0	344	18	0	1	blank2r.bmp	0	1	+	0	1	B1r.bmp	500	1	blank2r.bmp	800	1	NPLW	800	1	blank2r.bmp	880	2	mutig	880	1	!	1210	1	blank2r.bmp	1340	0	0	0
020118	12:04:20	1	8	5.0.10.0	d080_A21_A2_pleasB	dA21_valB_080	9	20	300	300	0	0	306	23	0	1	blank2r.bmp	0	1	+	0	5	C1r.bmp	500	1	blank2r.bmp	800	1	DHJF	800	1	blank2r.bmp	880	5	begabt	880	1	!	1210	1	blank2r.bmp	1340	0	0	0
020118	12:04:20	1	8	5.0.10.0	d080_A21_A1_pleasB	dA21_valB_080	9	21	300	300	0	0	375	18	0	1	blank2r.bmp	0	1	+	0	4	B4r.bmp	500	1	blank2r.bmp	800	1	NPLW	800	1	blank2r.bmp	880	1	gut	880	1	!	1210	1	blank2r.bmp	1340	0	0	0
020118	12:04:20	1	8	5.0.10.0	d080_A21_A2_unplB	dA21_valB_080	9	22	300	300	0	0	210	23	0	1	blank2r.bmp	0	1	+	0	6	C2r.bmp	500	1	blank2r.bmp	800	1	DHJF	800	1	blank2r.bmp	880	3	ärger	880	1	!	1210	1	blank2r.bmp	1340	0	0	0
020118	12:04:20	1	8	5.0.10.0	d080_A21_A2_unplB	dA21_valB_080	9	23	300	300	0	0	2010	18	1	1	blank2r.bmp	0	1	+	0	3	B3r.bmp	500	1	blank2r.bmp	800	1	DHJF	800	1	blank2r.bmp	880	6	traurig	880	1	!	1210	1	blank2r.bmp	1340	0	0	0
020118	12:04:20	1	8	5.0.10.0	d080_A21_A2_pleasB	dA21_valB_080	9	24	300	300	0	0	2123	18	1	1	blank2r.bmp	0	1	+	0	2	B2r.bmp	500	1	blank2r.bmp	800	1	DHJF	800	1	blank2r.bmp	880	4	treu	880	1	!	1210	1	blank2r.bmp	1340	0	0	0
020118	12:04:20	1	8	5.0.10.0	d080_A21_A2_pleasB	dA21_valB_080	9	25	300	300	0	0	140	23	0	1	blank2r.bmp	0	1	+	0	4	B4r.bmp	500	1	blank2r.bmp	800	1	DHJF	800	1	blank2r.bmp	880	3	kuss	880	1	!	1210	1	blank2r.bmp	1340	0	0	0
020118	12:04:20	1	8	5.0.10.0	d080_A21_A1_pleasB	dA21_valB_080	9	26	300	300	0	0	4956	18	0	1	blank2r.bmp	0	1	+	0	2	B2r.bmp	500	1	blank2r.bmp	800	1	NPLW	800	1	blank2r.bmp	880	4	treu	880	1	!	1210	1	blank2r.bmp	1340	0	0	0
020118	12:04:20	1	8	5.0.10.0	d080_A21_A1_unplB	dA21_valB_080	9	27	300	300	0	0	2366	18	0	1	blank2r.bmp	0	1	+	0	8	C4r.bmp	500	1	blank2r.bmp	800	1	NPLW	800	1	blank2r.bmp	880	1	grausam	880	1	!	1210	1	blank2r.bmp	1340	0	0	0
020118	12:04:20	1	8	5.0.10.0	d080_A21_A1_pleasB	dA21_valB_080	9	28	300	300	0	0	66	18	0	1	blank2r.bmp	0	1	+	0	7	C3r.bmp	500	1	blank2r.bmp	800	1	NPLW	800	1	blank2r.bmp	880	6	kreativ	880	1	!	1210	1	blank2r.bmp	1340	0	0	0
020118	12:04:20	1	8	5.0.10.0	d080_A21_A2_unplB	dA21_valB_080	9	29	300	300	0	0	1371	23	0	1	blank2r.bmp	0	1	+	0	5	C1r.bmp	500	1	blank2r.bmp	800	1	DHJF	800	1	blank2r.bmp	880	4	böse	880	1	!	1210	1	blank2r.bmp	1340	0	0	0
020118	12:04:20	1	8	5.0.10.0	d080_A21_A2_pleasB	dA21_valB_080	9	30	300	300	0	0	545	23	0	1	blank2r.bmp	0	1	+	0	1	B1r.bmp	500	1	blank2r.bmp	800	1	DHJF	800	1	blank2r.bmp	880	1	gut	880	1	!	1210	1	blank2r.bmp	1340	0	0	0
020118	12:04:20	1	8	5.0.10.0	d080_A21_A2_unplB	dA21_valB_080	9	31	300	300	0	0	342	23	0	1	blank2r.bmp	0	1	+	0	3	B3r.bmp	500	1	blank2r.bmp	800	1	DHJF	800	1	blank2r.bmp	880	3	ärger	880	1	!	1210	1	blank2r.bmp	1340	0	0	0
020118	12:04:20	1	8	5.0.10.0	d080_A21_A1_pleasB	dA21_valB_080	9	32	300	300	0	0	170	18	0	1	blank2r.bmp	0	1	+	0	6	C2r.bmp	500	1	blank2r.bmp	800	1	NPLW	800	1	blank2r.bmp	880	5	begabt	880	1	!	1210	1	blank2r.bmp	1340	0	0	0
020118	12:04:20	1	8	5.0.10.0	d080_A21_A1_unplB	dA21_valB_080	9	33	300	300	0	0	299	18	0	1	blank2r.bmp	0	1	+	0	4	B4r.bmp	500	1	blank2r.bmp	800	1	NPLW	800	1	blank2r.bmp	880	5	kummer	880	1	!	1210	1	blank2r.bmp	1340	0	0	0
020118	12:04:20	1	8	5.0.10.0	d080_A21_A1_pleasB	dA21_valB_080	9	34	300	300	0	0	354	18	0	1	blank2r.bmp	0	1	+	0	7	C3r.bmp	500	1	blank2r.bmp	800	1	NPLW	800	1	blank2r.bmp	880	2	mutig	880	1	!	1210	1	blank2r.bmp	1340	0	0	0
020118	12:04:20	1	8	5.0.10.0	d080_A21_A2_unplB	dA21_valB_080	9	35	300	300	0	0	104	18	1	1	blank2r.bmp	0	1	+	0	2	B2r.bmp	500	1	blank2r.bmp	800	1	DHJF	800	1	blank2r.bmp	880	2	geizig	880	1	!	1210	1	blank2r.bmp	1340	0	0	0
020118	12:04:20	1	8	5.0.10.0	d080_A21_A1_unplB	dA21_valB_080	9	36	300	300	0	0	227	23	1	1	blank2r.bmp	0	1	+	0	8	C4r.bmp	500	1	blank2r.bmp	800	1	NPLW	800	1	blank2r.bmp	880	4	böse	880	1	!	1210	1	blank2r.bmp	1340	0	0	0
020118	12:04:20	1	8	5.0.10.0	d080_A21_A1_pleasB	dA21_valB_080	9	37	300	300	0	0	296	23	1	1	blank2r.bmp	0	1	+	0	6	C2r.bmp	500	1	blank2r.bmp	800	1	NPLW	800	1	blank2r.bmp	880	3	kuss	880	1	!	1210	1	blank2r.bmp	1340	0	0	0
020118	12:04:20	1	8	5.0.10.0	d080_A21_A1_unplB	dA21_valB_080	9	38	300	300	0	0	265	18	0	1	blank2r.bmp	0	1	+	0	3	B3r.bmp	500	1	blank2r.bmp	800	1	NPLW	800	1	blank2r.bmp	880	3	ärger	880	1	!	1210	1	blank2r.bmp	1340	0	0	0
020118	12:04:20	1	8	5.0.10.0	d080_A21_A2_pleasB	dA21_valB_080	9	39	300	300	0	0	404	18	1	1	blank2r.bmp	0	1	+	0	5	C1r.bmp	500	1	blank2r.bmp	800	1	DHJF	800	1	blank2r.bmp	880	1	gut	880	1	!	1210	1	blank2r.bmp	1340	0	0	0
020118	12:04:20	1	8	5.0.10.0	d080_A21_A2_pleasB	dA21_valB_080	9	40	300	300	0	0	475	18	1	1	blank2r.bmp	0	1	+	0	1	B1r.bmp	500	1	blank2r.bmp	800	1	DHJF	800	1	blank2r.bmp	880	4	treu	880	1	!	1210	1	blank2r.bmp	1340	0	0	0
020118	12:04:20	1	8	5.0.10.0	d080_A21_A1_unplB	dA21_valB_080	9	41	300	300	0	0	236	23	1	1	blank2r.bmp	0	1	+	0	8	C4r.bmp	500	1	blank2r.bmp	800	1	NPLW	800	1	blank2r.bmp	880	6	traurig	880	1	!	1210	1	blank2r.bmp	1340	0	0	0
020118	12:04:20	1	8	5.0.10.0	d080_A21_A1_unplB	dA21_valB_080	9	42	300	300	0	0	432	23	1	1	blank2r.bmp	0	1	+	0	4	B4r.bmp	500	1	blank2r.bmp	800	1	NPLW	800	1	blank2r.bmp	880	2	geizig	880	1	!	1210	1	blank2r.bmp	1340	0	0	0
020118	12:04:20	1	8	5.0.10.0	d080_A21_A2_pleasB	dA21_valB_080	9	43	300	300	0	0	1307	23	0	1	blank2r.bmp	0	1	+	0	2	B2r.bmp	500	1	blank2r.bmp	800	1	DHJF	800	1	blank2r.bmp	880	2	mutig	880	1	!	1210	1	blank2r.bmp	1340	0	0	0
020118	12:04:20	1	8	5.0.10.0	d080_A21_A2_unplB	dA21_valB_080	9	44	300	300	0	0	456	18	1	1	blank2r.bmp	0	1	+	0	7	C3r.bmp	500	1	blank2r.bmp	800	1	DHJF	800	1	blank2r.bmp	880	1	grausam	880	1	!	1210	1	blank2r.bmp	1340	0	0	0
020118	12:04:20	1	8	5.0.10.0	d080_A21_A1_pleasB	dA21_valB_080	9	45	300	300	0	0	716	23	1	1	blank2r.bmp	0	1	+	0	1	B1r.bmp	500	1	blank2r.bmp	800	1	NPLW	800	1	blank2r.bmp	880	3	kuss	880	1	!	1210	1	blank2r.bmp	1340	0	0	0
020118	12:04:20	1	8	5.0.10.0	d080_A21_A2_pleasB	dA21_valB_080	9	46	300	300	0	0	497	23	0	1	blank2r.bmp	0	1	+	0	6	C2r.bmp	500	1	blank2r.bmp	800	1	DHJF	800	1	blank2r.bmp	880	6	kreativ	880	1	!	1210	1	blank2r.bmp	1340	0	0	0
020118	12:04:20	1	8	5.0.10.0	d080_A21_A2_pleasB	dA21_valB_080	9	47	300	300	0	0	427	18	1	1	blank2r.bmp	0	1	+	0	3	B3r.bmp	500	1	blank2r.bmp	800	1	DHJF	800	1	blank2r.bmp	880	5	begabt	880	1	!	1210	1	blank2r.bmp	1340	0	0	0
020118	12:04:20	1	8	5.0.10.0	d080_A21_A1_unplB	dA21_valB_080	9	48	300	300	0	0	163	23	1	1	blank2r.bmp	0	1	+	0	5	C1r.bmp	500	1	blank2r.bmp	800	1	NPLW	800	1	blank2r.bmp	880	5	kummer	880	1	!	1210	1	blank2r.bmp	1340	0	0	0
020118	12:04:20	1	8	5.0.10.0	endtrial	endblock	10	1	300	300	0	0	64468	21	0	0	0	0	0	0	0	0	0	0	0	0	0	0	0	0	0	0	0	0	0	0	0	0	0	0	0	0	0	0	0
