date	time	group	subject	build	blocknum	trialnum	blockcode	trialcode	pretrialpause	posttrialpause	trialduration	trialtimeout	response	correct	latency	stimulusnumber1	stimulusitem1	stimulusonset1	stimulusnumber2	stimulusitem2	stimulusonset2	stimulusnumber3	stimulusitem3	stimulusonset3	stimulusnumber4	stimulusitem4	stimulusonset4	stimulusnumber5	stimulusitem5	stimulusonset5	stimulusnumber6	stimulusitem6	stimulusonset6	stimulusnumber7	stimulusitem7	stimulusonset7	stimulusnumber8	stimulusitem8	stimulusonset8	stimulusnumber9	stimulusitem9	stimulusonset9	stimulusnumber10	stimulusitem10	stimulusonset10
012218	15:03:03	1	1	5.0.10.0	1	1	dA12_valB_pract1	dL_A12_A2_unplB	300	300	0	0	18	0	1803	1	blank2r.bmp	0	1	+	0	3	B3r.bmp	500	1	blank2r.bmp	700	1	DHJF	700	2	B2r.bmp	830	1	blank2r.bmp	870	4	bruise	870	1	!	1200	1	blank2r.bmp	1330
012218	15:03:03	1	1	5.0.10.0	1	2	dA12_valB_pract1	dL_A12_A1_pleasB	300	300	0	0	18	1	423	1	blank2r.bmp	0	1	+	0	6	C2r.bmp	500	1	blank2r.bmp	700	1	NPLW	700	7	C3r.bmp	830	1	blank2r.bmp	870	3	true	870	1	!	1200	1	blank2r.bmp	1330
012218	15:03:03	1	1	5.0.10.0	1	3	dA12_valB_pract1	dL_A12_A1_unplB	300	300	0	0	18	1	172	1	blank2r.bmp	0	1	+	0	7	C3r.bmp	500	1	blank2r.bmp	717	1	NPLW	717	3	B3r.bmp	830	1	blank2r.bmp	870	1	miser	870	1	!	1200	1	blank2r.bmp	1330
012218	15:03:03	1	1	5.0.10.0	1	4	dA12_valB_pract1	dL_A12_A1_pleasB	300	300	0	0	18	1	3794	1	blank2r.bmp	0	1	+	0	8	C4r.bmp	500	1	blank2r.bmp	700	1	NPLW	700	5	C1r.bmp	830	1	blank2r.bmp	870	2	trust	870	1	!	1200	1	blank2r.bmp	1330
012218	15:03:03	1	1	5.0.10.0	1	5	dA12_valB_pract1	dL_A12_A2_unplB	300	300	0	0	23	1	318	1	blank2r.bmp	0	1	+	0	5	C1r.bmp	500	1	blank2r.bmp	700	1	DHJF	700	4	B4r.bmp	830	1	blank2r.bmp	870	5	crime	870	1	!	1200	1	blank2r.bmp	1330
012218	15:03:03	1	1	5.0.10.0	1	6	dA12_valB_pract1	dL_A12_A2_pleasB	300	300	0	0	23	1	2856	1	blank2r.bmp	0	1	+	0	4	B4r.bmp	500	1	blank2r.bmp	700	1	DHJF	700	6	C2r.bmp	830	1	blank2r.bmp	870	5	best	870	1	!	1200	1	blank2r.bmp	1330
012218	15:03:03	1	1	5.0.10.0	1	7	dA12_valB_pract1	dL_A12_A2_unplB	300	300	0	0	18	0	926	1	blank2r.bmp	4	1	+	4	1	B1r.bmp	500	1	blank2r.bmp	700	1	DHJF	700	8	C4r.bmp	830	1	blank2r.bmp	880	3	bitter	880	1	!	1200	1	blank2r.bmp	1330
012218	15:03:03	1	1	5.0.10.0	1	8	dA12_valB_pract1	dL_A12_A1_unplB	300	300	0	0	18	1	416	1	blank2r.bmp	0	1	+	0	2	B2r.bmp	500	1	blank2r.bmp	718	1	NPLW	718	1	B1r.bmp	830	1	blank2r.bmp	870	6	victim	870	1	!	1200	1	blank2r.bmp	1330
012218	15:03:03	1	1	5.0.10.0	1	9	dA12_valB_pract1	dL_A12_A1_unplB	300	300	0	0	18	1	382	1	blank2r.bmp	0	1	+	0	6	C2r.bmp	500	1	blank2r.bmp	713	1	NPLW	713	8	C4r.bmp	861	1	blank2r.bmp	870	2	sick	870	1	!	1200	1	blank2r.bmp	1330
012218	15:03:03	1	1	5.0.10.0	1	10	dA12_valB_pract1	dL_A12_A1_pleasB	300	300	0	0	18	1	405	1	blank2r.bmp	1	1	+	1	5	C1r.bmp	500	1	blank2r.bmp	700	1	NPLW	700	2	B2r.bmp	830	1	blank2r.bmp	870	4	cute	870	1	!	1200	1	blank2r.bmp	1330
012218	15:03:03	1	1	5.0.10.0	1	11	dA12_valB_pract1	dL_A12_A2_pleasB	300	300	0	0	23	1	208	1	blank2r.bmp	1	1	+	1	3	B3r.bmp	500	1	blank2r.bmp	700	1	DHJF	700	1	B1r.bmp	830	1	blank2r.bmp	870	6	better	870	1	!	1200	1	blank2r.bmp	1330
012218	15:03:03	1	1	5.0.10.0	1	12	dA12_valB_pract1	dL_A12_A2_pleasB	300	300	0	0	18	0	377	1	blank2r.bmp	0	1	+	0	4	B4r.bmp	500	1	blank2r.bmp	700	1	DHJF	700	3	B3r.bmp	830	1	blank2r.bmp	870	1	kiss	870	1	!	1200	1	blank2r.bmp	1331
012218	15:03:03	1	1	5.0.10.0	2	1	dA12_valB_pract2	dM_A12_A2_unplB	300	300	0	0	23	1	99	1	blank2r.bmp	0	1	+	0	2	B2r.bmp	500	1	blank2r.bmp	730	1	DHJF	730	4	B4r.bmp	830	1	blank2r.bmp	870	1	miser	870	1	!	1200	1	blank2r.bmp	1330
012218	15:03:03	1	1	5.0.10.0	2	2	dA12_valB_pract2	dM_A12_A1_unplB	300	300	0	0	18	1	30	1	blank2r.bmp	0	1	+	0	8	C4r.bmp	500	1	blank2r.bmp	730	1	NPLW	730	6	C2r.bmp	830	1	blank2r.bmp	870	3	bitter	870	1	!	1200	1	blank2r.bmp	1330
012218	15:03:03	1	1	5.0.10.0	2	3	dA12_valB_pract2	dM_A12_A2_pleasB	300	300	0	0	23	1	15	1	blank2r.bmp	0	1	+	0	7	C3r.bmp	500	1	blank2r.bmp	730	1	DHJF	730	5	C1r.bmp	830	1	blank2r.bmp	870	4	cute	870	1	!	1200	1	blank2r.bmp	1330
012218	15:03:03	1	1	5.0.10.0	2	4	dA12_valB_pract2	dM_A12_A2_unplB	300	300	0	0	23	1	187	1	blank2r.bmp	0	1	+	0	1	B1r.bmp	500	1	blank2r.bmp	730	1	DHJF	730	7	C3r.bmp	830	1	blank2r.bmp	870	2	sick	870	1	!	1200	1	blank2r.bmp	1330
012218	15:03:03	1	1	5.0.10.0	2	5	dA12_valB_pract2	dM_A12_A1_unplB	300	300	0	0	18	1	77	1	blank2r.bmp	0	1	+	0	2	B2r.bmp	500	1	blank2r.bmp	730	1	NPLW	730	4	B4r.bmp	830	1	blank2r.bmp	870	6	victim	870	1	!	1200	1	blank2r.bmp	1330
012218	15:03:03	1	1	5.0.10.0	2	6	dA12_valB_pract2	dM_A12_A2_pleasB	300	300	0	0	23	1	111	1	blank2r.bmp	0	1	+	0	8	C4r.bmp	500	1	blank2r.bmp	730	1	DHJF	730	1	B1r.bmp	830	1	blank2r.bmp	870	6	better	870	1	!	1200	1	blank2r.bmp	1330
012218	15:03:03	1	1	5.0.10.0	2	7	dA12_valB_pract2	dM_A12_A1_pleasB	300	300	0	0	18	1	154	1	blank2r.bmp	0	1	+	0	7	C3r.bmp	500	1	blank2r.bmp	730	1	NPLW	730	2	B2r.bmp	830	1	blank2r.bmp	870	3	true	870	1	!	1200	1	blank2r.bmp	1330
012218	15:03:03	1	1	5.0.10.0	2	8	dA12_valB_pract2	dM_A12_A2_pleasB	300	300	0	0	23	1	239	1	blank2r.bmp	0	1	+	0	6	C2r.bmp	500	1	blank2r.bmp	730	1	DHJF	730	7	C3r.bmp	830	1	blank2r.bmp	870	2	trust	870	1	!	1200	1	blank2r.bmp	1330
012218	15:03:03	1	1	5.0.10.0	2	9	dA12_valB_pract2	dM_A12_A1_pleasB	300	300	0	0	18	1	148	1	blank2r.bmp	0	1	+	0	4	B4r.bmp	500	1	blank2r.bmp	730	1	NPLW	730	3	B3r.bmp	830	1	blank2r.bmp	870	5	best	870	1	!	1200	1	blank2r.bmp	1330
012218	15:03:03	1	1	5.0.10.0	2	10	dA12_valB_pract2	dM_A12_A2_unplB	300	300	0	0	23	1	45	1	blank2r.bmp	0	1	+	0	3	B3r.bmp	500	1	blank2r.bmp	730	1	DHJF	730	6	C2r.bmp	830	1	blank2r.bmp	870	5	crime	870	1	!	1200	1	blank2r.bmp	1330
012218	15:03:03	1	1	5.0.10.0	2	11	dA12_valB_pract2	dM_A12_A1_unplB	300	300	0	0	18	1	147	1	blank2r.bmp	0	1	+	0	5	C1r.bmp	500	1	blank2r.bmp	730	1	NPLW	730	8	C4r.bmp	830	1	blank2r.bmp	870	4	bruise	870	1	!	1200	1	blank2r.bmp	1330
012218	15:03:03	1	1	5.0.10.0	2	12	dA12_valB_pract2	dM_A12_A1_pleasB	300	300	0	0	23	0	116	1	blank2r.bmp	0	1	+	0	1	B1r.bmp	500	1	blank2r.bmp	730	1	NPLW	730	5	C1r.bmp	830	1	blank2r.bmp	870	1	kiss	870	1	!	1200	1	blank2r.bmp	1330
012218	15:03:03	1	1	5.0.10.0	3	1	dA12_valB_070	d070_A12_A1_pleasB	300	300	0	0	18	1	205	1	blank2r.bmp	0	1	+	0	2	B2r.bmp	500	1	blank2r.bmp	800	1	NPLW	800	1	blank2r.bmp	870	4	cute	870	1	!	1234	1	blank2r.bmp	1368	0	0	0
012218	15:03:03	1	1	5.0.10.0	3	2	dA12_valB_070	d070_A12_A1_pleasB	300	300	0	0	18	1	1869	1	blank2r.bmp	0	1	+	0	5	C1r.bmp	639	1	blank2r.bmp	1976	1	NPLW	1976	1	blank2r.bmp	1977	1	kiss	1977	1	!	1977	1	blank2r.bmp	1980	0	0	0
012218	15:03:03	1	1	5.0.10.0	3	3	dA12_valB_070	d070_A12_A1_unplB	300	300	0	0	23	0	12	1	blank2r.bmp	9	1	+	9	7	C3r.bmp	500	1	blank2r.bmp	800	1	NPLW	800	1	blank2r.bmp	870	2	sick	870	1	!	1218	1	blank2r.bmp	1330	0	0	0
012218	15:03:03	1	1	5.0.10.0	3	4	dA12_valB_070	d070_A12_A2_pleasB	300	300	0	0	23	1	9	1	blank2r.bmp	0	1	+	0	1	B1r.bmp	500	1	blank2r.bmp	800	1	DHJF	800	1	blank2r.bmp	870	5	best	870	1	!	1205	1	blank2r.bmp	1351	0	0	0
012218	15:03:03	1	1	5.0.10.0	3	5	dA12_valB_070	d070_A12_A1_pleasB	300	300	0	0	18	1	18	1	blank2r.bmp	1	1	+	1	8	C4r.bmp	500	1	blank2r.bmp	800	1	NPLW	800	1	blank2r.bmp	887	6	better	887	1	!	1200	1	blank2r.bmp	1330	0	0	0
012218	15:03:03	1	1	5.0.10.0	3	6	dA12_valB_070	d070_A12_A2_unplB	300	300	0	0	23	1	51	1	blank2r.bmp	0	1	+	0	6	C2r.bmp	500	1	blank2r.bmp	800	1	DHJF	800	1	blank2r.bmp	870	3	bitter	870	1	!	1258	1	blank2r.bmp	1330	0	0	0
012218	15:03:03	1	1	5.0.10.0	3	7	dA12_valB_070	d070_A12_A1_pleasB	300	300	0	0	18	1	355	1	blank2r.bmp	0	1	+	0	4	B4r.bmp	545	1	blank2r.bmp	800	1	NPLW	800	1	blank2r.bmp	870	2	trust	870	1	!	1214	1	blank2r.bmp	1330	0	0	0
012218	15:03:03	1	1	5.0.10.0	3	8	dA12_valB_070	d070_A12_A2_pleasB	300	300	0	0	18	0	101	1	blank2r.bmp	0	1	+	0	3	B3r.bmp	500	1	blank2r.bmp	800	1	DHJF	800	1	blank2r.bmp	870	3	true	870	1	!	1200	1	blank2r.bmp	1330	0	0	0
012218	15:03:03	1	1	5.0.10.0	3	9	dA12_valB_070	d070_A12_A2_unplB	300	300	0	0	18	0	74	1	blank2r.bmp	0	1	+	0	4	B4r.bmp	500	1	blank2r.bmp	800	1	DHJF	800	1	blank2r.bmp	870	4	bruise	870	1	!	1200	1	blank2r.bmp	1330	0	0	0
012218	15:03:03	1	1	5.0.10.0	3	10	dA12_valB_070	d070_A12_A2_pleasB	300	300	0	0	18	0	77	1	blank2r.bmp	0	1	+	0	5	C1r.bmp	500	1	blank2r.bmp	800	1	DHJF	800	1	blank2r.bmp	870	4	cute	870	1	!	1200	1	blank2r.bmp	1330	0	0	0
012218	15:03:03	1	1	5.0.10.0	3	11	dA12_valB_070	d070_A12_A2_unplB	300	300	0	0	23	1	3912	1	blank2r.bmp	0	1	+	0	3	B3r.bmp	500	1	blank2r.bmp	800	1	DHJF	800	1	blank2r.bmp	870	1	miser	870	1	!	1200	1	blank2r.bmp	1330	0	0	0
012218	15:03:03	1	1	5.0.10.0	3	12	dA12_valB_070	d070_A12_A2_pleasB	300	300	0	0	18	0	742	1	blank2r.bmp	0	1	+	0	1	B1r.bmp	500	1	blank2r.bmp	800	1	DHJF	800	1	blank2r.bmp	870	2	trust	870	1	!	1200	1	blank2r.bmp	1330	0	0	0
012218	15:03:03	1	1	5.0.10.0	3	13	dA12_valB_070	d070_A12_A1_pleasB	300	300	0	0	18	1	591	1	blank2r.bmp	0	1	+	0	8	C4r.bmp	500	1	blank2r.bmp	800	1	NPLW	800	1	blank2r.bmp	870	6	better	870	1	!	1200	1	blank2r.bmp	1330	0	0	0
012218	15:03:03	1	1	5.0.10.0	3	14	dA12_valB_070	d070_A12_A1_unplB	300	300	0	0	23	0	66	1	blank2r.bmp	0	1	+	0	6	C2r.bmp	500	1	blank2r.bmp	800	1	NPLW	800	1	blank2r.bmp	870	6	victim	870	1	!	1200	1	blank2r.bmp	1330	0	0	0
012218	15:03:03	1	1	5.0.10.0	3	15	dA12_valB_070	d070_A12_A1_unplB	300	300	0	0	23	0	471	1	blank2r.bmp	0	1	+	0	2	B2r.bmp	500	1	blank2r.bmp	800	1	NPLW	800	1	blank2r.bmp	870	5	crime	870	1	!	1200	1	blank2r.bmp	1330	0	0	0
012218	15:03:03	1	1	5.0.10.0	3	16	dA12_valB_070	d070_A12_A1_unplB	300	300	0	0	18	1	105	1	blank2r.bmp	0	1	+	0	7	C3r.bmp	500	1	blank2r.bmp	800	1	NPLW	800	1	blank2r.bmp	870	6	victim	870	1	!	1200	1	blank2r.bmp	1330	0	0	0
012218	15:03:03	1	1	5.0.10.0	3	17	dA12_valB_070	d070_A12_A1_pleasB	300	300	0	0	18	1	2855	1	blank2r.bmp	83	1	+	83	3	B3r.bmp	500	1	blank2r.bmp	800	1	NPLW	800	1	blank2r.bmp	870	5	best	870	1	!	1200	1	blank2r.bmp	1330	0	0	0
012218	15:03:03	1	1	5.0.10.0	3	18	dA12_valB_070	d070_A12_A2_unplB	300	300	0	0	18	0	263	1	blank2r.bmp	5	1	+	5	4	B4r.bmp	500	1	blank2r.bmp	800	1	DHJF	800	1	blank2r.bmp	870	5	crime	870	1	!	1200	1	blank2r.bmp	1330	0	0	0
012218	15:03:03	1	1	5.0.10.0	3	19	dA12_valB_070	d070_A12_A1_unplB	300	300	0	0	18	1	237	1	blank2r.bmp	0	1	+	0	7	C3r.bmp	500	1	blank2r.bmp	800	1	NPLW	800	1	blank2r.bmp	870	3	bitter	870	1	!	1200	1	blank2r.bmp	1335	0	0	0
012218	15:03:03	1	1	5.0.10.0	3	20	dA12_valB_070	d070_A12_A2_pleasB	300	300	0	0	18	0	427	1	blank2r.bmp	0	1	+	0	2	B2r.bmp	500	1	blank2r.bmp	800	1	DHJF	800	1	blank2r.bmp	870	1	kiss	870	1	!	1200	1	blank2r.bmp	1330	0	0	0
012218	15:03:03	1	1	5.0.10.0	3	21	dA12_valB_070	d070_A12_A2_pleasB	300	300	0	0	18	0	215	1	blank2r.bmp	0	1	+	0	6	C2r.bmp	500	1	blank2r.bmp	800	1	DHJF	800	1	blank2r.bmp	870	3	true	870	1	!	1200	1	blank2r.bmp	1331	0	0	0
012218	15:03:03	1	1	5.0.10.0	3	22	dA12_valB_070	d070_A12_A1_unplB	300	300	0	0	18	1	137	1	blank2r.bmp	0	1	+	0	5	C1r.bmp	501	1	blank2r.bmp	800	1	NPLW	800	1	blank2r.bmp	870	4	bruise	870	1	!	1203	1	blank2r.bmp	1330	0	0	0
012218	15:03:03	1	1	5.0.10.0	3	23	dA12_valB_070	d070_A12_A1_unplB	300	300	0	0	23	0	173	1	blank2r.bmp	4	1	+	4	1	B1r.bmp	500	1	blank2r.bmp	800	1	NPLW	800	1	blank2r.bmp	870	1	miser	870	1	!	1200	1	blank2r.bmp	1330	0	0	0
012218	15:03:03	1	1	5.0.10.0	3	24	dA12_valB_070	d070_A12_A2_pleasB	300	300	0	0	18	0	29	1	blank2r.bmp	0	1	+	0	8	C4r.bmp	500	1	blank2r.bmp	800	1	DHJF	800	1	blank2r.bmp	870	1	kiss	870	1	!	1200	1	blank2r.bmp	1330	0	0	0
012218	15:03:03	1	1	5.0.10.0	3	25	dA12_valB_070	d070_A12_A1_unplB	300	300	0	0	18	1	49	1	blank2r.bmp	0	1	+	0	2	B2r.bmp	500	1	blank2r.bmp	800	1	NPLW	800	1	blank2r.bmp	870	2	sick	870	1	!	1200	1	blank2r.bmp	1330	0	0	0
012218	15:03:03	1	1	5.0.10.0	3	26	dA12_valB_070	d070_A12_A2_pleasB	300	300	0	0	18	0	70	1	blank2r.bmp	0	1	+	0	3	B3r.bmp	500	1	blank2r.bmp	800	1	DHJF	800	1	blank2r.bmp	870	4	cute	870	1	!	1200	1	blank2r.bmp	1330	0	0	0
012218	15:03:03	1	1	5.0.10.0	3	27	dA12_valB_070	d070_A12_A1_pleasB	300	300	0	0	18	1	78	1	blank2r.bmp	0	1	+	0	1	B1r.bmp	500	1	blank2r.bmp	800	1	NPLW	800	1	blank2r.bmp	870	6	better	870	1	!	1200	1	blank2r.bmp	1330	0	0	0
012218	15:03:03	1	1	5.0.10.0	3	28	dA12_valB_070	d070_A12_A2_unplB	300	300	0	0	23	1	35	1	blank2r.bmp	0	1	+	0	8	C4r.bmp	500	1	blank2r.bmp	800	1	DHJF	800	1	blank2r.bmp	870	4	bruise	870	1	!	1200	1	blank2r.bmp	1330	0	0	0
012218	15:03:03	1	1	5.0.10.0	3	29	dA12_valB_070	d070_A12_A1_pleasB	300	300	0	0	18	1	2099	1	blank2r.bmp	0	1	+	0	5	C1r.bmp	500	1	blank2r.bmp	800	1	NPLW	800	1	blank2r.bmp	870	3	true	870	1	!	1200	1	blank2r.bmp	1330	0	0	0
012218	15:03:03	1	1	5.0.10.0	3	30	dA12_valB_070	d070_A12_A1_unplB	300	300	0	0	18	1	687	1	blank2r.bmp	0	1	+	0	6	C2r.bmp	500	1	blank2r.bmp	800	1	NPLW	800	1	blank2r.bmp	870	6	victim	870	1	!	1200	1	blank2r.bmp	1330	0	0	0
012218	15:03:03	1	1	5.0.10.0	3	31	dA12_valB_070	d070_A12_A2_unplB	300	300	0	0	18	0	555	1	blank2r.bmp	0	1	+	0	4	B4r.bmp	500	1	blank2r.bmp	800	1	DHJF	800	1	blank2r.bmp	870	3	bitter	870	1	!	1200	1	blank2r.bmp	1330	0	0	0
012218	15:03:03	1	1	5.0.10.0	3	32	dA12_valB_070	d070_A12_A1_pleasB	300	300	0	0	23	0	3479	1	blank2r.bmp	0	1	+	0	7	C3r.bmp	500	1	blank2r.bmp	800	1	NPLW	800	1	blank2r.bmp	870	5	best	870	1	!	1200	1	blank2r.bmp	1330	0	0	0
012218	15:03:03	1	1	5.0.10.0	3	33	dA12_valB_070	d070_A12_A1_pleasB	300	300	0	0	23	0	312	1	blank2r.bmp	0	1	+	0	7	C3r.bmp	500	1	blank2r.bmp	800	1	NPLW	800	1	blank2r.bmp	870	2	trust	870	1	!	1200	1	blank2r.bmp	1330	0	0	0
012218	15:03:03	1	1	5.0.10.0	3	34	dA12_valB_070	d070_A12_A2_pleasB	300	300	0	0	18	0	170	1	blank2r.bmp	0	1	+	0	4	B4r.bmp	500	1	blank2r.bmp	800	1	DHJF	800	1	blank2r.bmp	870	4	cute	870	1	!	1200	1	blank2r.bmp	1330	0	0	0
012218	15:03:03	1	1	5.0.10.0	3	35	dA12_valB_070	d070_A12_A1_unplB	300	300	0	0	23	0	230	1	blank2r.bmp	0	1	+	0	2	B2r.bmp	500	1	blank2r.bmp	800	1	NPLW	800	1	blank2r.bmp	870	1	miser	870	1	!	1200	1	blank2r.bmp	1330	0	0	0
012218	15:03:03	1	1	5.0.10.0	3	36	dA12_valB_070	d070_A12_A2_unplB	300	300	0	0	23	1	24	1	blank2r.bmp	0	1	+	0	3	B3r.bmp	500	1	blank2r.bmp	800	1	DHJF	800	1	blank2r.bmp	870	5	crime	870	1	!	1200	1	blank2r.bmp	1330	0	0	0
012218	15:03:03	1	1	5.0.10.0	3	37	dA12_valB_070	d070_A12_A2_unplB	300	300	0	0	18	0	44	1	blank2r.bmp	0	1	+	0	8	C4r.bmp	500	1	blank2r.bmp	800	1	DHJF	800	1	blank2r.bmp	870	2	sick	870	1	!	1200	1	blank2r.bmp	1330	0	0	0
012218	15:03:03	1	1	5.0.10.0	3	38	dA12_valB_070	d070_A12_A2_unplB	300	300	0	0	18	0	112	1	blank2r.bmp	0	1	+	0	5	C1r.bmp	500	1	blank2r.bmp	800	1	DHJF	800	1	blank2r.bmp	870	6	victim	870	1	!	1200	1	blank2r.bmp	1330	0	0	0
012218	15:03:03	1	1	5.0.10.0	3	39	dA12_valB_070	d070_A12_A2_pleasB	300	300	0	0	23	1	47	1	blank2r.bmp	0	1	+	0	1	B1r.bmp	500	1	blank2r.bmp	800	1	DHJF	800	1	blank2r.bmp	870	5	best	870	1	!	1200	1	blank2r.bmp	1330	0	0	0
012218	15:03:03	1	1	5.0.10.0	3	40	dA12_valB_070	d070_A12_A1_unplB	300	300	0	0	18	1	61	1	blank2r.bmp	0	1	+	0	6	C2r.bmp	500	1	blank2r.bmp	800	1	NPLW	800	1	blank2r.bmp	870	3	bitter	870	1	!	1200	1	blank2r.bmp	1330	0	0	0
012218	15:03:03	1	1	5.0.10.0	3	41	dA12_valB_070	d070_A12_A2_unplB	300	300	0	0	23	1	1881	1	blank2r.bmp	0	1	+	0	3	B3r.bmp	500	1	blank2r.bmp	800	1	DHJF	800	1	blank2r.bmp	870	2	sick	870	1	!	1200	1	blank2r.bmp	1330	0	0	0
012218	15:03:03	1	1	5.0.10.0	3	42	dA12_valB_070	d070_A12_A1_unplB	300	300	0	0	18	1	336	1	blank2r.bmp	0	1	+	0	1	B1r.bmp	500	1	blank2r.bmp	800	1	NPLW	800	1	blank2r.bmp	870	1	miser	870	1	!	1200	1	blank2r.bmp	1330	0	0	0
012218	15:03:03	1	1	5.0.10.0	3	43	dA12_valB_070	d070_A12_A2_pleasB	300	300	0	0	18	0	486	1	blank2r.bmp	0	1	+	0	4	B4r.bmp	500	1	blank2r.bmp	800	1	DHJF	800	1	blank2r.bmp	870	1	kiss	870	1	!	1200	1	blank2r.bmp	1330	0	0	0
012218	15:03:03	1	1	5.0.10.0	3	44	dA12_valB_070	d070_A12_A2_unplB	300	300	0	0	23	1	393	1	blank2r.bmp	0	1	+	0	6	C2r.bmp	500	1	blank2r.bmp	800	1	DHJF	800	1	blank2r.bmp	870	4	bruise	870	1	!	1200	1	blank2r.bmp	1330	0	0	0
012218	15:03:03	1	1	5.0.10.0	3	45	dA12_valB_070	d070_A12_A2_unplB	300	300	0	0	23	1	586	1	blank2r.bmp	0	1	+	0	8	C4r.bmp	500	1	blank2r.bmp	800	1	DHJF	800	1	blank2r.bmp	870	5	crime	870	1	!	1200	1	blank2r.bmp	1330	0	0	0
012218	15:03:03	1	1	5.0.10.0	3	46	dA12_valB_070	d070_A12_A2_pleasB	300	300	0	0	23	1	698	1	blank2r.bmp	0	1	+	0	2	B2r.bmp	500	1	blank2r.bmp	800	1	DHJF	800	1	blank2r.bmp	870	6	better	870	1	!	1200	1	blank2r.bmp	1330	0	0	0
012218	15:03:03	1	1	5.0.10.0	3	47	dA12_valB_070	d070_A12_A1_pleasB	300	300	0	0	18	1	723	1	blank2r.bmp	0	1	+	0	5	C1r.bmp	500	1	blank2r.bmp	800	1	NPLW	800	1	blank2r.bmp	870	3	true	870	1	!	1200	1	blank2r.bmp	1330	0	0	0
012218	15:03:03	1	1	5.0.10.0	3	48	dA12_valB_070	d070_A12_A1_pleasB	300	300	0	0	18	1	459	1	blank2r.bmp	0	1	+	0	7	C3r.bmp	500	1	blank2r.bmp	800	1	NPLW	800	1	blank2r.bmp	870	2	trust	870	1	!	1200	1	blank2r.bmp	1330	0	0	0
012218	15:11:42	1	1	5.0.10.0	3	1	dA12_valB_070	d070_A12_A1_unplB	300	300	0	0	23	0	266	1	blank2r.bmp	0	1	+	0	7	C3r.bmp	500	1	blank2r.bmp	800	1	NPLW	800	1	blank2r.bmp	870	4	bruise	870	1	!	1200	1	blank2r.bmp	1330	0	0	0
012218	15:11:42	1	1	5.0.10.0	3	2	dA12_valB_070	d070_A12_A1_pleasB	300	300	0	0	18	1	15	1	blank2r.bmp	0	1	+	0	6	C2r.bmp	500	1	blank2r.bmp	800	1	NPLW	800	1	blank2r.bmp	870	3	true	870	1	!	1200	1	blank2r.bmp	1330	0	0	0
012218	15:11:42	1	1	5.0.10.0	3	3	dA12_valB_070	d070_A12_A1_unplB	300	300	0	0	18	1	4	1	blank2r.bmp	0	1	+	0	2	B2r.bmp	500	1	blank2r.bmp	800	1	NPLW	800	1	blank2r.bmp	870	6	victim	870	1	!	1200	1	blank2r.bmp	1330	0	0	0
012218	15:11:42	1	1	5.0.10.0	3	4	dA12_valB_070	d070_A12_A2_unplB	300	300	0	0	23	1	14	1	blank2r.bmp	0	1	+	0	4	B4r.bmp	500	1	blank2r.bmp	800	1	DHJF	800	1	blank2r.bmp	870	5	crime	870	1	!	1200	1	blank2r.bmp	1330	0	0	0
012218	15:11:42	1	1	5.0.10.0	3	5	dA12_valB_070	d070_A12_A1_pleasB	300	300	0	0	18	1	1548	1	blank2r.bmp	0	1	+	0	1	B1r.bmp	500	1	blank2r.bmp	800	1	NPLW	800	1	blank2r.bmp	870	2	trust	870	1	!	1200	1	blank2r.bmp	1330	0	0	0
012218	15:11:42	1	1	5.0.10.0	3	6	dA12_valB_070	d070_A12_A1_pleasB	300	300	0	0	18	1	223	1	blank2r.bmp	0	1	+	0	3	B3r.bmp	500	1	blank2r.bmp	800	1	NPLW	800	1	blank2r.bmp	870	4	cute	870	1	!	1200	1	blank2r.bmp	1330	0	0	0
012218	15:11:42	1	1	5.0.10.0	3	7	dA12_valB_070	d070_A12_A2_unplB	300	300	0	0	18	0	62	1	blank2r.bmp	0	1	+	0	8	C4r.bmp	500	1	blank2r.bmp	800	1	DHJF	800	1	blank2r.bmp	870	2	sick	870	1	!	1200	1	blank2r.bmp	1330	0	0	0
012218	15:11:42	1	1	5.0.10.0	3	8	dA12_valB_070	d070_A12_A1_unplB	300	300	0	0	18	1	96	1	blank2r.bmp	0	1	+	0	5	C1r.bmp	500	1	blank2r.bmp	800	1	NPLW	800	1	blank2r.bmp	870	1	miser	870	1	!	1200	1	blank2r.bmp	1330	0	0	0
012218	15:11:42	1	1	5.0.10.0	3	9	dA12_valB_070	d070_A12_A2_pleasB	300	300	0	0	18	0	327	1	blank2r.bmp	0	1	+	0	2	B2r.bmp	500	1	blank2r.bmp	800	1	DHJF	800	1	blank2r.bmp	870	1	kiss	870	1	!	1200	1	blank2r.bmp	1330	0	0	0
012218	15:11:42	1	1	5.0.10.0	3	10	dA12_valB_070	d070_A12_A1_unplB	300	300	0	0	23	0	262	1	blank2r.bmp	0	1	+	0	1	B1r.bmp	500	1	blank2r.bmp	800	1	NPLW	800	1	blank2r.bmp	870	3	bitter	870	1	!	1200	1	blank2r.bmp	1330	0	0	0
012218	15:11:42	1	1	5.0.10.0	3	11	dA12_valB_070	d070_A12_A1_pleasB	300	300	0	0	23	0	477	1	blank2r.bmp	0	1	+	0	3	B3r.bmp	500	1	blank2r.bmp	800	1	NPLW	800	1	blank2r.bmp	870	6	better	870	1	!	1200	1	blank2r.bmp	1330	0	0	0
012218	15:11:42	1	1	5.0.10.0	3	12	dA12_valB_070	d070_A12_A1_pleasB	300	300	0	0	18	1	88	1	blank2r.bmp	0	1	+	0	8	C4r.bmp	500	1	blank2r.bmp	800	1	NPLW	800	1	blank2r.bmp	870	5	best	870	1	!	1200	1	blank2r.bmp	1330	0	0	0
012218	15:11:42	1	1	5.0.10.0	3	13	dA12_valB_070	d070_A12_A1_unplB	300	300	0	0	18	1	193	1	blank2r.bmp	0	1	+	0	6	C2r.bmp	500	1	blank2r.bmp	800	1	NPLW	800	1	blank2r.bmp	870	2	sick	870	1	!	1200	1	blank2r.bmp	1330	0	0	0
012218	15:11:42	1	1	5.0.10.0	3	14	dA12_valB_070	d070_A12_A1_unplB	300	300	0	0	23	0	218	1	blank2r.bmp	0	1	+	0	4	B4r.bmp	500	1	blank2r.bmp	800	1	NPLW	800	1	blank2r.bmp	870	5	crime	870	1	!	1200	1	blank2r.bmp	1330	0	0	0
012218	15:11:42	1	1	5.0.10.0	3	15	dA12_valB_070	d070_A12_A2_pleasB	300	300	0	0	23	1	240	1	blank2r.bmp	0	1	+	0	7	C3r.bmp	500	1	blank2r.bmp	800	1	DHJF	800	1	blank2r.bmp	870	3	true	870	1	!	1200	1	blank2r.bmp	1330	0	0	0
012218	15:11:42	1	1	5.0.10.0	3	16	dA12_valB_070	d070_A12_A1_pleasB	300	300	0	0	23	0	377	1	blank2r.bmp	0	1	+	0	5	C1r.bmp	500	1	blank2r.bmp	800	1	NPLW	800	1	blank2r.bmp	870	4	cute	870	1	!	1200	1	blank2r.bmp	1330	0	0	0
012218	15:11:42	1	1	5.0.10.0	3	17	dA12_valB_070	d070_A12_A1_unplB	300	300	0	0	23	0	299	1	blank2r.bmp	0	1	+	0	4	B4r.bmp	500	1	blank2r.bmp	800	1	NPLW	800	1	blank2r.bmp	870	3	bitter	870	1	!	1200	1	blank2r.bmp	1330	0	0	0
012218	15:11:42	1	1	5.0.10.0	3	18	dA12_valB_070	d070_A12_A2_pleasB	300	300	0	0	18	0	203	1	blank2r.bmp	0	1	+	0	1	B1r.bmp	500	1	blank2r.bmp	800	1	DHJF	800	1	blank2r.bmp	870	2	trust	870	1	!	1200	1	blank2r.bmp	1330	0	0	0
012218	15:11:42	1	1	5.0.10.0	3	19	dA12_valB_070	d070_A12_A1_pleasB	300	300	0	0	18	1	56	1	blank2r.bmp	0	1	+	0	7	C3r.bmp	500	1	blank2r.bmp	800	1	NPLW	800	1	blank2r.bmp	870	5	best	870	1	!	1200	1	blank2r.bmp	1330	0	0	0
012218	15:11:42	1	1	5.0.10.0	3	20	dA12_valB_070	d070_A12_A1_unplB	300	300	0	0	23	0	176	1	blank2r.bmp	0	1	+	0	8	C4r.bmp	500	1	blank2r.bmp	800	1	NPLW	800	1	blank2r.bmp	870	4	bruise	870	1	!	1200	1	blank2r.bmp	1330	0	0	0
012218	15:11:42	1	1	5.0.10.0	3	21	dA12_valB_070	d070_A12_A2_pleasB	300	300	0	0	18	0	677	1	blank2r.bmp	0	1	+	0	3	B3r.bmp	500	1	blank2r.bmp	800	1	DHJF	800	1	blank2r.bmp	870	6	better	870	1	!	1200	1	blank2r.bmp	1330	0	0	0
012218	15:11:42	1	1	5.0.10.0	3	22	dA12_valB_070	d070_A12_A2_pleasB	300	300	0	0	18	0	576	1	blank2r.bmp	0	1	+	0	2	B2r.bmp	500	1	blank2r.bmp	800	1	DHJF	800	1	blank2r.bmp	870	1	kiss	870	1	!	1200	1	blank2r.bmp	1330	0	0	0
012218	15:11:42	1	1	5.0.10.0	3	23	dA12_valB_070	d070_A12_A1_unplB	300	300	0	0	Ctrl+'B'	1	632	1	blank2r.bmp	0	1	+	0	5	C1r.bmp	500	1	blank2r.bmp	800	1	NPLW	800	1	blank2r.bmp	870	6	victim	870	1	!	1200	1	blank2r.bmp	1330	0	0	0
012218	15:11:42	1	1	5.0.10.0	5	1	dB12_valA_pract1	dL_B12_B1_unplA	300	300	0	0	18	1	251	1	blank2r.bmp	0	1	+	0	6	C2r.bmp	500	1	blank2r.bmp	700	1	BMVZ	700	1	B1r.bmp	830	1	blank2r.bmp	870	4	oaf	870	1	!	1200	1	blank2r.bmp	1330
012218	15:11:42	1	1	5.0.10.0	5	2	dB12_valA_pract1	dL_B12_B1_unplA	300	300	0	0	18	1	3840	1	blank2r.bmp	0	1	+	0	2	B2r.bmp	500	1	blank2r.bmp	700	1	BMVZ	700	3	B3r.bmp	830	1	blank2r.bmp	870	1	flaw	870	1	!	1200	1	blank2r.bmp	1330
012218	15:11:42	1	1	5.0.10.0	5	3	dB12_valA_pract1	dL_B12_B1_pleasA	300	300	0	0	18	1	1687	1	blank2r.bmp	0	1	+	0	1	B1r.bmp	500	1	blank2r.bmp	700	1	BMVZ	700	6	C2r.bmp	830	1	blank2r.bmp	870	3	play	870	1	!	1200	1	blank2r.bmp	1330
012218	15:11:42	1	1	5.0.10.0	5	4	dB12_valA_pract1	dL_B12_B2_pleasA	300	300	0	0	23	1	154	1	blank2r.bmp	0	1	+	0	8	C4r.bmp	500	1	blank2r.bmp	700	1	GKQX	700	2	B2r.bmp	830	1	blank2r.bmp	870	5	jolly	870	1	!	1200	1	blank2r.bmp	1330
012218	15:11:42	1	1	5.0.10.0	5	5	dB12_valA_pract1	dL_B12_B1_unplA	300	300	0	0	18	1	68	1	blank2r.bmp	0	1	+	0	5	C1r.bmp	500	1	blank2r.bmp	700	1	BMVZ	700	8	C4r.bmp	830	1	blank2r.bmp	870	6	old	870	1	!	1200	1	blank2r.bmp	1330
012218	15:11:42	1	1	5.0.10.0	5	6	dB12_valA_pract1	dL_B12_B2_unplA	300	300	0	0	23	1	49	1	blank2r.bmp	0	1	+	0	7	C3r.bmp	500	1	blank2r.bmp	700	1	GKQX	700	5	C1r.bmp	830	1	blank2r.bmp	870	2	folly	870	1	!	1200	1	blank2r.bmp	1330
012218	15:11:42	1	1	5.0.10.0	5	7	dB12_valA_pract1	dL_B12_B2_pleasA	300	300	0	0	23	1	46	1	blank2r.bmp	0	1	+	0	3	B3r.bmp	500	1	blank2r.bmp	700	1	GKQX	700	4	B4r.bmp	830	1	blank2r.bmp	870	2	joy	870	1	!	1200	1	blank2r.bmp	1330
012218	15:11:42	1	1	5.0.10.0	5	8	dB12_valA_pract1	dL_B12_B2_pleasA	300	300	0	0	23	1	72	1	blank2r.bmp	0	1	+	0	6	C2r.bmp	500	1	blank2r.bmp	700	1	GKQX	700	7	C3r.bmp	830	1	blank2r.bmp	870	4	happy	870	1	!	1200	1	blank2r.bmp	1330
012218	15:11:42	1	1	5.0.10.0	5	9	dB12_valA_pract1	dL_B12_B1_pleasA	300	300	0	0	18	1	1578	1	blank2r.bmp	0	1	+	0	4	B4r.bmp	500	1	blank2r.bmp	700	1	BMVZ	700	8	C4r.bmp	830	1	blank2r.bmp	870	1	dandy	870	1	!	1200	1	blank2r.bmp	1330
012218	15:11:42	1	1	5.0.10.0	5	10	dB12_valA_pract1	dL_B12_B2_unplA	300	300	0	0	23	1	214	1	blank2r.bmp	0	1	+	0	2	B2r.bmp	500	1	blank2r.bmp	700	1	GKQX	700	1	B1r.bmp	830	1	blank2r.bmp	870	3	flood	870	1	!	1200	1	blank2r.bmp	1330
012218	15:11:42	1	1	5.0.10.0	5	11	dB12_valA_pract1	dL_B12_B1_pleasA	300	300	0	0	18	1	99	1	blank2r.bmp	0	1	+	0	5	C1r.bmp	500	1	blank2r.bmp	700	1	BMVZ	700	3	B3r.bmp	830	1	blank2r.bmp	870	6	fond	870	1	!	1200	1	blank2r.bmp	1330
012218	15:11:42	1	1	5.0.10.0	5	12	dB12_valA_pract1	dL_B12_B2_unplA	300	300	0	0	18	0	231	1	blank2r.bmp	0	1	+	0	1	B1r.bmp	500	1	blank2r.bmp	700	1	GKQX	700	5	C1r.bmp	830	1	blank2r.bmp	870	5	flop	870	1	!	1200	1	blank2r.bmp	1330
012218	15:11:42	1	1	5.0.10.0	6	1	dB12_valA_pract2	dM_B12_B2_unplA	300	300	0	0	23	1	1087	1	blank2r.bmp	0	1	+	0	7	C3r.bmp	500	1	blank2r.bmp	730	1	GKQX	730	6	C2r.bmp	830	1	blank2r.bmp	870	6	old	870	1	!	1200	1	blank2r.bmp	1330
012218	15:11:42	1	1	5.0.10.0	6	2	dB12_valA_pract2	dM_B12_B1_pleasA	300	300	0	0	18	1	141	1	blank2r.bmp	0	1	+	0	4	B4r.bmp	500	1	blank2r.bmp	730	1	BMVZ	730	2	B2r.bmp	830	1	blank2r.bmp	870	2	joy	870	1	!	1200	1	blank2r.bmp	1330
012218	15:11:42	1	1	5.0.10.0	6	3	dB12_valA_pract2	dM_B12_B1_unplA	300	300	0	0	18	1	207	1	blank2r.bmp	0	1	+	0	3	B3r.bmp	500	1	blank2r.bmp	730	1	BMVZ	730	4	B4r.bmp	830	1	blank2r.bmp	870	1	flaw	870	1	!	1200	1	blank2r.bmp	1330
012218	15:11:42	1	1	5.0.10.0	6	4	dB12_valA_pract2	dM_B12_B1_pleasA	300	300	0	0	18	1	133	1	blank2r.bmp	0	1	+	0	8	C4r.bmp	500	1	blank2r.bmp	730	1	BMVZ	730	7	C3r.bmp	830	1	blank2r.bmp	870	3	play	870	1	!	1200	1	blank2r.bmp	1330
012218	15:11:42	1	1	5.0.10.0	6	5	dB12_valA_pract2	dM_B12_B2_unplA	300	300	0	0	23	1	144	1	blank2r.bmp	0	1	+	0	6	C2r.bmp	500	1	blank2r.bmp	730	1	GKQX	730	2	B2r.bmp	830	1	blank2r.bmp	870	4	oaf	870	1	!	1200	1	blank2r.bmp	1330
012218	15:11:42	1	1	5.0.10.0	6	6	dB12_valA_pract2	dM_B12_B2_pleasA	300	300	0	0	23	1	417	1	blank2r.bmp	0	1	+	0	3	B3r.bmp	500	1	blank2r.bmp	730	1	GKQX	730	8	C4r.bmp	830	1	blank2r.bmp	870	6	fond	870	1	!	1200	1	blank2r.bmp	1330
012218	15:11:42	1	1	5.0.10.0	6	7	dB12_valA_pract2	dM_B12_B1_unplA	300	300	0	0	18	1	159	1	blank2r.bmp	0	1	+	0	6	C2r.bmp	500	1	blank2r.bmp	730	1	BMVZ	730	4	B4r.bmp	830	1	blank2r.bmp	870	2	folly	870	1	!	1200	1	blank2r.bmp	1330
012218	15:11:42	1	1	5.0.10.0	6	8	dB12_valA_pract2	dM_B12_B2_unplA	300	300	0	0	18	0	328	1	blank2r.bmp	0	1	+	0	7	C3r.bmp	500	1	blank2r.bmp	730	1	GKQX	730	5	C1r.bmp	830	1	blank2r.bmp	870	3	flood	870	1	!	1200	1	blank2r.bmp	1330
012218	15:11:42	1	1	5.0.10.0	6	9	dB12_valA_pract2	dM_B12_B2_pleasA	300	300	0	0	23	1	217	1	blank2r.bmp	0	1	+	0	1	B1r.bmp	500	1	blank2r.bmp	730	1	GKQX	730	3	B3r.bmp	830	1	blank2r.bmp	870	4	happy	870	1	!	1200	1	blank2r.bmp	1330
012218	15:11:42	1	1	5.0.10.0	6	10	dB12_valA_pract2	dM_B12_B2_pleasA	300	300	0	0	18	0	412	1	blank2r.bmp	0	1	+	0	8	C4r.bmp	500	1	blank2r.bmp	730	1	GKQX	730	6	C2r.bmp	830	1	blank2r.bmp	870	5	jolly	870	1	!	1200	1	blank2r.bmp	1330
012218	15:11:42	1	1	5.0.10.0	6	11	dB12_valA_pract2	dM_B12_B1_pleasA	300	300	0	0	23	0	253	1	blank2r.bmp	0	1	+	0	2	B2r.bmp	500	1	blank2r.bmp	730	1	BMVZ	730	1	B1r.bmp	830	1	blank2r.bmp	870	1	dandy	870	1	!	1200	1	blank2r.bmp	1330
012218	15:11:42	1	1	5.0.10.0	6	12	dB12_valA_pract2	dM_B12_B1_unplA	300	300	0	0	18	1	176	1	blank2r.bmp	0	1	+	0	5	C1r.bmp	500	1	blank2r.bmp	730	1	BMVZ	730	7	C3r.bmp	830	1	blank2r.bmp	870	5	flop	870	1	!	1200	1	blank2r.bmp	1330
012218	15:11:42	1	1	5.0.10.0	7	1	dB12_valA_080	d080_B12_B2_pleasA	300	300	0	0	23	1	2045	1	blank2r.bmp	0	1	+	0	4	B4r.bmp	500	1	blank2r.bmp	800	1	GKQX	800	1	blank2r.bmp	880	5	jolly	880	1	!	1210	1	blank2r.bmp	1340	0	0	0
012218	15:11:42	1	1	5.0.10.0	7	2	dB12_valA_080	d080_B12_B2_unplA	300	300	0	0	23	1	269	1	blank2r.bmp	0	1	+	0	1	B1r.bmp	500	1	blank2r.bmp	800	1	GKQX	800	1	blank2r.bmp	880	4	oaf	880	1	!	1210	1	blank2r.bmp	1340	0	0	0
012218	15:11:42	1	1	5.0.10.0	7	3	dB12_valA_080	d080_B12_B1_unplA	300	300	0	0	18	1	1738	1	blank2r.bmp	0	1	+	0	3	B3r.bmp	500	1	blank2r.bmp	800	1	BMVZ	800	1	blank2r.bmp	880	1	flaw	880	1	!	1210	1	blank2r.bmp	1340	0	0	0
012218	15:11:42	1	1	5.0.10.0	7	4	dB12_valA_080	d080_B12_B1_unplA	300	300	0	0	18	1	98	1	blank2r.bmp	0	1	+	0	8	C4r.bmp	500	1	blank2r.bmp	800	1	BMVZ	800	1	blank2r.bmp	880	6	old	880	1	!	1210	1	blank2r.bmp	1340	0	0	0
012218	15:11:42	1	1	5.0.10.0	7	5	dB12_valA_080	d080_B12_B2_unplA	300	300	0	0	23	1	1447	1	blank2r.bmp	0	1	+	0	6	C2r.bmp	500	1	blank2r.bmp	800	1	GKQX	800	1	blank2r.bmp	880	5	flop	880	1	!	1210	1	blank2r.bmp	1340	0	0	0
012218	15:11:42	1	1	5.0.10.0	7	6	dB12_valA_080	d080_B12_B2_unplA	300	300	0	0	18	0	199	1	blank2r.bmp	0	1	+	0	2	B2r.bmp	500	1	blank2r.bmp	800	1	GKQX	800	1	blank2r.bmp	880	2	folly	880	1	!	1210	1	blank2r.bmp	1340	0	0	0
012218	15:11:42	1	1	5.0.10.0	7	7	dB12_valA_080	d080_B12_B1_pleasA	300	300	0	0	18	1	23	1	blank2r.bmp	0	1	+	0	4	B4r.bmp	500	1	blank2r.bmp	800	1	BMVZ	800	1	blank2r.bmp	880	2	joy	880	1	!	1210	1	blank2r.bmp	1340	0	0	0
012218	15:11:42	1	1	5.0.10.0	7	8	dB12_valA_080	d080_B12_B1_unplA	300	300	0	0	18	1	167	1	blank2r.bmp	0	1	+	0	5	C1r.bmp	500	1	blank2r.bmp	800	1	BMVZ	800	1	blank2r.bmp	880	3	flood	880	1	!	1210	1	blank2r.bmp	1340	0	0	0
012218	15:11:42	1	1	5.0.10.0	7	9	dB12_valA_080	d080_B12_B1_pleasA	300	300	0	0	18	1	16	1	blank2r.bmp	0	1	+	0	7	C3r.bmp	500	1	blank2r.bmp	800	1	BMVZ	800	1	blank2r.bmp	880	3	play	880	1	!	1210	1	blank2r.bmp	1340	0	0	0
012218	15:11:42	1	1	5.0.10.0	7	10	dB12_valA_080	d080_B12_B1_pleasA	300	300	0	0	18	1	219	1	blank2r.bmp	0	1	+	0	8	C4r.bmp	500	1	blank2r.bmp	800	1	BMVZ	800	1	blank2r.bmp	880	4	happy	880	1	!	1210	1	blank2r.bmp	1340	0	0	0
012218	15:11:42	1	1	5.0.10.0	7	11	dB12_valA_080	d080_B12_B1_unplA	300	300	0	0	18	1	80	1	blank2r.bmp	0	1	+	0	2	B2r.bmp	500	1	blank2r.bmp	800	1	BMVZ	800	1	blank2r.bmp	880	4	oaf	880	1	!	1210	1	blank2r.bmp	1340	0	0	0
012218	15:11:42	1	1	5.0.10.0	7	12	dB12_valA_080	d080_B12_B2_unplA	300	300	0	0	23	1	1565	1	blank2r.bmp	0	1	+	0	5	C1r.bmp	500	1	blank2r.bmp	800	1	GKQX	800	1	blank2r.bmp	880	5	flop	880	1	!	1210	1	blank2r.bmp	1340	0	0	0
012218	15:11:42	1	1	5.0.10.0	7	13	dB12_valA_080	d080_B12_B2_pleasA	300	300	0	0	23	1	209	1	blank2r.bmp	0	1	+	0	7	C3r.bmp	500	1	blank2r.bmp	800	1	GKQX	800	1	blank2r.bmp	880	1	dandy	880	1	!	1210	1	blank2r.bmp	1340	0	0	0
012218	15:11:42	1	1	5.0.10.0	7	14	dB12_valA_080	d080_B12_B2_pleasA	300	300	0	0	18	0	170	1	blank2r.bmp	0	1	+	0	1	B1r.bmp	500	1	blank2r.bmp	800	1	GKQX	800	1	blank2r.bmp	880	6	fond	880	1	!	1210	1	blank2r.bmp	1340	0	0	0
012218	15:11:42	1	1	5.0.10.0	7	15	dB12_valA_080	d080_B12_B1_unplA	300	300	0	0	18	1	178	1	blank2r.bmp	0	1	+	0	3	B3r.bmp	500	1	blank2r.bmp	800	1	BMVZ	800	1	blank2r.bmp	880	3	flood	880	1	!	1210	1	blank2r.bmp	1340	0	0	0
012218	15:11:42	1	1	5.0.10.0	7	16	dB12_valA_080	d080_B12_B2_unplA	300	300	0	0	23	1	65	1	blank2r.bmp	0	1	+	0	6	C2r.bmp	500	1	blank2r.bmp	800	1	GKQX	800	1	blank2r.bmp	880	2	folly	880	1	!	1210	1	blank2r.bmp	1340	0	0	0
012218	15:11:42	1	1	5.0.10.0	7	17	dB12_valA_080	d080_B12_B2_unplA	300	300	0	0	23	1	1360	1	blank2r.bmp	0	1	+	0	4	B4r.bmp	500	1	blank2r.bmp	800	1	GKQX	800	1	blank2r.bmp	880	6	old	880	1	!	1210	1	blank2r.bmp	1340	0	0	0
012218	15:11:42	1	1	5.0.10.0	7	18	dB12_valA_080	d080_B12_B1_unplA	300	300	0	0	18	1	210	1	blank2r.bmp	0	1	+	0	8	C4r.bmp	500	1	blank2r.bmp	800	1	BMVZ	800	1	blank2r.bmp	880	1	flaw	880	1	!	1210	1	blank2r.bmp	1340	0	0	0
012218	15:11:42	1	1	5.0.10.0	7	19	dB12_valA_080	d080_B12_B2_pleasA	300	300	0	0	23	1	49	1	blank2r.bmp	0	1	+	0	1	B1r.bmp	500	1	blank2r.bmp	800	1	GKQX	800	1	blank2r.bmp	880	5	jolly	880	1	!	1210	1	blank2r.bmp	1340	0	0	0
012218	15:11:42	1	1	5.0.10.0	7	20	dB12_valA_080	d080_B12_B1_unplA	300	300	0	0	18	1	174	1	blank2r.bmp	0	1	+	0	5	C1r.bmp	500	1	blank2r.bmp	800	1	BMVZ	800	1	blank2r.bmp	880	5	flop	880	1	!	1210	1	blank2r.bmp	1340	0	0	0
012218	15:11:42	1	1	5.0.10.0	7	21	dB12_valA_080	d080_B12_B1_pleasA	300	300	0	0	18	1	254	1	blank2r.bmp	0	1	+	0	4	B4r.bmp	500	1	blank2r.bmp	800	1	BMVZ	800	1	blank2r.bmp	880	6	fond	880	1	!	1210	1	blank2r.bmp	1340	0	0	0
012218	15:11:42	1	1	5.0.10.0	7	22	dB12_valA_080	d080_B12_B1_pleasA	300	300	0	0	18	1	256	1	blank2r.bmp	0	1	+	0	6	C2r.bmp	500	1	blank2r.bmp	800	1	BMVZ	800	1	blank2r.bmp	880	3	play	880	1	!	1210	1	blank2r.bmp	1340	0	0	0
012218	15:11:42	1	1	5.0.10.0	7	23	dB12_valA_080	d080_B12_B2_unplA	300	300	0	0	23	1	240	1	blank2r.bmp	0	1	+	0	2	B2r.bmp	500	1	blank2r.bmp	800	1	GKQX	800	1	blank2r.bmp	880	6	old	880	1	!	1210	1	blank2r.bmp	1340	0	0	0
012218	15:11:42	1	1	5.0.10.0	7	24	dB12_valA_080	d080_B12_B1_pleasA	300	300	0	0	18	1	197	1	blank2r.bmp	0	1	+	0	3	B3r.bmp	500	1	blank2r.bmp	800	1	BMVZ	800	1	blank2r.bmp	880	2	joy	880	1	!	1210	1	blank2r.bmp	1340	0	0	0
012218	15:11:42	1	1	5.0.10.0	7	25	dB12_valA_080	d080_B12_B2_pleasA	300	300	0	0	18	0	172	1	blank2r.bmp	0	1	+	0	7	C3r.bmp	500	1	blank2r.bmp	800	1	GKQX	800	1	blank2r.bmp	880	4	happy	880	1	!	1210	1	blank2r.bmp	1340	0	0	0
012218	15:11:42	1	1	5.0.10.0	7	26	dB12_valA_080	d080_B12_B1_pleasA	300	300	0	0	18	1	393	1	blank2r.bmp	0	1	+	0	6	C2r.bmp	500	1	blank2r.bmp	800	1	BMVZ	800	1	blank2r.bmp	880	1	dandy	880	1	!	1210	1	blank2r.bmp	1340	0	0	0
012218	15:11:42	1	1	5.0.10.0	7	27	dB12_valA_080	d080_B12_B2_pleasA	300	300	0	0	23	1	274	1	blank2r.bmp	0	1	+	0	2	B2r.bmp	500	1	blank2r.bmp	800	1	GKQX	800	1	blank2r.bmp	880	1	dandy	880	1	!	1210	1	blank2r.bmp	1340	0	0	0
012218	15:11:42	1	1	5.0.10.0	7	28	dB12_valA_080	d080_B12_B2_pleasA	300	300	0	0	23	1	230	1	blank2r.bmp	0	1	+	0	5	C1r.bmp	500	1	blank2r.bmp	800	1	GKQX	800	1	blank2r.bmp	880	6	fond	880	1	!	1210	1	blank2r.bmp	1340	0	0	0
012218	15:11:42	1	1	5.0.10.0	7	29	dB12_valA_080	d080_B12_B2_unplA	300	300	0	0	18	0	175	1	blank2r.bmp	0	1	+	0	1	B1r.bmp	500	1	blank2r.bmp	800	1	GKQX	800	1	blank2r.bmp	880	3	flood	880	1	!	1210	1	blank2r.bmp	1340	0	0	0
012218	15:11:42	1	1	5.0.10.0	7	30	dB12_valA_080	d080_B12_B1_pleasA	300	300	0	0	18	1	100	1	blank2r.bmp	0	1	+	0	4	B4r.bmp	500	1	blank2r.bmp	800	1	BMVZ	800	1	blank2r.bmp	880	4	happy	880	1	!	1210	1	blank2r.bmp	1340	0	0	0
012218	15:11:42	1	1	5.0.10.0	7	31	dB12_valA_080	d080_B12_B2_unplA	300	300	0	0	23	1	180	1	blank2r.bmp	0	1	+	0	7	C3r.bmp	500	1	blank2r.bmp	800	1	GKQX	800	1	blank2r.bmp	880	2	folly	880	1	!	1210	1	blank2r.bmp	1340	0	0	0
012218	15:11:42	1	1	5.0.10.0	7	32	dB12_valA_080	d080_B12_B2_pleasA	300	300	0	0	23	1	27	1	blank2r.bmp	0	1	+	0	8	C4r.bmp	500	1	blank2r.bmp	800	1	GKQX	800	1	blank2r.bmp	880	2	joy	880	1	!	1210	1	blank2r.bmp	1340	0	0	0
012218	15:11:42	1	1	5.0.10.0	7	33	dB12_valA_080	d080_B12_B2_pleasA	300	300	0	0	18	0	1177	1	blank2r.bmp	0	1	+	0	3	B3r.bmp	500	1	blank2r.bmp	800	1	GKQX	800	1	blank2r.bmp	880	3	play	880	1	!	1210	1	blank2r.bmp	1340	0	0	0
012218	15:11:42	1	1	5.0.10.0	7	34	dB12_valA_080	d080_B12_B2_unplA	300	300	0	0	23	1	209	1	blank2r.bmp	0	1	+	0	3	B3r.bmp	500	1	blank2r.bmp	800	1	GKQX	800	1	blank2r.bmp	880	4	oaf	880	1	!	1210	1	blank2r.bmp	1340	0	0	0
012218	15:11:42	1	1	5.0.10.0	7	35	dB12_valA_080	d080_B12_B2_pleasA	300	300	0	0	23	1	96	1	blank2r.bmp	0	1	+	0	6	C2r.bmp	500	1	blank2r.bmp	800	1	GKQX	800	1	blank2r.bmp	880	5	jolly	880	1	!	1210	1	blank2r.bmp	1340	0	0	0
012218	15:11:42	1	1	5.0.10.0	7	36	dB12_valA_080	d080_B12_B2_unplA	300	300	0	0	23	1	194	1	blank2r.bmp	0	1	+	0	2	B2r.bmp	500	1	blank2r.bmp	800	1	GKQX	800	1	blank2r.bmp	880	1	flaw	880	1	!	1210	1	blank2r.bmp	1340	0	0	0
012218	15:11:42	1	1	5.0.10.0	7	37	dB12_valA_080	d080_B12_B2_pleasA	300	300	0	0	23	1	166	1	blank2r.bmp	0	1	+	0	5	C1r.bmp	500	1	blank2r.bmp	800	1	GKQX	800	1	blank2r.bmp	880	5	jolly	880	1	!	1210	1	blank2r.bmp	1340	0	0	0
012218	15:11:42	1	1	5.0.10.0	7	38	dB12_valA_080	d080_B12_B1_unplA	300	300	0	0	18	1	95	1	blank2r.bmp	0	1	+	0	7	C3r.bmp	500	1	blank2r.bmp	800	1	BMVZ	800	1	blank2r.bmp	880	2	folly	880	1	!	1210	1	blank2r.bmp	1340	0	0	0
012218	15:11:42	1	1	5.0.10.0	7	39	dB12_valA_080	d080_B12_B1_unplA	300	300	0	0	18	1	479	1	blank2r.bmp	0	1	+	0	1	B1r.bmp	500	1	blank2r.bmp	800	1	BMVZ	800	1	blank2r.bmp	880	4	oaf	880	1	!	1210	1	blank2r.bmp	1340	0	0	0
012218	15:11:42	1	1	5.0.10.0	7	40	dB12_valA_080	d080_B12_B1_pleasA	300	300	0	0	18	1	189	1	blank2r.bmp	0	1	+	0	8	C4r.bmp	500	1	blank2r.bmp	800	1	BMVZ	800	1	blank2r.bmp	880	3	play	880	1	!	1210	1	blank2r.bmp	1340	0	0	0
012218	15:11:42	1	1	5.0.10.0	7	41	dB12_valA_080	d080_B12_B2_pleasA	300	300	0	0	23	1	116	1	blank2r.bmp	0	1	+	0	4	B4r.bmp	500	1	blank2r.bmp	800	1	GKQX	800	1	blank2r.bmp	880	1	dandy	880	1	!	1210	1	blank2r.bmp	1340	0	0	0
012218	15:11:42	1	1	5.0.10.0	7	42	dB12_valA_080	d080_B12_B1_unplA	300	300	0	0	18	1	86	1	blank2r.bmp	0	1	+	0	3	B3r.bmp	500	1	blank2r.bmp	800	1	BMVZ	800	1	blank2r.bmp	880	1	flaw	880	1	!	1210	1	blank2r.bmp	1340	0	0	0
012218	15:11:42	1	1	5.0.10.0	7	43	dB12_valA_080	d080_B12_B1_unplA	300	300	0	0	18	1	304	1	blank2r.bmp	0	1	+	0	4	B4r.bmp	500	1	blank2r.bmp	800	1	BMVZ	800	1	blank2r.bmp	880	6	old	880	1	!	1210	1	blank2r.bmp	1340	0	0	0
012218	15:11:42	1	1	5.0.10.0	7	44	dB12_valA_080	d080_B12_B1_unplA	300	300	0	0	18	1	240	1	blank2r.bmp	0	1	+	0	7	C3r.bmp	500	1	blank2r.bmp	800	1	BMVZ	800	1	blank2r.bmp	880	5	flop	880	1	!	1210	1	blank2r.bmp	1340	0	0	0
012218	15:11:42	1	1	5.0.10.0	7	45	dB12_valA_080	d080_B12_B1_pleasA	300	300	0	0	18	1	216	1	blank2r.bmp	0	1	+	0	1	B1r.bmp	500	1	blank2r.bmp	800	1	BMVZ	800	1	blank2r.bmp	880	6	fond	880	1	!	1210	1	blank2r.bmp	1340	0	0	0
012218	15:11:42	1	1	5.0.10.0	7	46	dB12_valA_080	d080_B12_B2_unplA	300	300	0	0	23	1	82	1	blank2r.bmp	0	1	+	0	2	B2r.bmp	500	1	blank2r.bmp	800	1	GKQX	800	1	blank2r.bmp	880	3	flood	880	1	!	1210	1	blank2r.bmp	1340	0	0	0
012218	15:11:42	1	1	5.0.10.0	7	47	dB12_valA_080	d080_B12_B1_pleasA	300	300	0	0	23	0	35	1	blank2r.bmp	0	1	+	0	6	C2r.bmp	500	1	blank2r.bmp	800	1	BMVZ	800	1	blank2r.bmp	880	4	happy	880	1	!	1210	1	blank2r.bmp	1340	0	0	0
012218	15:11:42	1	1	5.0.10.0	7	48	dB12_valA_080	d080_B12_B1_pleasA	300	300	0	0	18	1	272	1	blank2r.bmp	0	1	+	0	8	C4r.bmp	500	1	blank2r.bmp	800	1	BMVZ	800	1	blank2r.bmp	880	2	joy	880	1	!	1210	1	blank2r.bmp	1340	0	0	0
012318	11:34:35	1	2	5.0.10.0	1	1	dA21_valB_pract1	dL_A21_A1_pleasB	300	300	0	0	23	1	58	1	blank2r.bmp	0	1	+	0	5	C1r.bmp	505	1	blank2r.bmp	693	1	NPLW	693	8	C4r.bmp	835	1	blank2r.bmp	870	2	trust	870	1	!	1199	1	blank2r.bmp	1329
012318	11:34:35	1	2	5.0.10.0	1	2	dA21_valB_pract1	dL_A21_A1_pleasB	300	300	0	0	23	1	90	1	blank2r.bmp	0	1	+	0	7	C3r.bmp	505	1	blank2r.bmp	693	1	NPLW	693	6	C2r.bmp	835	1	blank2r.bmp	870	3	true	870	1	!	1199	1	blank2r.bmp	1329
012318	11:34:35	1	2	5.0.10.0	1	3	dA21_valB_pract1	dL_A21_A1_unplB	300	300	0	0	18	0	308	1	blank2r.bmp	0	1	+	0	6	C2r.bmp	505	1	blank2r.bmp	693	1	NPLW	693	5	C1r.bmp	835	1	blank2r.bmp	870	2	sick	870	1	!	1199	1	blank2r.bmp	1329
012318	11:34:35	1	2	5.0.10.0	1	4	dA21_valB_pract1	dL_A21_A2_pleasB	300	300	0	0	18	1	92	1	blank2r.bmp	0	1	+	0	3	B3r.bmp	505	1	blank2r.bmp	693	1	DHJF	693	7	C3r.bmp	835	1	blank2r.bmp	870	4	cute	870	1	!	1199	1	blank2r.bmp	1329
012318	11:34:35	1	2	5.0.10.0	1	5	dA21_valB_pract1	dL_A21_A2_unplB	300	300	0	0	18	1	71	1	blank2r.bmp	0	1	+	0	2	B2r.bmp	505	1	blank2r.bmp	693	1	DHJF	693	4	B4r.bmp	835	1	blank2r.bmp	870	4	bruise	870	1	!	1199	1	blank2r.bmp	1329
012318	11:34:35	1	2	5.0.10.0	1	6	dA21_valB_pract1	dL_A21_A2_pleasB	300	300	0	0	18	1	78	1	blank2r.bmp	0	1	+	0	8	C4r.bmp	505	1	blank2r.bmp	693	1	DHJF	693	3	B3r.bmp	835	1	blank2r.bmp	870	6	better	870	1	!	1199	1	blank2r.bmp	1329
012318	11:34:35	1	2	5.0.10.0	1	7	dA21_valB_pract1	dL_A21_A2_pleasB	300	300	0	0	18	1	73	1	blank2r.bmp	0	1	+	0	4	B4r.bmp	505	1	blank2r.bmp	693	1	DHJF	693	2	B2r.bmp	835	1	blank2r.bmp	870	5	best	870	1	!	1199	1	blank2r.bmp	1329
012318	11:34:35	1	2	5.0.10.0	1	8	dA21_valB_pract1	dL_A21_A1_pleasB	300	300	0	0	23	1	2160	1	blank2r.bmp	0	1	+	0	1	B1r.bmp	505	1	blank2r.bmp	693	1	NPLW	693	1	B1r.bmp	835	1	blank2r.bmp	870	1	kiss	870	1	!	1199	1	blank2r.bmp	1329
012318	11:34:35	1	2	5.0.10.0	1	9	dA21_valB_pract1	dL_A21_A1_unplB	300	300	0	0	23	1	92	1	blank2r.bmp	0	1	+	0	3	B3r.bmp	505	1	blank2r.bmp	693	1	NPLW	693	4	B4r.bmp	835	1	blank2r.bmp	870	5	crime	870	1	!	1199	1	blank2r.bmp	1329
012318	11:34:35	1	2	5.0.10.0	1	10	dA21_valB_pract1	dL_A21_A2_unplB	300	300	0	0	18	1	97	1	blank2r.bmp	0	1	+	0	1	B1r.bmp	505	1	blank2r.bmp	693	1	DHJF	693	7	C3r.bmp	835	1	blank2r.bmp	870	1	miser	870	1	!	1199	1	blank2r.bmp	1329
012318	11:34:35	1	2	5.0.10.0	1	11	dA21_valB_pract1	dL_A21_A1_unplB	300	300	0	0	23	1	136	1	blank2r.bmp	0	1	+	0	8	C4r.bmp	505	1	blank2r.bmp	693	1	NPLW	693	6	C2r.bmp	835	1	blank2r.bmp	870	3	bitter	870	1	!	1199	1	blank2r.bmp	1329
012318	11:34:35	1	2	5.0.10.0	1	12	dA21_valB_pract1	dL_A21_A2_unplB	300	300	0	0	18	1	11	1	blank2r.bmp	0	1	+	0	4	B4r.bmp	505	1	blank2r.bmp	693	1	DHJF	693	2	B2r.bmp	835	1	blank2r.bmp	870	6	victim	870	1	!	1199	1	blank2r.bmp	1329
012318	11:34:35	1	2	5.0.10.0	2	1	dA21_valB_pract2	dM_A21_A1_pleasB	300	300	0	0	23	1	1898	1	blank2r.bmp	0	1	+	0	2	B2r.bmp	505	1	blank2r.bmp	729	1	NPLW	729	5	C1r.bmp	835	1	blank2r.bmp	870	3	true	870	1	!	1199	1	blank2r.bmp	1329
012318	11:34:35	1	2	5.0.10.0	2	2	dA21_valB_pract2	dM_A21_A1_pleasB	300	300	0	0	23	1	243	1	blank2r.bmp	0	1	+	0	5	C1r.bmp	505	1	blank2r.bmp	729	1	NPLW	729	3	B3r.bmp	835	1	blank2r.bmp	870	1	kiss	870	1	!	1199	1	blank2r.bmp	1329
012318	11:34:35	1	2	5.0.10.0	2	3	dA21_valB_pract2	dM_A21_A1_pleasB	300	300	0	0	23	1	74	1	blank2r.bmp	0	1	+	0	7	C3r.bmp	505	1	blank2r.bmp	729	1	NPLW	729	1	B1r.bmp	835	1	blank2r.bmp	870	2	trust	870	1	!	1199	1	blank2r.bmp	1329
012318	11:34:35	1	2	5.0.10.0	2	4	dA21_valB_pract2	dM_A21_A2_pleasB	300	300	0	0	18	1	42	1	blank2r.bmp	0	1	+	0	6	C2r.bmp	505	1	blank2r.bmp	729	1	DHJF	729	8	C4r.bmp	835	1	blank2r.bmp	870	6	better	870	1	!	1199	1	blank2r.bmp	1329
012318	11:34:35	1	2	5.0.10.0	2	5	dA21_valB_pract2	dM_A21_A2_unplB	300	300	0	0	18	1	93	1	blank2r.bmp	0	1	+	0	1	B1r.bmp	505	1	blank2r.bmp	729	1	DHJF	729	7	C3r.bmp	837	1	blank2r.bmp	870	4	bruise	870	1	!	1199	1	blank2r.bmp	1329
012318	11:34:35	1	2	5.0.10.0	2	6	dA21_valB_pract2	dM_A21_A2_pleasB	300	300	0	0	18	1	29	1	blank2r.bmp	0	1	+	0	2	B2r.bmp	505	1	blank2r.bmp	729	1	DHJF	729	1	B1r.bmp	835	1	blank2r.bmp	870	4	cute	870	1	!	1199	1	blank2r.bmp	1329
012318	11:34:35	1	2	5.0.10.0	2	7	dA21_valB_pract2	dM_A21_A2_pleasB	300	300	0	0	18	1	74	1	blank2r.bmp	0	1	+	0	3	B3r.bmp	505	1	blank2r.bmp	729	1	DHJF	729	2	B2r.bmp	835	1	blank2r.bmp	870	5	best	870	1	!	1199	1	blank2r.bmp	1329
012318	11:34:35	1	2	5.0.10.0	2	8	dA21_valB_pract2	dM_A21_A1_unplB	300	300	0	0	23	1	1777	1	blank2r.bmp	0	1	+	0	8	C4r.bmp	505	1	blank2r.bmp	729	1	NPLW	729	3	B3r.bmp	835	1	blank2r.bmp	870	3	bitter	870	1	!	1199	1	blank2r.bmp	1329
012318	11:34:35	1	2	5.0.10.0	2	9	dA21_valB_pract2	dM_A21_A2_unplB	300	300	0	0	18	1	48	1	blank2r.bmp	0	1	+	0	7	C3r.bmp	505	1	blank2r.bmp	729	1	DHJF	729	8	C4r.bmp	835	1	blank2r.bmp	870	5	crime	870	1	!	1199	1	blank2r.bmp	1329
012318	11:34:35	1	2	5.0.10.0	2	10	dA21_valB_pract2	dM_A21_A2_unplB	300	300	0	0	18	1	122	1	blank2r.bmp	0	1	+	0	6	C2r.bmp	505	1	blank2r.bmp	729	1	DHJF	729	4	B4r.bmp	835	1	blank2r.bmp	870	2	sick	870	1	!	1199	1	blank2r.bmp	1329
012318	11:34:35	1	2	5.0.10.0	2	11	dA21_valB_pract2	dM_A21_A1_unplB	300	300	0	0	23	1	143	1	blank2r.bmp	0	1	+	0	4	B4r.bmp	505	1	blank2r.bmp	729	1	NPLW	729	5	C1r.bmp	835	1	blank2r.bmp	870	6	victim	870	1	!	1199	1	blank2r.bmp	1329
012318	11:34:35	1	2	5.0.10.0	2	12	dA21_valB_pract2	dM_A21_A1_unplB	300	300	0	0	18	0	105	1	blank2r.bmp	0	1	+	0	5	C1r.bmp	505	1	blank2r.bmp	729	1	NPLW	729	6	C2r.bmp	835	1	blank2r.bmp	870	1	miser	870	1	!	1199	1	blank2r.bmp	1329
012318	11:34:35	1	2	5.0.10.0	3	1	dA21_valB_070	d070_A21_A2_pleasB	300	300	0	0	18	1	1211	1	blank2r.bmp	0	1	+	0	6	C2r.bmp	505	1	blank2r.bmp	799	1	DHJF	799	1	blank2r.bmp	870	3	true	870	1	!	1199	1	blank2r.bmp	1329	0	0	0
012318	11:34:35	1	2	5.0.10.0	3	2	dA21_valB_070	d070_A21_A1_unplB	300	300	0	0	23	1	348	1	blank2r.bmp	0	1	+	0	8	C4r.bmp	505	1	blank2r.bmp	799	1	NPLW	799	1	blank2r.bmp	870	2	sick	870	1	!	1199	1	blank2r.bmp	1329	0	0	0
012318	11:34:35	1	2	5.0.10.0	3	3	dA21_valB_070	d070_A21_A2_unplB	300	300	0	0	18	1	265	1	blank2r.bmp	0	1	+	0	2	B2r.bmp	505	1	blank2r.bmp	799	1	DHJF	799	1	blank2r.bmp	870	6	victim	870	1	!	1199	1	blank2r.bmp	1329	0	0	0
012318	11:34:35	1	2	5.0.10.0	3	4	dA21_valB_070	d070_A21_A1_pleasB	300	300	0	0	23	1	139	1	blank2r.bmp	0	1	+	0	1	B1r.bmp	505	1	blank2r.bmp	799	1	NPLW	799	1	blank2r.bmp	870	6	better	870	1	!	1199	1	blank2r.bmp	1329	0	0	0
012318	11:34:35	1	2	5.0.10.0	3	5	dA21_valB_070	d070_A21_A1_unplB	300	300	0	0	23	1	50	1	blank2r.bmp	0	1	+	0	5	C1r.bmp	505	1	blank2r.bmp	799	1	NPLW	799	1	blank2r.bmp	870	4	bruise	870	1	!	1199	1	blank2r.bmp	1329	0	0	0
012318	11:34:35	1	2	5.0.10.0	3	6	dA21_valB_070	d070_A21_A1_pleasB	300	300	0	0	18	0	67	1	blank2r.bmp	0	1	+	0	7	C3r.bmp	505	1	blank2r.bmp	799	1	NPLW	799	1	blank2r.bmp	870	5	best	870	1	!	1199	1	blank2r.bmp	1329	0	0	0
012318	11:34:35	1	2	5.0.10.0	3	7	dA21_valB_070	d070_A21_A1_pleasB	300	300	0	0	23	1	62	1	blank2r.bmp	0	1	+	0	4	B4r.bmp	505	1	blank2r.bmp	799	1	NPLW	799	1	blank2r.bmp	870	4	cute	870	1	!	1199	1	blank2r.bmp	1329	0	0	0
012318	11:34:35	1	2	5.0.10.0	3	8	dA21_valB_070	d070_A21_A2_unplB	300	300	0	0	18	1	143	1	blank2r.bmp	0	1	+	0	3	B3r.bmp	505	1	blank2r.bmp	799	1	DHJF	799	1	blank2r.bmp	870	3	bitter	870	1	!	1199	1	blank2r.bmp	1329	0	0	0
012318	11:34:35	1	2	5.0.10.0	3	9	dA21_valB_070	d070_A21_A2_unplB	300	300	0	0	23	0	147	1	blank2r.bmp	0	1	+	0	1	B1r.bmp	505	1	blank2r.bmp	799	1	DHJF	799	1	blank2r.bmp	870	1	miser	870	1	!	1199	1	blank2r.bmp	1329	0	0	0
012318	11:34:35	1	2	5.0.10.0	3	10	dA21_valB_070	d070_A21_A2_unplB	300	300	0	0	18	1	29	1	blank2r.bmp	0	1	+	0	7	C3r.bmp	505	1	blank2r.bmp	799	1	DHJF	799	1	blank2r.bmp	870	5	crime	870	1	!	1199	1	blank2r.bmp	1329	0	0	0
012318	11:34:35	1	2	5.0.10.0	3	11	dA21_valB_070	d070_A21_A1_pleasB	300	300	0	0	18	0	305	1	blank2r.bmp	0	1	+	0	5	C1r.bmp	505	1	blank2r.bmp	799	1	NPLW	799	1	blank2r.bmp	870	1	kiss	870	1	!	1199	1	blank2r.bmp	1329	0	0	0
012318	11:34:35	1	2	5.0.10.0	3	12	dA21_valB_070	d070_A21_A1_unplB	300	300	0	0	23	1	161	1	blank2r.bmp	0	1	+	0	8	C4r.bmp	505	1	blank2r.bmp	799	1	NPLW	799	1	blank2r.bmp	870	3	bitter	870	1	!	1199	1	blank2r.bmp	1329	0	0	0
012318	11:34:35	1	2	5.0.10.0	3	13	dA21_valB_070	d070_A21_A2_pleasB	300	300	0	0	18	1	196	1	blank2r.bmp	0	1	+	0	3	B3r.bmp	505	1	blank2r.bmp	799	1	DHJF	799	1	blank2r.bmp	870	2	trust	870	1	!	1199	1	blank2r.bmp	1329	0	0	0
012318	11:34:35	1	2	5.0.10.0	3	14	dA21_valB_070	d070_A21_A1_unplB	300	300	0	0	23	1	179	1	blank2r.bmp	0	1	+	0	4	B4r.bmp	505	1	blank2r.bmp	799	1	NPLW	799	1	blank2r.bmp	870	5	crime	870	1	!	1199	1	blank2r.bmp	1329	0	0	0
012318	11:34:35	1	2	5.0.10.0	3	15	dA21_valB_070	d070_A21_A2_unplB	300	300	0	0	18	1	157	1	blank2r.bmp	0	1	+	0	2	B2r.bmp	505	1	blank2r.bmp	799	1	DHJF	799	1	blank2r.bmp	870	1	miser	870	1	!	1199	1	blank2r.bmp	1329	0	0	0
012318	11:34:35	1	2	5.0.10.0	3	16	dA21_valB_070	d070_A21_A2_unplB	300	300	0	0	18	1	280	1	blank2r.bmp	0	1	+	0	6	C2r.bmp	505	1	blank2r.bmp	799	1	DHJF	799	1	blank2r.bmp	870	6	victim	870	1	!	1199	1	blank2r.bmp	1329	0	0	0
012318	11:34:35	1	2	5.0.10.0	3	17	dA21_valB_070	d070_A21_A1_unplB	300	300	0	0	23	1	288	1	blank2r.bmp	0	1	+	0	7	C3r.bmp	505	1	blank2r.bmp	799	1	NPLW	799	1	blank2r.bmp	870	4	bruise	870	1	!	1199	1	blank2r.bmp	1329	0	0	0
012318	11:34:35	1	2	5.0.10.0	3	18	dA21_valB_070	d070_A21_A2_pleasB	300	300	0	0	18	1	169	1	blank2r.bmp	0	1	+	0	2	B2r.bmp	505	1	blank2r.bmp	799	1	DHJF	799	1	blank2r.bmp	870	1	kiss	870	1	!	1199	1	blank2r.bmp	1329	0	0	0
012318	11:34:35	1	2	5.0.10.0	3	19	dA21_valB_070	d070_A21_A2_pleasB	300	300	0	0	18	1	121	1	blank2r.bmp	0	1	+	0	4	B4r.bmp	505	1	blank2r.bmp	799	1	DHJF	799	1	blank2r.bmp	870	4	cute	870	1	!	1199	1	blank2r.bmp	1329	0	0	0
012318	11:34:35	1	2	5.0.10.0	3	20	dA21_valB_070	d070_A21_A1_pleasB	300	300	0	0	23	1	184	1	blank2r.bmp	0	1	+	0	1	B1r.bmp	505	1	blank2r.bmp	799	1	NPLW	799	1	blank2r.bmp	870	5	best	870	1	!	1199	1	blank2r.bmp	1329	0	0	0
012318	11:34:35	1	2	5.0.10.0	3	21	dA21_valB_070	d070_A21_A1_unplB	300	300	0	0	23	1	135	1	blank2r.bmp	0	1	+	0	5	C1r.bmp	505	1	blank2r.bmp	799	1	NPLW	799	1	blank2r.bmp	870	2	sick	870	1	!	1199	1	blank2r.bmp	1329	0	0	0
012318	11:34:35	1	2	5.0.10.0	3	22	dA21_valB_070	d070_A21_A2_unplB	300	300	0	0	18	1	1593	1	blank2r.bmp	0	1	+	0	8	C4r.bmp	505	1	blank2r.bmp	799	1	DHJF	799	1	blank2r.bmp	870	2	sick	870	1	!	1199	1	blank2r.bmp	1329	0	0	0
012318	11:34:35	1	2	5.0.10.0	3	23	dA21_valB_070	d070_A21_A1_pleasB	300	300	0	0	23	1	147	1	blank2r.bmp	0	1	+	0	3	B3r.bmp	505	1	blank2r.bmp	799	1	NPLW	799	1	blank2r.bmp	870	3	true	870	1	!	1199	1	blank2r.bmp	1329	0	0	0
012318	11:34:35	1	2	5.0.10.0	3	24	dA21_valB_070	d070_A21_A1_unplB	300	300	0	0	23	1	181	1	blank2r.bmp	0	1	+	0	6	C2r.bmp	505	1	blank2r.bmp	799	1	NPLW	799	1	blank2r.bmp	870	5	crime	870	1	!	1199	1	blank2r.bmp	1329	0	0	0
012318	11:34:35	1	2	5.0.10.0	3	25	dA21_valB_070	d070_A21_A2_pleasB	300	300	0	0	18	1	257	1	blank2r.bmp	0	1	+	0	6	C2r.bmp	505	1	blank2r.bmp	799	1	DHJF	799	1	blank2r.bmp	870	2	trust	870	1	!	1199	1	blank2r.bmp	1329	0	0	0
012318	11:34:35	1	2	5.0.10.0	3	26	dA21_valB_070	d070_A21_A2_unplB	300	300	0	0	18	1	97	1	blank2r.bmp	0	1	+	0	8	C4r.bmp	505	1	blank2r.bmp	799	1	DHJF	799	1	blank2r.bmp	870	3	bitter	870	1	!	1199	1	blank2r.bmp	1329	0	0	0
012318	11:34:35	1	2	5.0.10.0	3	27	dA21_valB_070	d070_A21_A2_unplB	300	300	0	0	18	1	271	1	blank2r.bmp	0	1	+	0	3	B3r.bmp	505	1	blank2r.bmp	799	1	DHJF	799	1	blank2r.bmp	870	4	bruise	870	1	!	1199	1	blank2r.bmp	1329	0	0	0
012318	11:34:35	1	2	5.0.10.0	3	28	dA21_valB_070	d070_A21_A2_pleasB	300	300	0	0	18	1	599	1	blank2r.bmp	0	1	+	0	7	C3r.bmp	505	1	blank2r.bmp	799	1	DHJF	799	1	blank2r.bmp	870	6	better	870	1	!	1199	1	blank2r.bmp	1329	0	0	0
012318	11:34:35	1	2	5.0.10.0	3	29	dA21_valB_070	d070_A21_A1_pleasB	300	300	0	0	23	1	287	1	blank2r.bmp	0	1	+	0	5	C1r.bmp	505	1	blank2r.bmp	799	1	NPLW	799	1	blank2r.bmp	870	5	best	870	1	!	1199	1	blank2r.bmp	1329	0	0	0
012318	11:34:35	1	2	5.0.10.0	3	30	dA21_valB_070	d070_A21_A1_pleasB	300	300	0	0	23	1	238	1	blank2r.bmp	0	1	+	0	2	B2r.bmp	505	1	blank2r.bmp	799	1	NPLW	799	1	blank2r.bmp	870	6	better	870	1	!	1199	1	blank2r.bmp	1329	0	0	0
012318	11:34:35	1	2	5.0.10.0	3	31	dA21_valB_070	d070_A21_A1_unplB	300	300	0	0	18	0	191	1	blank2r.bmp	0	1	+	0	4	B4r.bmp	505	1	blank2r.bmp	799	1	NPLW	799	1	blank2r.bmp	870	6	victim	870	1	!	1199	1	blank2r.bmp	1329	0	0	0
012318	11:34:35	1	2	5.0.10.0	3	32	dA21_valB_070	d070_A21_A1_unplB	300	300	0	0	23	1	241	1	blank2r.bmp	0	1	+	0	1	B1r.bmp	505	1	blank2r.bmp	799	1	NPLW	799	1	blank2r.bmp	870	1	miser	870	1	!	1199	1	blank2r.bmp	1329	0	0	0
012318	11:34:35	1	2	5.0.10.0	3	33	dA21_valB_070	d070_A21_A1_unplB	300	300	0	0	18	0	579	1	blank2r.bmp	0	1	+	0	3	B3r.bmp	505	1	blank2r.bmp	799	1	NPLW	799	1	blank2r.bmp	870	4	bruise	870	1	!	1199	1	blank2r.bmp	1329	0	0	0
012318	11:34:35	1	2	5.0.10.0	3	34	dA21_valB_070	d070_A21_A2_pleasB	300	300	0	0	23	0	882	1	blank2r.bmp	0	1	+	0	8	C4r.bmp	505	1	blank2r.bmp	799	1	DHJF	799	1	blank2r.bmp	870	2	trust	870	1	!	1199	1	blank2r.bmp	1329	0	0	0
012318	11:34:35	1	2	5.0.10.0	3	35	dA21_valB_070	d070_A21_A2_unplB	300	300	0	0	18	1	94	1	blank2r.bmp	0	1	+	0	6	C2r.bmp	505	1	blank2r.bmp	799	1	DHJF	799	1	blank2r.bmp	870	5	crime	870	1	!	1199	1	blank2r.bmp	1329	0	0	0
012318	11:34:35	1	2	5.0.10.0	3	36	dA21_valB_070	d070_A21_A2_unplB	300	300	0	0	18	1	227	1	blank2r.bmp	0	1	+	0	4	B4r.bmp	505	1	blank2r.bmp	799	1	DHJF	799	1	blank2r.bmp	870	2	sick	870	1	!	1199	1	blank2r.bmp	1329	0	0	0
012318	11:34:35	1	2	5.0.10.0	3	37	dA21_valB_070	d070_A21_A1_pleasB	300	300	0	0	23	1	188	1	blank2r.bmp	0	1	+	0	2	B2r.bmp	505	1	blank2r.bmp	799	1	NPLW	799	1	blank2r.bmp	870	1	kiss	870	1	!	1199	1	blank2r.bmp	1329	0	0	0
012318	11:34:35	1	2	5.0.10.0	3	38	dA21_valB_070	d070_A21_A1_pleasB	300	300	0	0	23	1	1554	1	blank2r.bmp	0	1	+	0	5	C1r.bmp	505	1	blank2r.bmp	799	1	NPLW	799	1	blank2r.bmp	870	3	true	870	1	!	1199	1	blank2r.bmp	1329	0	0	0
012318	11:34:35	1	2	5.0.10.0	3	39	dA21_valB_070	d070_A21_A2_pleasB	300	300	0	0	18	1	166	1	blank2r.bmp	0	1	+	0	7	C3r.bmp	505	1	blank2r.bmp	799	1	DHJF	799	1	blank2r.bmp	870	4	cute	870	1	!	1199	1	blank2r.bmp	1329	0	0	0
012318	11:34:35	1	2	5.0.10.0	3	40	dA21_valB_070	d070_A21_A2_pleasB	300	300	0	0	18	1	233	1	blank2r.bmp	0	1	+	0	1	B1r.bmp	505	1	blank2r.bmp	799	1	DHJF	799	1	blank2r.bmp	870	3	true	870	1	!	1199	1	blank2r.bmp	1329	0	0	0
012318	11:34:35	1	2	5.0.10.0	3	41	dA21_valB_070	d070_A21_A2_pleasB	300	300	0	0	23	0	662	1	blank2r.bmp	0	1	+	0	6	C2r.bmp	505	1	blank2r.bmp	799	1	DHJF	799	1	blank2r.bmp	870	6	better	870	1	!	1199	1	blank2r.bmp	1329	0	0	0
012318	11:34:35	1	2	5.0.10.0	3	42	dA21_valB_070	d070_A21_A2_pleasB	300	300	0	0	18	1	516	1	blank2r.bmp	0	1	+	0	8	C4r.bmp	505	1	blank2r.bmp	799	1	DHJF	799	1	blank2r.bmp	870	1	kiss	870	1	!	1199	1	blank2r.bmp	1329	0	0	0
012318	11:34:35	1	2	5.0.10.0	3	43	dA21_valB_070	d070_A21_A2_unplB	300	300	0	0	23	0	608	1	blank2r.bmp	0	1	+	0	7	C3r.bmp	505	1	blank2r.bmp	799	1	DHJF	799	1	blank2r.bmp	870	6	victim	870	1	!	1199	1	blank2r.bmp	1329	0	0	0
012318	11:34:35	1	2	5.0.10.0	3	44	dA21_valB_070	d070_A21_A1_unplB	300	300	0	0	23	1	266	1	blank2r.bmp	0	1	+	0	1	B1r.bmp	505	1	blank2r.bmp	799	1	NPLW	799	1	blank2r.bmp	870	1	miser	870	1	!	1199	1	blank2r.bmp	1329	0	0	0
012318	11:34:35	1	2	5.0.10.0	3	45	dA21_valB_070	d070_A21_A2_pleasB	300	300	0	0	18	1	408	1	blank2r.bmp	0	1	+	0	2	B2r.bmp	505	1	blank2r.bmp	799	1	DHJF	799	1	blank2r.bmp	870	4	cute	870	1	!	1199	1	blank2r.bmp	1329	0	0	0
012318	11:34:35	1	2	5.0.10.0	3	46	dA21_valB_070	d070_A21_A1_unplB	300	300	0	0	23	1	451	1	blank2r.bmp	0	1	+	0	4	B4r.bmp	505	1	blank2r.bmp	799	1	NPLW	799	1	blank2r.bmp	870	3	bitter	870	1	!	1199	1	blank2r.bmp	1329	0	0	0
012318	11:34:35	1	2	5.0.10.0	3	47	dA21_valB_070	d070_A21_A1_pleasB	300	300	0	0	23	1	427	1	blank2r.bmp	0	1	+	0	3	B3r.bmp	505	1	blank2r.bmp	799	1	NPLW	799	1	blank2r.bmp	870	5	best	870	1	!	1199	1	blank2r.bmp	1329	0	0	0
012318	11:34:35	1	2	5.0.10.0	3	48	dA21_valB_070	d070_A21_A1_pleasB	300	300	0	0	23	1	294	1	blank2r.bmp	0	1	+	0	5	C1r.bmp	505	1	blank2r.bmp	799	1	NPLW	799	1	blank2r.bmp	870	2	trust	870	1	!	1199	1	blank2r.bmp	1329	0	0	0
012318	11:34:35	1	2	5.0.10.0	4	1	dA21_valB_070	d070_A21_A1_pleasB	300	300	0	0	18	0	126	1	blank2r.bmp	0	1	+	0	2	B2r.bmp	505	1	blank2r.bmp	799	1	NPLW	799	1	blank2r.bmp	870	3	true	870	1	!	1199	1	blank2r.bmp	1329	0	0	0
012318	11:34:35	1	2	5.0.10.0	4	2	dA21_valB_070	d070_A21_A1_pleasB	300	300	0	0	23	1	188	1	blank2r.bmp	0	1	+	0	8	C4r.bmp	505	1	blank2r.bmp	799	1	NPLW	799	1	blank2r.bmp	870	1	kiss	870	1	!	1199	1	blank2r.bmp	1329	0	0	0
012318	11:34:35	1	2	5.0.10.0	4	3	dA21_valB_070	d070_A21_A1_pleasB	300	300	0	0	23	1	251	1	blank2r.bmp	0	1	+	0	6	C2r.bmp	505	1	blank2r.bmp	799	1	NPLW	799	1	blank2r.bmp	870	5	best	870	1	!	1199	1	blank2r.bmp	1329	0	0	0
012318	11:34:35	1	2	5.0.10.0	4	4	dA21_valB_070	d070_A21_A2_pleasB	300	300	0	0	18	1	185	1	blank2r.bmp	0	1	+	0	7	C3r.bmp	505	1	blank2r.bmp	799	1	DHJF	799	1	blank2r.bmp	870	6	better	870	1	!	1199	1	blank2r.bmp	1329	0	0	0
012318	11:34:35	1	2	5.0.10.0	4	5	dA21_valB_070	d070_A21_A1_pleasB	300	300	0	0	18	0	312	1	blank2r.bmp	0	1	+	0	5	C1r.bmp	505	1	blank2r.bmp	799	1	NPLW	799	1	blank2r.bmp	870	2	trust	870	1	!	1199	1	blank2r.bmp	1329	0	0	0
012318	11:34:35	1	2	5.0.10.0	4	6	dA21_valB_070	d070_A21_A1_unplB	300	300	0	0	23	1	404	1	blank2r.bmp	0	1	+	0	3	B3r.bmp	505	1	blank2r.bmp	799	1	NPLW	799	1	blank2r.bmp	870	5	crime	870	1	!	1199	1	blank2r.bmp	1329	0	0	0
012318	11:34:35	1	2	5.0.10.0	4	7	dA21_valB_070	d070_A21_A2_pleasB	300	300	0	0	18	1	119	1	blank2r.bmp	0	1	+	0	1	B1r.bmp	505	1	blank2r.bmp	799	1	DHJF	799	1	blank2r.bmp	870	4	cute	870	1	!	1199	1	blank2r.bmp	1329	0	0	0
012318	11:34:35	1	2	5.0.10.0	4	8	dA21_valB_070	d070_A21_A1_pleasB	300	300	0	0	23	1	112	1	blank2r.bmp	0	1	+	0	4	B4r.bmp	505	1	blank2r.bmp	799	1	NPLW	799	1	blank2r.bmp	870	1	kiss	870	1	!	1199	1	blank2r.bmp	1329	0	0	0
012318	11:34:35	1	2	5.0.10.0	4	9	dA21_valB_070	d070_A21_A1_unplB	300	300	0	0	23	1	278	1	blank2r.bmp	0	1	+	0	4	B4r.bmp	505	1	blank2r.bmp	799	1	NPLW	799	1	blank2r.bmp	870	2	sick	870	1	!	1199	1	blank2r.bmp	1329	0	0	0
012318	11:34:35	1	2	5.0.10.0	4	10	dA21_valB_070	d070_A21_A2_unplB	300	300	0	0	18	1	150	1	blank2r.bmp	0	1	+	0	6	C2r.bmp	505	1	blank2r.bmp	799	1	DHJF	799	1	blank2r.bmp	870	3	bitter	870	1	!	1199	1	blank2r.bmp	1329	0	0	0
012318	11:34:35	1	2	5.0.10.0	4	11	dA21_valB_070	d070_A21_A2_unplB	300	300	0	0	18	1	200	1	blank2r.bmp	0	1	+	0	5	C1r.bmp	505	1	blank2r.bmp	799	1	DHJF	799	1	blank2r.bmp	870	1	miser	870	1	!	1199	1	blank2r.bmp	1329	0	0	0
012318	11:34:35	1	2	5.0.10.0	4	12	dA21_valB_070	d070_A21_A2_unplB	300	300	0	0	18	1	223	1	blank2r.bmp	0	1	+	0	8	C4r.bmp	505	1	blank2r.bmp	799	1	DHJF	799	1	blank2r.bmp	870	6	victim	870	1	!	1199	1	blank2r.bmp	1329	0	0	0
012318	11:34:35	1	2	5.0.10.0	4	13	dA21_valB_070	d070_A21_A2_pleasB	300	300	0	0	18	1	327	1	blank2r.bmp	0	1	+	0	2	B2r.bmp	505	1	blank2r.bmp	799	1	DHJF	799	1	blank2r.bmp	870	3	true	870	1	!	1199	1	blank2r.bmp	1329	0	0	0
012318	11:34:35	1	2	5.0.10.0	4	14	dA21_valB_070	d070_A21_A1_pleasB	300	300	0	0	23	1	233	1	blank2r.bmp	0	1	+	0	7	C3r.bmp	505	1	blank2r.bmp	799	1	NPLW	799	1	blank2r.bmp	870	6	better	870	1	!	1199	1	blank2r.bmp	1329	0	0	0
012318	11:34:35	1	2	5.0.10.0	4	15	dA21_valB_070	d070_A21_A1_unplB	300	300	0	0	23	1	249	1	blank2r.bmp	0	1	+	0	1	B1r.bmp	505	1	blank2r.bmp	799	1	NPLW	799	1	blank2r.bmp	870	4	bruise	870	1	!	1199	1	blank2r.bmp	1329	0	0	0
012318	11:34:35	1	2	5.0.10.0	4	16	dA21_valB_070	d070_A21_A1_unplB	300	300	0	0	23	1	304	1	blank2r.bmp	0	1	+	0	3	B3r.bmp	505	1	blank2r.bmp	799	1	NPLW	799	1	blank2r.bmp	870	3	bitter	870	1	!	1199	1	blank2r.bmp	1329	0	0	0
012318	11:34:35	1	2	5.0.10.0	4	17	dA21_valB_070	d070_A21_A1_pleasB	300	300	0	0	23	1	203	1	blank2r.bmp	0	1	+	0	7	C3r.bmp	505	1	blank2r.bmp	799	1	NPLW	799	1	blank2r.bmp	870	2	trust	870	1	!	1199	1	blank2r.bmp	1329	0	0	0
012318	11:34:35	1	2	5.0.10.0	4	18	dA21_valB_070	d070_A21_A1_unplB	300	300	0	0	23	1	267	1	blank2r.bmp	0	1	+	0	3	B3r.bmp	505	1	blank2r.bmp	799	1	NPLW	799	1	blank2r.bmp	870	1	miser	870	1	!	1199	1	blank2r.bmp	1329	0	0	0
012318	11:34:35	1	2	5.0.10.0	4	19	dA21_valB_070	d070_A21_A2_pleasB	300	300	0	0	18	1	265	1	blank2r.bmp	0	1	+	0	8	C4r.bmp	505	1	blank2r.bmp	799	1	DHJF	799	1	blank2r.bmp	870	5	best	870	1	!	1199	1	blank2r.bmp	1329	0	0	0
012318	11:34:35	1	2	5.0.10.0	4	20	dA21_valB_070	d070_A21_A2_unplB	300	300	0	0	18	1	259	1	blank2r.bmp	0	1	+	0	5	C1r.bmp	505	1	blank2r.bmp	799	1	DHJF	799	1	blank2r.bmp	870	6	victim	870	1	!	1199	1	blank2r.bmp	1329	0	0	0
012318	11:34:35	1	2	5.0.10.0	4	21	dA21_valB_070	d070_A21_A1_unplB	300	300	0	0	18	0	172	1	blank2r.bmp	0	1	+	0	6	C2r.bmp	505	1	blank2r.bmp	799	1	NPLW	799	1	blank2r.bmp	870	5	crime	870	1	!	1199	1	blank2r.bmp	1329	0	0	0
012318	11:34:35	1	2	5.0.10.0	4	22	dA21_valB_070	d070_A21_A1_unplB	300	300	0	0	23	1	377	1	blank2r.bmp	0	1	+	0	2	B2r.bmp	505	1	blank2r.bmp	799	1	NPLW	799	1	blank2r.bmp	870	2	sick	870	1	!	1199	1	blank2r.bmp	1329	0	0	0
012318	11:34:35	1	2	5.0.10.0	4	23	dA21_valB_070	d070_A21_A1_pleasB	300	300	0	0	23	1	834	1	blank2r.bmp	0	1	+	0	4	B4r.bmp	505	1	blank2r.bmp	799	1	NPLW	799	1	blank2r.bmp	870	4	cute	870	1	!	1199	1	blank2r.bmp	1329	0	0	0
012318	11:34:35	1	2	5.0.10.0	4	24	dA21_valB_070	d070_A21_A2_unplB	300	300	0	0	18	1	193	1	blank2r.bmp	0	1	+	0	1	B1r.bmp	505	1	blank2r.bmp	799	1	DHJF	799	1	blank2r.bmp	870	4	bruise	870	1	!	1199	1	blank2r.bmp	1329	0	0	0
012318	11:34:35	1	2	5.0.10.0	4	25	dA21_valB_070	d070_A21_A2_pleasB	300	300	0	0	18	1	254	1	blank2r.bmp	0	1	+	0	6	C2r.bmp	505	1	blank2r.bmp	799	1	DHJF	799	1	blank2r.bmp	870	3	true	870	1	!	1199	1	blank2r.bmp	1329	0	0	0
012318	11:34:35	1	2	5.0.10.0	4	26	dA21_valB_070	d070_A21_A1_pleasB	300	300	0	0	23	1	162	1	blank2r.bmp	0	1	+	0	8	C4r.bmp	505	1	blank2r.bmp	799	1	NPLW	799	1	blank2r.bmp	870	2	trust	870	1	!	1199	1	blank2r.bmp	1329	0	0	0
012318	11:34:35	1	2	5.0.10.0	4	27	dA21_valB_070	d070_A21_A1_pleasB	300	300	0	0	23	1	335	1	blank2r.bmp	0	1	+	0	1	B1r.bmp	505	1	blank2r.bmp	799	1	NPLW	799	1	blank2r.bmp	870	1	kiss	870	1	!	1199	1	blank2r.bmp	1329	0	0	0
012318	11:34:35	1	2	5.0.10.0	4	28	dA21_valB_070	d070_A21_A1_unplB	300	300	0	0	18	0	1048	1	blank2r.bmp	0	1	+	0	2	B2r.bmp	505	1	blank2r.bmp	799	1	NPLW	799	1	blank2r.bmp	870	1	miser	870	1	!	1199	1	blank2r.bmp	1329	0	0	0
012318	11:34:35	1	2	5.0.10.0	4	29	dA21_valB_070	d070_A21_A2_pleasB	300	300	0	0	18	1	356	1	blank2r.bmp	0	1	+	0	5	C1r.bmp	505	1	blank2r.bmp	799	1	DHJF	799	1	blank2r.bmp	870	4	cute	870	1	!	1199	1	blank2r.bmp	1329	0	0	0
012318	11:34:35	1	2	5.0.10.0	4	30	dA21_valB_070	d070_A21_A2_pleasB	300	300	0	0	18	1	348	1	blank2r.bmp	0	1	+	0	7	C3r.bmp	505	1	blank2r.bmp	799	1	DHJF	799	1	blank2r.bmp	870	6	better	870	1	!	1199	1	blank2r.bmp	1329	0	0	0
012318	11:34:35	1	2	5.0.10.0	4	31	dA21_valB_070	d070_A21_A2_unplB	300	300	0	0	18	1	278	1	blank2r.bmp	0	1	+	0	3	B3r.bmp	505	1	blank2r.bmp	799	1	DHJF	799	1	blank2r.bmp	870	5	crime	870	1	!	1199	1	blank2r.bmp	1329	0	0	0
012318	11:34:35	1	2	5.0.10.0	4	32	dA21_valB_070	d070_A21_A2_pleasB	300	300	0	0	18	1	360	1	blank2r.bmp	0	1	+	0	4	B4r.bmp	505	1	blank2r.bmp	799	1	DHJF	799	1	blank2r.bmp	870	5	best	870	1	!	1199	1	blank2r.bmp	1329	0	0	0
012318	11:34:35	1	2	5.0.10.0	4	33	dA21_valB_070	d070_A21_A2_pleasB	300	300	0	0	18	1	270	1	blank2r.bmp	0	1	+	0	7	C3r.bmp	505	1	blank2r.bmp	799	1	DHJF	799	1	blank2r.bmp	870	3	true	870	1	!	1199	1	blank2r.bmp	1329	0	0	0
012318	11:34:35	1	2	5.0.10.0	4	34	dA21_valB_070	d070_A21_A2_unplB	300	300	0	0	23	0	352	1	blank2r.bmp	0	1	+	0	6	C2r.bmp	505	1	blank2r.bmp	799	1	DHJF	799	1	blank2r.bmp	870	4	bruise	870	1	!	1199	1	blank2r.bmp	1329	0	0	0
012318	11:34:35	1	2	5.0.10.0	4	35	dA21_valB_070	d070_A21_A2_unplB	300	300	0	0	23	0	1334	1	blank2r.bmp	0	1	+	0	1	B1r.bmp	505	1	blank2r.bmp	799	1	DHJF	799	1	blank2r.bmp	870	3	bitter	870	1	!	1199	1	blank2r.bmp	1329	0	0	0
012318	11:34:35	1	2	5.0.10.0	4	36	dA21_valB_070	d070_A21_A2_pleasB	300	300	0	0	18	1	302	1	blank2r.bmp	0	1	+	0	8	C4r.bmp	505	1	blank2r.bmp	799	1	DHJF	799	1	blank2r.bmp	870	4	cute	870	1	!	1199	1	blank2r.bmp	1329	0	0	0
012318	11:34:35	1	2	5.0.10.0	4	37	dA21_valB_070	d070_A21_A2_unplB	300	300	0	0	23	0	1383	1	blank2r.bmp	0	1	+	0	5	C1r.bmp	505	1	blank2r.bmp	799	1	DHJF	799	1	blank2r.bmp	870	6	victim	870	1	!	1199	1	blank2r.bmp	1329	0	0	0
012318	11:34:35	1	2	5.0.10.0	4	38	dA21_valB_070	d070_A21_A2_unplB	300	300	0	0	18	1	262	1	blank2r.bmp	0	1	+	0	2	B2r.bmp	505	1	blank2r.bmp	799	1	DHJF	799	1	blank2r.bmp	870	2	sick	870	1	!	1199	1	blank2r.bmp	1329	0	0	0
012318	11:34:35	1	2	5.0.10.0	4	39	dA21_valB_070	d070_A21_A2_unplB	300	300	0	0	18	1	208	1	blank2r.bmp	0	1	+	0	3	B3r.bmp	505	1	blank2r.bmp	799	1	DHJF	799	1	blank2r.bmp	870	1	miser	870	1	!	1199	1	blank2r.bmp	1329	0	0	0
012318	11:34:35	1	2	5.0.10.0	4	40	dA21_valB_070	d070_A21_A1_pleasB	300	300	0	0	18	0	269	1	blank2r.bmp	0	1	+	0	4	B4r.bmp	505	1	blank2r.bmp	799	1	NPLW	799	1	blank2r.bmp	870	5	best	870	1	!	1199	1	blank2r.bmp	1329	0	0	0
012318	11:34:35	1	2	5.0.10.0	4	41	dA21_valB_070	d070_A21_A1_unplB	300	300	0	0	23	1	274	1	blank2r.bmp	0	1	+	0	6	C2r.bmp	505	1	blank2r.bmp	799	1	NPLW	799	1	blank2r.bmp	870	5	crime	870	1	!	1199	1	blank2r.bmp	1329	0	0	0
012318	11:34:35	1	2	5.0.10.0	4	42	dA21_valB_070	d070_A21_A2_pleasB	300	300	0	0	18	1	153	1	blank2r.bmp	0	1	+	0	2	B2r.bmp	505	1	blank2r.bmp	799	1	DHJF	799	1	blank2r.bmp	870	1	kiss	870	1	!	1199	1	blank2r.bmp	1329	0	0	0
012318	11:34:35	1	2	5.0.10.0	4	43	dA21_valB_070	d070_A21_A2_unplB	300	300	0	0	18	1	280	1	blank2r.bmp	0	1	+	0	3	B3r.bmp	505	1	blank2r.bmp	799	1	DHJF	799	1	blank2r.bmp	870	3	bitter	870	1	!	1199	1	blank2r.bmp	1329	0	0	0
012318	11:34:35	1	2	5.0.10.0	4	44	dA21_valB_070	d070_A21_A1_unplB	300	300	0	0	23	1	325	1	blank2r.bmp	0	1	+	0	7	C3r.bmp	505	1	blank2r.bmp	799	1	NPLW	799	1	blank2r.bmp	870	6	victim	870	1	!	1199	1	blank2r.bmp	1329	0	0	0
012318	11:34:35	1	2	5.0.10.0	4	45	dA21_valB_070	d070_A21_A1_unplB	300	300	0	0	23	1	338	1	blank2r.bmp	0	1	+	0	5	C1r.bmp	505	1	blank2r.bmp	799	1	NPLW	799	1	blank2r.bmp	870	2	sick	870	1	!	1199	1	blank2r.bmp	1329	0	0	0
012318	11:34:35	1	2	5.0.10.0	4	46	dA21_valB_070	d070_A21_A2_pleasB	300	300	0	0	18	1	218	1	blank2r.bmp	0	1	+	0	8	C4r.bmp	505	1	blank2r.bmp	799	1	DHJF	799	1	blank2r.bmp	870	6	better	870	1	!	1199	1	blank2r.bmp	1329	0	0	0
012318	11:34:35	1	2	5.0.10.0	4	47	dA21_valB_070	d070_A21_A1_unplB	300	300	0	0	23	1	345	1	blank2r.bmp	0	1	+	0	1	B1r.bmp	505	1	blank2r.bmp	799	1	NPLW	799	1	blank2r.bmp	870	4	bruise	870	1	!	1199	1	blank2r.bmp	1329	0	0	0
012318	11:34:35	1	2	5.0.10.0	4	48	dA21_valB_070	d070_A21_A1_pleasB	300	300	0	0	18	0	127	1	blank2r.bmp	0	1	+	0	4	B4r.bmp	505	1	blank2r.bmp	799	1	NPLW	799	1	blank2r.bmp	870	2	trust	870	1	!	1199	1	blank2r.bmp	1329	0	0	0
012318	11:34:35	1	2	5.0.10.0	5	1	dB21_valA_pract1	dL_B21_B2_pleasA	300	300	0	0	18	1	86	1	blank2r.bmp	0	1	+	0	3	B3r.bmp	505	1	blank2r.bmp	693	1	GKQX	693	6	C2r.bmp	835	1	blank2r.bmp	870	3	play	870	1	!	1199	1	blank2r.bmp	1329
012318	11:34:35	1	2	5.0.10.0	5	2	dB21_valA_pract1	dL_B21_B2_unplA	300	300	0	0	18	1	17	1	blank2r.bmp	0	1	+	0	6	C2r.bmp	505	1	blank2r.bmp	693	1	GKQX	693	2	B2r.bmp	835	1	blank2r.bmp	870	4	oaf	870	1	!	1199	1	blank2r.bmp	1329
012318	11:34:35	1	2	5.0.10.0	5	3	dB21_valA_pract1	dL_B21_B1_pleasA	300	300	0	0	23	1	36	1	blank2r.bmp	0	1	+	0	1	B1r.bmp	505	1	blank2r.bmp	693	1	BMVZ	693	4	B4r.bmp	835	1	blank2r.bmp	870	2	joy	870	1	!	1199	1	blank2r.bmp	1329
012318	11:34:35	1	2	5.0.10.0	5	4	dB21_valA_pract1	dL_B21_B2_pleasA	300	300	0	0	18	1	203	1	blank2r.bmp	0	1	+	0	4	B4r.bmp	505	1	blank2r.bmp	693	1	GKQX	693	5	C1r.bmp	835	1	blank2r.bmp	870	6	fond	870	1	!	1199	1	blank2r.bmp	1329
012318	11:34:35	1	2	5.0.10.0	5	5	dB21_valA_pract1	dL_B21_B1_pleasA	300	300	0	0	23	1	117	1	blank2r.bmp	0	1	+	0	5	C1r.bmp	505	1	blank2r.bmp	693	1	BMVZ	693	7	C3r.bmp	835	1	blank2r.bmp	870	4	happy	870	1	!	1199	1	blank2r.bmp	1329
012318	11:34:35	1	2	5.0.10.0	5	6	dB21_valA_pract1	dL_B21_B1_unplA	300	300	0	0	23	1	83	1	blank2r.bmp	0	1	+	0	7	C3r.bmp	505	1	blank2r.bmp	693	1	BMVZ	693	1	B1r.bmp	835	1	blank2r.bmp	870	1	flaw	870	1	!	1199	1	blank2r.bmp	1329
012318	11:34:35	1	2	5.0.10.0	5	7	dB21_valA_pract1	dL_B21_B2_unplA	300	300	0	0	18	1	46	1	blank2r.bmp	0	1	+	0	2	B2r.bmp	505	1	blank2r.bmp	693	1	GKQX	693	3	B3r.bmp	835	1	blank2r.bmp	870	6	old	870	1	!	1199	1	blank2r.bmp	1329
012318	11:34:35	1	2	5.0.10.0	5	8	dB21_valA_pract1	dL_B21_B1_unplA	300	300	0	0	23	1	143	1	blank2r.bmp	0	1	+	0	8	C4r.bmp	505	1	blank2r.bmp	693	1	BMVZ	693	8	C4r.bmp	835	1	blank2r.bmp	870	5	flop	870	1	!	1199	1	blank2r.bmp	1329
012318	11:34:35	1	2	5.0.10.0	5	9	dB21_valA_pract1	dL_B21_B1_pleasA	300	300	0	0	23	1	185	1	blank2r.bmp	0	1	+	0	1	B1r.bmp	505	1	blank2r.bmp	693	1	BMVZ	693	6	C2r.bmp	835	1	blank2r.bmp	870	1	dandy	870	1	!	1199	1	blank2r.bmp	1329
012318	11:34:35	1	2	5.0.10.0	5	10	dB21_valA_pract1	dL_B21_B2_pleasA	300	300	0	0	18	1	151	1	blank2r.bmp	0	1	+	0	8	C4r.bmp	505	1	blank2r.bmp	693	1	GKQX	693	3	B3r.bmp	835	1	blank2r.bmp	870	5	jolly	870	1	!	1199	1	blank2r.bmp	1329
012318	11:34:35	1	2	5.0.10.0	5	11	dB21_valA_pract1	dL_B21_B1_unplA	300	300	0	0	23	1	124	1	blank2r.bmp	0	1	+	0	6	C2r.bmp	505	1	blank2r.bmp	693	1	BMVZ	693	2	B2r.bmp	835	1	blank2r.bmp	870	2	folly	870	1	!	1199	1	blank2r.bmp	1329
012318	11:34:35	1	2	5.0.10.0	5	12	dB21_valA_pract1	dL_B21_B2_unplA	300	300	0	0	18	1	65	1	blank2r.bmp	0	1	+	0	3	B3r.bmp	505	1	blank2r.bmp	693	1	GKQX	693	5	C1r.bmp	835	1	blank2r.bmp	870	3	flood	870	1	!	1199	1	blank2r.bmp	1329
012318	11:34:35	1	2	5.0.10.0	6	1	dB21_valA_pract2	dM_B21_B2_unplA	300	300	0	0	18	1	8	1	blank2r.bmp	0	1	+	0	5	C1r.bmp	505	1	blank2r.bmp	729	1	GKQX	729	7	C3r.bmp	835	1	blank2r.bmp	870	6	old	870	1	!	1199	1	blank2r.bmp	1329
012318	11:34:35	1	2	5.0.10.0	6	2	dB21_valA_pract2	dM_B21_B1_unplA	300	300	0	0	23	1	43	1	blank2r.bmp	0	1	+	0	7	C3r.bmp	505	1	blank2r.bmp	729	1	BMVZ	729	4	B4r.bmp	835	1	blank2r.bmp	870	3	flood	870	1	!	1199	1	blank2r.bmp	1329
012318	11:34:35	1	2	5.0.10.0	6	3	dB21_valA_pract2	dM_B21_B2_pleasA	300	300	0	0	18	1	1081	1	blank2r.bmp	0	1	+	0	4	B4r.bmp	505	1	blank2r.bmp	729	1	GKQX	729	1	B1r.bmp	835	1	blank2r.bmp	870	2	joy	870	1	!	1199	1	blank2r.bmp	1329
012318	11:34:35	1	2	5.0.10.0	6	4	dB21_valA_pract2	dM_B21_B1_pleasA	300	300	0	0	23	1	122	1	blank2r.bmp	0	1	+	0	2	B2r.bmp	505	1	blank2r.bmp	729	1	BMVZ	729	8	C4r.bmp	835	1	blank2r.bmp	870	5	jolly	870	1	!	1199	1	blank2r.bmp	1329
012318	11:34:35	1	2	5.0.10.0	6	5	dB21_valA_pract2	dM_B21_B1_unplA	300	300	0	0	23	1	141	1	blank2r.bmp	0	1	+	0	4	B4r.bmp	505	1	blank2r.bmp	729	1	BMVZ	729	3	B3r.bmp	835	1	blank2r.bmp	870	1	flaw	870	1	!	1199	1	blank2r.bmp	1329
012318	11:34:35	1	2	5.0.10.0	6	6	dB21_valA_pract2	dM_B21_B1_pleasA	300	300	0	0	23	1	219	1	blank2r.bmp	0	1	+	0	5	C1r.bmp	505	1	blank2r.bmp	729	1	BMVZ	729	4	B4r.bmp	835	1	blank2r.bmp	870	4	happy	870	1	!	1199	1	blank2r.bmp	1329
012318	11:34:35	1	2	5.0.10.0	6	7	dB21_valA_pract2	dM_B21_B1_pleasA	300	300	0	0	23	1	233	1	blank2r.bmp	0	1	+	0	7	C3r.bmp	505	1	blank2r.bmp	729	1	BMVZ	729	2	B2r.bmp	835	1	blank2r.bmp	870	1	dandy	870	1	!	1199	1	blank2r.bmp	1329
012318	11:34:35	1	2	5.0.10.0	6	8	dB21_valA_pract2	dM_B21_B2_unplA	300	300	0	0	18	1	114	1	blank2r.bmp	0	1	+	0	8	C4r.bmp	505	1	blank2r.bmp	729	1	GKQX	729	7	C3r.bmp	835	1	blank2r.bmp	870	2	folly	870	1	!	1199	1	blank2r.bmp	1329
012318	11:34:35	1	2	5.0.10.0	6	9	dB21_valA_pract2	dM_B21_B2_pleasA	300	300	0	0	18	1	115	1	blank2r.bmp	0	1	+	0	6	C2r.bmp	505	1	blank2r.bmp	729	1	GKQX	729	1	B1r.bmp	835	1	blank2r.bmp	870	3	play	870	1	!	1199	1	blank2r.bmp	1329
012318	11:34:35	1	2	5.0.10.0	6	10	dB21_valA_pract2	dM_B21_B2_unplA	300	300	0	0	18	1	174	1	blank2r.bmp	0	1	+	0	2	B2r.bmp	505	1	blank2r.bmp	729	1	GKQX	729	5	C1r.bmp	835	1	blank2r.bmp	870	4	oaf	870	1	!	1199	1	blank2r.bmp	1329
012318	11:34:35	1	2	5.0.10.0	6	11	dB21_valA_pract2	dM_B21_B2_pleasA	300	300	0	0	18	1	140	1	blank2r.bmp	0	1	+	0	3	B3r.bmp	505	1	blank2r.bmp	729	1	GKQX	729	6	C2r.bmp	835	1	blank2r.bmp	870	6	fond	870	1	!	1199	1	blank2r.bmp	1329
012318	11:34:35	1	2	5.0.10.0	6	12	dB21_valA_pract2	dM_B21_B1_unplA	300	300	0	0	23	1	155	1	blank2r.bmp	0	1	+	0	1	B1r.bmp	505	1	blank2r.bmp	729	1	BMVZ	729	8	C4r.bmp	835	1	blank2r.bmp	870	5	flop	870	1	!	1199	1	blank2r.bmp	1329
012318	11:34:35	1	2	5.0.10.0	7	1	dB21_valA_080	d080_B21_B2_unplA	300	300	0	0	18	1	100	1	blank2r.bmp	0	1	+	0	6	C2r.bmp	505	1	blank2r.bmp	799	1	GKQX	799	1	blank2r.bmp	882	1	flaw	882	1	!	1211	1	blank2r.bmp	1340	0	0	0
012318	11:34:35	1	2	5.0.10.0	7	2	dB21_valA_080	d080_B21_B2_unplA	300	300	0	0	18	1	1848	1	blank2r.bmp	0	1	+	0	4	B4r.bmp	505	1	blank2r.bmp	799	1	GKQX	799	1	blank2r.bmp	882	6	old	882	1	!	1211	1	blank2r.bmp	1340	0	0	0
012318	11:34:35	1	2	5.0.10.0	7	3	dB21_valA_080	d080_B21_B2_unplA	300	300	0	0	18	1	197	1	blank2r.bmp	0	1	+	0	7	C3r.bmp	505	1	blank2r.bmp	799	1	GKQX	799	1	blank2r.bmp	882	3	flood	882	1	!	1211	1	blank2r.bmp	1340	0	0	0
012318	11:34:35	1	2	5.0.10.0	7	4	dB21_valA_080	d080_B21_B1_pleasA	300	300	0	0	23	1	122	1	blank2r.bmp	0	1	+	0	5	C1r.bmp	505	1	blank2r.bmp	799	1	BMVZ	799	1	blank2r.bmp	882	6	fond	882	1	!	1211	1	blank2r.bmp	1340	0	0	0
012318	11:34:35	1	2	5.0.10.0	7	5	dB21_valA_080	d080_B21_B1_pleasA	300	300	0	0	23	1	159	1	blank2r.bmp	0	1	+	0	3	B3r.bmp	505	1	blank2r.bmp	799	1	BMVZ	799	1	blank2r.bmp	882	4	happy	882	1	!	1211	1	blank2r.bmp	1340	0	0	0
012318	11:34:35	1	2	5.0.10.0	7	6	dB21_valA_080	d080_B21_B2_pleasA	300	300	0	0	18	1	278	1	blank2r.bmp	0	1	+	0	1	B1r.bmp	505	1	blank2r.bmp	799	1	GKQX	799	1	blank2r.bmp	882	1	dandy	882	1	!	1211	1	blank2r.bmp	1340	0	0	0
012318	11:34:35	1	2	5.0.10.0	7	7	dB21_valA_080	d080_B21_B2_unplA	300	300	0	0	18	1	284	1	blank2r.bmp	0	1	+	0	8	C4r.bmp	505	1	blank2r.bmp	799	1	GKQX	799	1	blank2r.bmp	882	4	oaf	882	1	!	1211	1	blank2r.bmp	1340	0	0	0
012318	11:34:35	1	2	5.0.10.0	7	8	dB21_valA_080	d080_B21_B2_pleasA	300	300	0	0	18	1	338	1	blank2r.bmp	0	1	+	0	2	B2r.bmp	505	1	blank2r.bmp	799	1	GKQX	799	1	blank2r.bmp	882	3	play	882	1	!	1211	1	blank2r.bmp	1340	0	0	0
012318	11:34:35	1	2	5.0.10.0	7	9	dB21_valA_080	d080_B21_B1_unplA	300	300	0	0	23	1	292	1	blank2r.bmp	0	1	+	0	7	C3r.bmp	505	1	blank2r.bmp	799	1	BMVZ	799	1	blank2r.bmp	882	2	folly	882	1	!	1211	1	blank2r.bmp	1340	0	0	0
012318	11:34:35	1	2	5.0.10.0	7	10	dB21_valA_080	d080_B21_B1_unplA	300	300	0	0	23	1	262	1	blank2r.bmp	0	1	+	0	3	B3r.bmp	505	1	blank2r.bmp	799	1	BMVZ	799	1	blank2r.bmp	882	5	flop	882	1	!	1211	1	blank2r.bmp	1340	0	0	0
012318	11:34:35	1	2	5.0.10.0	7	11	dB21_valA_080	d080_B21_B1_unplA	300	300	0	0	23	1	306	1	blank2r.bmp	0	1	+	0	4	B4r.bmp	505	1	blank2r.bmp	799	1	BMVZ	799	1	blank2r.bmp	882	5	flop	882	1	!	1211	1	blank2r.bmp	1340	0	0	0
012318	11:34:35	1	2	5.0.10.0	7	12	dB21_valA_080	d080_B21_B2_unplA	300	300	0	0	18	1	292	1	blank2r.bmp	0	1	+	0	8	C4r.bmp	505	1	blank2r.bmp	799	1	GKQX	799	1	blank2r.bmp	882	4	oaf	882	1	!	1211	1	blank2r.bmp	1340	0	0	0
012318	11:34:35	1	2	5.0.10.0	7	13	dB21_valA_080	d080_B21_B1_unplA	300	300	0	0	23	1	343	1	blank2r.bmp	0	1	+	0	5	C1r.bmp	505	1	blank2r.bmp	799	1	BMVZ	799	1	blank2r.bmp	882	1	flaw	882	1	!	1211	1	blank2r.bmp	1340	0	0	0
012318	11:34:35	1	2	5.0.10.0	7	14	dB21_valA_080	d080_B21_B1_pleasA	300	300	0	0	23	1	283	1	blank2r.bmp	0	1	+	0	2	B2r.bmp	505	1	blank2r.bmp	799	1	BMVZ	799	1	blank2r.bmp	882	5	jolly	882	1	!	1211	1	blank2r.bmp	1340	0	0	0
012318	11:34:35	1	2	5.0.10.0	7	15	dB21_valA_080	d080_B21_B1_unplA	300	300	0	0	23	1	221	1	blank2r.bmp	0	1	+	0	1	B1r.bmp	505	1	blank2r.bmp	799	1	BMVZ	799	1	blank2r.bmp	882	6	old	882	1	!	1211	1	blank2r.bmp	1340	0	0	0
012318	11:34:35	1	2	5.0.10.0	7	16	dB21_valA_080	d080_B21_B2_pleasA	300	300	0	0	18	1	268	1	blank2r.bmp	0	1	+	0	6	C2r.bmp	505	1	blank2r.bmp	799	1	GKQX	799	1	blank2r.bmp	882	2	joy	882	1	!	1211	1	blank2r.bmp	1340	0	0	0
012318	11:34:35	1	2	5.0.10.0	7	17	dB21_valA_080	d080_B21_B2_pleasA	300	300	0	0	18	1	249	1	blank2r.bmp	0	1	+	0	7	C3r.bmp	505	1	blank2r.bmp	799	1	GKQX	799	1	blank2r.bmp	882	2	joy	882	1	!	1211	1	blank2r.bmp	1340	0	0	0
012318	11:34:35	1	2	5.0.10.0	7	18	dB21_valA_080	d080_B21_B1_unplA	300	300	0	0	23	1	256	1	blank2r.bmp	0	1	+	0	4	B4r.bmp	505	1	blank2r.bmp	799	1	BMVZ	799	1	blank2r.bmp	882	2	folly	882	1	!	1211	1	blank2r.bmp	1340	0	0	0
012318	11:34:35	1	2	5.0.10.0	7	19	dB21_valA_080	d080_B21_B1_pleasA	300	300	0	0	23	1	246	1	blank2r.bmp	0	1	+	0	1	B1r.bmp	505	1	blank2r.bmp	799	1	BMVZ	799	1	blank2r.bmp	882	3	play	882	1	!	1211	1	blank2r.bmp	1340	0	0	0
012318	11:34:35	1	2	5.0.10.0	7	20	dB21_valA_080	d080_B21_B1_pleasA	300	300	0	0	23	1	257	1	blank2r.bmp	0	1	+	0	6	C2r.bmp	505	1	blank2r.bmp	799	1	BMVZ	799	1	blank2r.bmp	882	5	jolly	882	1	!	1211	1	blank2r.bmp	1340	0	0	0
012318	11:34:35	1	2	5.0.10.0	7	21	dB21_valA_080	d080_B21_B1_pleasA	300	300	0	0	23	1	233	1	blank2r.bmp	0	1	+	0	3	B3r.bmp	505	1	blank2r.bmp	799	1	BMVZ	799	1	blank2r.bmp	882	1	dandy	882	1	!	1211	1	blank2r.bmp	1340	0	0	0
012318	11:34:35	1	2	5.0.10.0	7	22	dB21_valA_080	d080_B21_B1_unplA	300	300	0	0	23	1	263	1	blank2r.bmp	0	1	+	0	2	B2r.bmp	505	1	blank2r.bmp	799	1	BMVZ	799	1	blank2r.bmp	882	3	flood	882	1	!	1211	1	blank2r.bmp	1340	0	0	0
012318	11:34:35	1	2	5.0.10.0	7	23	dB21_valA_080	d080_B21_B1_pleasA	300	300	0	0	23	1	201	1	blank2r.bmp	0	1	+	0	5	C1r.bmp	505	1	blank2r.bmp	799	1	BMVZ	799	1	blank2r.bmp	882	6	fond	882	1	!	1211	1	blank2r.bmp	1340	0	0	0
012318	11:34:35	1	2	5.0.10.0	7	24	dB21_valA_080	d080_B21_B1_unplA	300	300	0	0	23	1	184	1	blank2r.bmp	0	1	+	0	8	C4r.bmp	505	1	blank2r.bmp	799	1	BMVZ	799	1	blank2r.bmp	882	5	flop	882	1	!	1211	1	blank2r.bmp	1340	0	0	0
012318	11:34:35	1	2	5.0.10.0	7	25	dB21_valA_080	d080_B21_B2_unplA	300	300	0	0	18	1	210	1	blank2r.bmp	0	1	+	0	7	C3r.bmp	505	1	blank2r.bmp	799	1	GKQX	799	1	blank2r.bmp	882	3	flood	882	1	!	1211	1	blank2r.bmp	1340	0	0	0
012318	11:34:35	1	2	5.0.10.0	7	26	dB21_valA_080	d080_B21_B2_unplA	300	300	0	0	18	1	270	1	blank2r.bmp	0	1	+	0	2	B2r.bmp	505	1	blank2r.bmp	799	1	GKQX	799	1	blank2r.bmp	882	1	flaw	882	1	!	1211	1	blank2r.bmp	1340	0	0	0
012318	11:34:35	1	2	5.0.10.0	7	27	dB21_valA_080	d080_B21_B2_pleasA	300	300	0	0	23	0	450	1	blank2r.bmp	0	1	+	0	5	C1r.bmp	505	1	blank2r.bmp	799	1	GKQX	799	1	blank2r.bmp	882	4	happy	882	1	!	1211	1	blank2r.bmp	1340	0	0	0
012318	11:34:35	1	2	5.0.10.0	7	28	dB21_valA_080	d080_B21_B2_pleasA	300	300	0	0	18	1	287	1	blank2r.bmp	0	1	+	0	3	B3r.bmp	505	1	blank2r.bmp	799	1	GKQX	799	1	blank2r.bmp	882	5	jolly	882	1	!	1211	1	blank2r.bmp	1340	0	0	0
012318	11:34:35	1	2	5.0.10.0	7	29	dB21_valA_080	d080_B21_B2_unplA	300	300	0	0	23	0	260	1	blank2r.bmp	0	1	+	0	4	B4r.bmp	505	1	blank2r.bmp	799	1	GKQX	799	1	blank2r.bmp	882	2	folly	882	1	!	1211	1	blank2r.bmp	1340	0	0	0
012318	11:34:35	1	2	5.0.10.0	7	30	dB21_valA_080	d080_B21_B2_pleasA	300	300	0	0	18	1	184	1	blank2r.bmp	0	1	+	0	6	C2r.bmp	505	1	blank2r.bmp	799	1	GKQX	799	1	blank2r.bmp	882	6	fond	882	1	!	1211	1	blank2r.bmp	1340	0	0	0
012318	11:34:35	1	2	5.0.10.0	7	31	dB21_valA_080	d080_B21_B1_pleasA	300	300	0	0	23	1	168	1	blank2r.bmp	0	1	+	0	8	C4r.bmp	505	1	blank2r.bmp	799	1	BMVZ	799	1	blank2r.bmp	882	1	dandy	882	1	!	1211	1	blank2r.bmp	1340	0	0	0
012318	11:34:35	1	2	5.0.10.0	7	32	dB21_valA_080	d080_B21_B1_pleasA	300	300	0	0	23	1	243	1	blank2r.bmp	0	1	+	0	1	B1r.bmp	505	1	blank2r.bmp	799	1	BMVZ	799	1	blank2r.bmp	882	4	happy	882	1	!	1211	1	blank2r.bmp	1340	0	0	0
012318	11:34:35	1	2	5.0.10.0	7	33	dB21_valA_080	d080_B21_B2_pleasA	300	300	0	0	18	1	231	1	blank2r.bmp	0	1	+	0	7	C3r.bmp	505	1	blank2r.bmp	799	1	GKQX	799	1	blank2r.bmp	882	2	joy	882	1	!	1211	1	blank2r.bmp	1340	0	0	0
012318	11:34:35	1	2	5.0.10.0	7	34	dB21_valA_080	d080_B21_B2_unplA	300	300	0	0	18	1	251	1	blank2r.bmp	0	1	+	0	8	C4r.bmp	505	1	blank2r.bmp	799	1	GKQX	799	1	blank2r.bmp	882	4	oaf	882	1	!	1211	1	blank2r.bmp	1340	0	0	0
012318	11:34:35	1	2	5.0.10.0	7	35	dB21_valA_080	d080_B21_B2_pleasA	300	300	0	0	23	0	11	1	blank2r.bmp	0	1	+	0	2	B2r.bmp	505	1	blank2r.bmp	799	1	GKQX	799	1	blank2r.bmp	882	3	play	882	1	!	1211	1	blank2r.bmp	1340	0	0	0
012318	11:34:35	1	2	5.0.10.0	7	36	dB21_valA_080	d080_B21_B1_pleasA	300	300	0	0	23	1	163	1	blank2r.bmp	0	1	+	0	4	B4r.bmp	505	1	blank2r.bmp	799	1	BMVZ	799	1	blank2r.bmp	882	6	fond	882	1	!	1211	1	blank2r.bmp	1340	0	0	0
012318	11:34:35	1	2	5.0.10.0	7	37	dB21_valA_080	d080_B21_B2_pleasA	300	300	0	0	18	1	153	1	blank2r.bmp	0	1	+	0	1	B1r.bmp	505	1	blank2r.bmp	799	1	GKQX	799	1	blank2r.bmp	882	2	joy	882	1	!	1211	1	blank2r.bmp	1340	0	0	0
012318	11:34:35	1	2	5.0.10.0	7	38	dB21_valA_080	d080_B21_B1_pleasA	300	300	0	0	23	1	181	1	blank2r.bmp	0	1	+	0	6	C2r.bmp	505	1	blank2r.bmp	799	1	BMVZ	799	1	blank2r.bmp	882	5	jolly	882	1	!	1211	1	blank2r.bmp	1340	0	0	0
012318	11:34:35	1	2	5.0.10.0	7	39	dB21_valA_080	d080_B21_B2_pleasA	300	300	0	0	18	1	195	1	blank2r.bmp	0	1	+	0	3	B3r.bmp	505	1	blank2r.bmp	799	1	GKQX	799	1	blank2r.bmp	882	3	play	882	1	!	1211	1	blank2r.bmp	1340	0	0	0
012318	11:34:35	1	2	5.0.10.0	7	40	dB21_valA_080	d080_B21_B1_unplA	300	300	0	0	23	1	293	1	blank2r.bmp	0	1	+	0	5	C1r.bmp	505	1	blank2r.bmp	799	1	BMVZ	799	1	blank2r.bmp	882	6	old	882	1	!	1211	1	blank2r.bmp	1340	0	0	0
012318	11:34:35	1	2	5.0.10.0	7	41	dB21_valA_080	d080_B21_B2_unplA	300	300	0	0	18	1	212	1	blank2r.bmp	0	1	+	0	5	C1r.bmp	505	1	blank2r.bmp	799	1	GKQX	799	1	blank2r.bmp	882	3	flood	882	1	!	1211	1	blank2r.bmp	1340	0	0	0
012318	11:34:35	1	2	5.0.10.0	7	42	dB21_valA_080	d080_B21_B1_pleasA	300	300	0	0	23	1	198	1	blank2r.bmp	0	1	+	0	7	C3r.bmp	505	1	blank2r.bmp	799	1	BMVZ	799	1	blank2r.bmp	882	4	happy	882	1	!	1211	1	blank2r.bmp	1340	0	0	0
012318	11:34:35	1	2	5.0.10.0	7	43	dB21_valA_080	d080_B21_B1_unplA	300	300	0	0	23	1	455	1	blank2r.bmp	0	1	+	0	6	C2r.bmp	505	1	blank2r.bmp	799	1	BMVZ	799	1	blank2r.bmp	882	1	flaw	882	1	!	1211	1	blank2r.bmp	1340	0	0	0
012318	11:34:35	1	2	5.0.10.0	7	44	dB21_valA_080	d080_B21_B1_unplA	300	300	0	0	23	1	208	1	blank2r.bmp	0	1	+	0	2	B2r.bmp	505	1	blank2r.bmp	799	1	BMVZ	799	1	blank2r.bmp	882	4	oaf	882	1	!	1211	1	blank2r.bmp	1340	0	0	0
012318	11:34:35	1	2	5.0.10.0	7	45	dB21_valA_080	d080_B21_B2_unplA	300	300	0	0	18	1	231	1	blank2r.bmp	0	1	+	0	3	B3r.bmp	505	1	blank2r.bmp	799	1	GKQX	799	1	blank2r.bmp	882	5	flop	882	1	!	1211	1	blank2r.bmp	1340	0	0	0
012318	11:34:35	1	2	5.0.10.0	7	46	dB21_valA_080	d080_B21_B2_unplA	300	300	0	0	18	1	147	1	blank2r.bmp	0	1	+	0	4	B4r.bmp	505	1	blank2r.bmp	799	1	GKQX	799	1	blank2r.bmp	882	6	old	882	1	!	1211	1	blank2r.bmp	1340	0	0	0
012318	11:34:35	1	2	5.0.10.0	7	47	dB21_valA_080	d080_B21_B2_pleasA	300	300	0	0	18	1	224	1	blank2r.bmp	0	1	+	0	1	B1r.bmp	505	1	blank2r.bmp	799	1	GKQX	799	1	blank2r.bmp	882	1	dandy	882	1	!	1211	1	blank2r.bmp	1340	0	0	0
012318	11:34:35	1	2	5.0.10.0	7	48	dB21_valA_080	d080_B21_B1_unplA	300	300	0	0	23	1	160	1	blank2r.bmp	0	1	+	0	8	C4r.bmp	505	1	blank2r.bmp	799	1	BMVZ	799	1	blank2r.bmp	882	2	folly	882	1	!	1211	1	blank2r.bmp	1340	0	0	0
012318	11:34:35	1	2	5.0.10.0	8	1	dB21_valA_080	d080_B21_B2_pleasA	300	300	0	0	18	1	135	1	blank2r.bmp	0	1	+	0	8	C4r.bmp	505	1	blank2r.bmp	799	1	GKQX	799	1	blank2r.bmp	882	4	happy	882	1	!	1211	1	blank2r.bmp	1340	0	0	0
012318	11:34:35	1	2	5.0.10.0	8	2	dB21_valA_080	d080_B21_B2_unplA	300	300	0	0	18	1	135	1	blank2r.bmp	0	1	+	0	2	B2r.bmp	505	1	blank2r.bmp	799	1	GKQX	799	1	blank2r.bmp	882	6	old	882	1	!	1211	1	blank2r.bmp	1340	0	0	0
012318	11:34:35	1	2	5.0.10.0	8	3	dB21_valA_080	d080_B21_B1_unplA	300	300	0	0	23	1	116	1	blank2r.bmp	0	1	+	0	6	C2r.bmp	505	1	blank2r.bmp	799	1	BMVZ	799	1	blank2r.bmp	882	4	oaf	882	1	!	1211	1	blank2r.bmp	1340	0	0	0
012318	11:34:35	1	2	5.0.10.0	8	4	dB21_valA_080	d080_B21_B1_unplA	300	300	0	0	23	1	186	1	blank2r.bmp	0	1	+	0	5	C1r.bmp	505	1	blank2r.bmp	799	1	BMVZ	799	1	blank2r.bmp	882	3	flood	882	1	!	1211	1	blank2r.bmp	1340	0	0	0
012318	11:34:35	1	2	5.0.10.0	8	5	dB21_valA_080	d080_B21_B1_pleasA	300	300	0	0	23	1	144	1	blank2r.bmp	0	1	+	0	3	B3r.bmp	505	1	blank2r.bmp	799	1	BMVZ	799	1	blank2r.bmp	882	6	fond	882	1	!	1211	1	blank2r.bmp	1340	0	0	0
012318	11:34:35	1	2	5.0.10.0	8	6	dB21_valA_080	d080_B21_B1_pleasA	300	300	0	0	23	1	236	1	blank2r.bmp	0	1	+	0	4	B4r.bmp	505	1	blank2r.bmp	799	1	BMVZ	799	1	blank2r.bmp	882	1	dandy	882	1	!	1211	1	blank2r.bmp	1340	0	0	0
012318	11:34:35	1	2	5.0.10.0	8	7	dB21_valA_080	d080_B21_B2_unplA	300	300	0	0	18	1	138	1	blank2r.bmp	0	1	+	0	1	B1r.bmp	505	1	blank2r.bmp	799	1	GKQX	799	1	blank2r.bmp	882	1	flaw	882	1	!	1211	1	blank2r.bmp	1340	0	0	0
012318	11:34:35	1	2	5.0.10.0	8	8	dB21_valA_080	d080_B21_B1_unplA	300	300	0	0	23	1	157	1	blank2r.bmp	0	1	+	0	7	C3r.bmp	505	1	blank2r.bmp	799	1	BMVZ	799	1	blank2r.bmp	882	5	flop	882	1	!	1211	1	blank2r.bmp	1340	0	0	0
012318	11:34:35	1	2	5.0.10.0	8	9	dB21_valA_080	d080_B21_B1_unplA	300	300	0	0	23	1	133	1	blank2r.bmp	0	1	+	0	8	C4r.bmp	505	1	blank2r.bmp	799	1	BMVZ	799	1	blank2r.bmp	882	2	folly	882	1	!	1211	1	blank2r.bmp	1340	0	0	0
012318	11:34:35	1	2	5.0.10.0	8	10	dB21_valA_080	d080_B21_B2_unplA	300	300	0	0	18	1	118	1	blank2r.bmp	0	1	+	0	4	B4r.bmp	505	1	blank2r.bmp	799	1	GKQX	799	1	blank2r.bmp	882	6	old	882	1	!	1211	1	blank2r.bmp	1340	0	0	0
012318	11:34:35	1	2	5.0.10.0	8	11	dB21_valA_080	d080_B21_B2_unplA	300	300	0	0	18	1	2492	1	blank2r.bmp	0	1	+	0	2	B2r.bmp	505	1	blank2r.bmp	799	1	GKQX	799	1	blank2r.bmp	882	2	folly	882	1	!	1211	1	blank2r.bmp	1340	0	0	0
012318	11:34:35	1	2	5.0.10.0	8	12	dB21_valA_080	d080_B21_B1_pleasA	300	300	0	0	23	1	172	1	blank2r.bmp	0	1	+	0	7	C3r.bmp	505	1	blank2r.bmp	799	1	BMVZ	799	1	blank2r.bmp	882	2	joy	882	1	!	1211	1	blank2r.bmp	1340	0	0	0
012318	11:34:35	1	2	5.0.10.0	8	13	dB21_valA_080	d080_B21_B2_pleasA	300	300	0	0	18	1	286	1	blank2r.bmp	0	1	+	0	6	C2r.bmp	505	1	blank2r.bmp	799	1	GKQX	799	1	blank2r.bmp	882	3	play	882	1	!	1211	1	blank2r.bmp	1340	0	0	0
012318	11:34:35	1	2	5.0.10.0	8	14	dB21_valA_080	d080_B21_B1_unplA	300	300	0	0	18	0	216	1	blank2r.bmp	0	1	+	0	1	B1r.bmp	505	1	blank2r.bmp	799	1	BMVZ	799	1	blank2r.bmp	882	4	oaf	882	1	!	1211	1	blank2r.bmp	1340	0	0	0
012318	11:34:35	1	2	5.0.10.0	8	15	dB21_valA_080	d080_B21_B1_pleasA	300	300	0	0	23	1	300	1	blank2r.bmp	0	1	+	0	3	B3r.bmp	505	1	blank2r.bmp	799	1	BMVZ	799	1	blank2r.bmp	882	5	jolly	882	1	!	1211	1	blank2r.bmp	1340	0	0	0
012318	11:34:35	1	2	5.0.10.0	8	16	dB21_valA_080	d080_B21_B2_pleasA	300	300	0	0	18	1	185	1	blank2r.bmp	0	1	+	0	5	C1r.bmp	505	1	blank2r.bmp	799	1	GKQX	799	1	blank2r.bmp	882	5	jolly	882	1	!	1211	1	blank2r.bmp	1340	0	0	0
012318	11:34:35	1	2	5.0.10.0	8	17	dB21_valA_080	d080_B21_B2_pleasA	300	300	0	0	18	1	205	1	blank2r.bmp	0	1	+	0	2	B2r.bmp	505	1	blank2r.bmp	799	1	GKQX	799	1	blank2r.bmp	882	6	fond	882	1	!	1211	1	blank2r.bmp	1340	0	0	0
012318	11:34:35	1	2	5.0.10.0	8	18	dB21_valA_080	d080_B21_B1_pleasA	300	300	0	0	23	1	167	1	blank2r.bmp	0	1	+	0	4	B4r.bmp	505	1	blank2r.bmp	799	1	BMVZ	799	1	blank2r.bmp	882	1	dandy	882	1	!	1211	1	blank2r.bmp	1340	0	0	0
012318	11:34:35	1	2	5.0.10.0	8	19	dB21_valA_080	d080_B21_B1_unplA	300	300	0	0	23	1	214	1	blank2r.bmp	0	1	+	0	5	C1r.bmp	505	1	blank2r.bmp	799	1	BMVZ	799	1	blank2r.bmp	882	1	flaw	882	1	!	1211	1	blank2r.bmp	1340	0	0	0
012318	11:34:35	1	2	5.0.10.0	8	20	dB21_valA_080	d080_B21_B1_unplA	300	300	0	0	23	1	369	1	blank2r.bmp	0	1	+	0	3	B3r.bmp	505	1	blank2r.bmp	799	1	BMVZ	799	1	blank2r.bmp	882	5	flop	882	1	!	1211	1	blank2r.bmp	1340	0	0	0
012318	11:34:35	1	2	5.0.10.0	8	21	dB21_valA_080	d080_B21_B2_pleasA	300	300	0	0	18	1	187	1	blank2r.bmp	0	1	+	0	1	B1r.bmp	505	1	blank2r.bmp	799	1	GKQX	799	1	blank2r.bmp	882	2	joy	882	1	!	1211	1	blank2r.bmp	1340	0	0	0
012318	11:34:35	1	2	5.0.10.0	8	22	dB21_valA_080	d080_B21_B1_unplA	300	300	0	0	23	1	165	1	blank2r.bmp	0	1	+	0	8	C4r.bmp	505	1	blank2r.bmp	799	1	BMVZ	799	1	blank2r.bmp	882	3	flood	882	1	!	1211	1	blank2r.bmp	1340	0	0	0
012318	11:34:35	1	2	5.0.10.0	8	23	dB21_valA_080	d080_B21_B2_unplA	300	300	0	0	18	1	191	1	blank2r.bmp	0	1	+	0	7	C3r.bmp	505	1	blank2r.bmp	799	1	GKQX	799	1	blank2r.bmp	882	6	old	882	1	!	1211	1	blank2r.bmp	1340	0	0	0
012318	11:34:35	1	2	5.0.10.0	8	24	dB21_valA_080	d080_B21_B1_pleasA	300	300	0	0	23	1	183	1	blank2r.bmp	0	1	+	0	6	C2r.bmp	505	1	blank2r.bmp	799	1	BMVZ	799	1	blank2r.bmp	882	3	play	882	1	!	1211	1	blank2r.bmp	1340	0	0	0
012318	11:34:35	1	2	5.0.10.0	8	25	dB21_valA_080	d080_B21_B2_unplA	300	300	0	0	18	1	222	1	blank2r.bmp	0	1	+	0	8	C4r.bmp	505	1	blank2r.bmp	799	1	GKQX	799	1	blank2r.bmp	882	2	folly	882	1	!	1211	1	blank2r.bmp	1340	0	0	0
012318	11:34:35	1	2	5.0.10.0	8	26	dB21_valA_080	d080_B21_B1_unplA	300	300	0	0	18	0	138	1	blank2r.bmp	0	1	+	0	7	C3r.bmp	505	1	blank2r.bmp	799	1	BMVZ	799	1	blank2r.bmp	882	3	flood	882	1	!	1211	1	blank2r.bmp	1340	0	0	0
012318	11:34:35	1	2	5.0.10.0	8	27	dB21_valA_080	d080_B21_B2_pleasA	300	300	0	0	23	0	131	1	blank2r.bmp	0	1	+	0	4	B4r.bmp	505	1	blank2r.bmp	799	1	GKQX	799	1	blank2r.bmp	882	4	happy	882	1	!	1211	1	blank2r.bmp	1340	0	0	0
012318	11:34:35	1	2	5.0.10.0	8	28	dB21_valA_080	d080_B21_B2_pleasA	300	300	0	0	18	1	135	1	blank2r.bmp	0	1	+	0	3	B3r.bmp	505	1	blank2r.bmp	799	1	GKQX	799	1	blank2r.bmp	882	6	fond	882	1	!	1211	1	blank2r.bmp	1340	0	0	0
012318	11:34:35	1	2	5.0.10.0	8	29	dB21_valA_080	d080_B21_B1_pleasA	300	300	0	0	23	1	121	1	blank2r.bmp	0	1	+	0	5	C1r.bmp	505	1	blank2r.bmp	799	1	BMVZ	799	1	blank2r.bmp	882	5	jolly	882	1	!	1211	1	blank2r.bmp	1340	0	0	0
012318	11:34:35	1	2	5.0.10.0	8	30	dB21_valA_080	d080_B21_B2_pleasA	300	300	0	0	18	1	144	1	blank2r.bmp	0	1	+	0	2	B2r.bmp	505	1	blank2r.bmp	799	1	GKQX	799	1	blank2r.bmp	882	4	happy	882	1	!	1211	1	blank2r.bmp	1340	0	0	0
012318	11:34:35	1	2	5.0.10.0	8	31	dB21_valA_080	d080_B21_B2_pleasA	300	300	0	0	18	1	101	1	blank2r.bmp	0	1	+	0	1	B1r.bmp	505	1	blank2r.bmp	799	1	GKQX	799	1	blank2r.bmp	882	2	joy	882	1	!	1211	1	blank2r.bmp	1340	0	0	0
012318	11:34:35	1	2	5.0.10.0	8	32	dB21_valA_080	d080_B21_B2_unplA	300	300	0	0	18	1	176	1	blank2r.bmp	0	1	+	0	6	C2r.bmp	505	1	blank2r.bmp	799	1	GKQX	799	1	blank2r.bmp	882	5	flop	882	1	!	1211	1	blank2r.bmp	1340	0	0	0
012318	11:34:35	1	2	5.0.10.0	8	33	dB21_valA_080	d080_B21_B2_pleasA	300	300	0	0	18	1	183	1	blank2r.bmp	0	1	+	0	3	B3r.bmp	505	1	blank2r.bmp	799	1	GKQX	799	1	blank2r.bmp	882	1	dandy	882	1	!	1211	1	blank2r.bmp	1340	0	0	0
012318	11:34:35	1	2	5.0.10.0	8	34	dB21_valA_080	d080_B21_B2_unplA	300	300	0	0	18	1	184	1	blank2r.bmp	0	1	+	0	6	C2r.bmp	505	1	blank2r.bmp	799	1	GKQX	799	1	blank2r.bmp	882	1	flaw	882	1	!	1211	1	blank2r.bmp	1340	0	0	0
012318	11:34:35	1	2	5.0.10.0	8	35	dB21_valA_080	d080_B21_B1_pleasA	300	300	0	0	23	1	73	1	blank2r.bmp	0	1	+	0	4	B4r.bmp	505	1	blank2r.bmp	799	1	BMVZ	799	1	blank2r.bmp	882	3	play	882	1	!	1211	1	blank2r.bmp	1340	0	0	0
012318	11:34:35	1	2	5.0.10.0	8	36	dB21_valA_080	d080_B21_B1_pleasA	300	300	0	0	23	1	148	1	blank2r.bmp	0	1	+	0	5	C1r.bmp	505	1	blank2r.bmp	799	1	BMVZ	799	1	blank2r.bmp	882	4	happy	882	1	!	1211	1	blank2r.bmp	1340	0	0	0
012318	11:34:35	1	2	5.0.10.0	8	37	dB21_valA_080	d080_B21_B1_unplA	300	300	0	0	23	1	142	1	blank2r.bmp	0	1	+	0	1	B1r.bmp	505	1	blank2r.bmp	799	1	BMVZ	799	1	blank2r.bmp	882	4	oaf	882	1	!	1211	1	blank2r.bmp	1340	0	0	0
012318	11:34:35	1	2	5.0.10.0	8	38	dB21_valA_080	d080_B21_B2_pleasA	300	300	0	0	18	1	142	1	blank2r.bmp	0	1	+	0	8	C4r.bmp	505	1	blank2r.bmp	799	1	GKQX	799	1	blank2r.bmp	882	2	joy	882	1	!	1211	1	blank2r.bmp	1340	0	0	0
012318	11:34:35	1	2	5.0.10.0	8	39	dB21_valA_080	d080_B21_B2_unplA	300	300	0	0	18	1	214	1	blank2r.bmp	0	1	+	0	2	B2r.bmp	505	1	blank2r.bmp	799	1	GKQX	799	1	blank2r.bmp	882	1	flaw	882	1	!	1211	1	blank2r.bmp	1340	0	0	0
012318	11:34:35	1	2	5.0.10.0	8	40	dB21_valA_080	d080_B21_B1_unplA	300	300	0	0	18	0	256	1	blank2r.bmp	0	1	+	0	7	C3r.bmp	505	1	blank2r.bmp	799	1	BMVZ	799	1	blank2r.bmp	882	2	folly	882	1	!	1211	1	blank2r.bmp	1340	0	0	0
012318	11:34:35	1	2	5.0.10.0	8	41	dB21_valA_080	d080_B21_B1_pleasA	300	300	0	0	23	1	240	1	blank2r.bmp	0	1	+	0	3	B3r.bmp	505	1	blank2r.bmp	799	1	BMVZ	799	1	blank2r.bmp	882	6	fond	882	1	!	1211	1	blank2r.bmp	1340	0	0	0
012318	11:34:35	1	2	5.0.10.0	8	42	dB21_valA_080	d080_B21_B2_unplA	300	300	0	0	18	1	264	1	blank2r.bmp	0	1	+	0	8	C4r.bmp	505	1	blank2r.bmp	799	1	GKQX	799	1	blank2r.bmp	882	5	flop	882	1	!	1211	1	blank2r.bmp	1340	0	0	0
012318	11:34:35	1	2	5.0.10.0	8	43	dB21_valA_080	d080_B21_B1_pleasA	300	300	0	0	23	1	231	1	blank2r.bmp	0	1	+	0	4	B4r.bmp	505	1	blank2r.bmp	799	1	BMVZ	799	1	blank2r.bmp	882	3	play	882	1	!	1211	1	blank2r.bmp	1340	0	0	0
012318	11:34:35	1	2	5.0.10.0	8	44	dB21_valA_080	d080_B21_B2_unplA	300	300	0	0	18	1	273	1	blank2r.bmp	0	1	+	0	6	C2r.bmp	505	1	blank2r.bmp	799	1	GKQX	799	1	blank2r.bmp	882	4	oaf	882	1	!	1211	1	blank2r.bmp	1340	0	0	0
012318	11:34:35	1	2	5.0.10.0	8	45	dB21_valA_080	d080_B21_B2_pleasA	300	300	0	0	18	1	201	1	blank2r.bmp	0	1	+	0	2	B2r.bmp	505	1	blank2r.bmp	799	1	GKQX	799	1	blank2r.bmp	882	5	jolly	882	1	!	1211	1	blank2r.bmp	1340	0	0	0
012318	11:34:35	1	2	5.0.10.0	8	46	dB21_valA_080	d080_B21_B1_unplA	300	300	0	0	23	1	148	1	blank2r.bmp	0	1	+	0	7	C3r.bmp	505	1	blank2r.bmp	799	1	BMVZ	799	1	blank2r.bmp	882	6	old	882	1	!	1211	1	blank2r.bmp	1340	0	0	0
012318	11:34:35	1	2	5.0.10.0	8	47	dB21_valA_080	d080_B21_B2_unplA	300	300	0	0	18	1	65	1	blank2r.bmp	0	1	+	0	1	B1r.bmp	505	1	blank2r.bmp	799	1	GKQX	799	1	blank2r.bmp	882	3	flood	882	1	!	1211	1	blank2r.bmp	1340	0	0	0
012318	11:34:35	1	2	5.0.10.0	8	48	dB21_valA_080	d080_B21_B1_pleasA	300	300	0	0	23	1	1943	1	blank2r.bmp	0	1	+	0	5	C1r.bmp	505	1	blank2r.bmp	799	1	BMVZ	799	1	blank2r.bmp	882	1	dandy	882	1	!	1211	1	blank2r.bmp	1340	0	0	0
012318	14:27:04	1	999	5.0.10.0	1	1	dB12_valA_pract1	dL_B12_B2_pleasA	300	300	0	0	23	1	3394	1	blank2r.bmp	0	1	+	0	1	B1r.bmp	505	1	blank2r.bmp	693	1	GKQX	693	3	B3r.bmp	835	1	blank2r.bmp	870	3	play	870	1	!	1199	1	blank2r.bmp	1329
012318	14:27:04	1	999	5.0.10.0	1	2	dB12_valA_pract1	dL_B12_B1_pleasA	300	300	0	0	23	0	6622	1	blank2r.bmp	0	1	+	0	2	B2r.bmp	505	1	blank2r.bmp	693	1	BMVZ	693	5	C1r.bmp	835	1	blank2r.bmp	870	2	joy	870	1	!	1199	1	blank2r.bmp	1329
012318	14:27:04	1	999	5.0.10.0	1	3	dB12_valA_pract1	dL_B12_B1_pleasA	300	300	0	0	18	1	5000	1	blank2r.bmp	0	1	+	0	8	C4r.bmp	505	1	blank2r.bmp	693	1	BMVZ	693	6	C2r.bmp	835	1	blank2r.bmp	870	6	fond	870	1	!	1199	1	blank2r.bmp	1329
012318	14:27:04	1	999	5.0.10.0	1	4	dB12_valA_pract1	dL_B12_B1_unplA	300	300	0	0	23	0	461	1	blank2r.bmp	0	1	+	0	3	B3r.bmp	505	1	blank2r.bmp	693	1	BMVZ	693	2	B2r.bmp	835	1	blank2r.bmp	870	1	flaw	870	1	!	1199	1	blank2r.bmp	1329
012318	14:27:04	1	999	5.0.10.0	1	5	dB12_valA_pract1	dL_B12_B2_unplA	300	300	0	0	23	1	213	1	blank2r.bmp	0	1	+	0	7	C3r.bmp	505	1	blank2r.bmp	693	1	GKQX	693	8	C4r.bmp	835	1	blank2r.bmp	870	6	old	870	1	!	1199	1	blank2r.bmp	1329
012318	14:27:04	1	999	5.0.10.0	1	6	dB12_valA_pract1	dL_B12_B2_unplA	300	300	0	0	23	1	189	1	blank2r.bmp	0	1	+	0	4	B4r.bmp	505	1	blank2r.bmp	693	1	GKQX	693	7	C3r.bmp	835	1	blank2r.bmp	870	5	flop	870	1	!	1199	1	blank2r.bmp	1329
012318	14:27:04	1	999	5.0.10.0	1	7	dB12_valA_pract1	dL_B12_B2_pleasA	300	300	0	0	18	0	7567	1	blank2r.bmp	0	1	+	0	6	C2r.bmp	505	1	blank2r.bmp	693	1	GKQX	693	4	B4r.bmp	835	1	blank2r.bmp	870	5	jolly	870	1	!	1199	1	blank2r.bmp	1329
012318	14:27:04	1	999	5.0.10.0	1	8	dB12_valA_pract1	dL_B12_B2_pleasA	300	300	0	0	18	0	956	1	blank2r.bmp	0	1	+	0	5	C1r.bmp	505	1	blank2r.bmp	693	1	GKQX	693	1	B1r.bmp	835	1	blank2r.bmp	870	4	happy	870	1	!	1199	1	blank2r.bmp	1329
012318	14:27:04	1	999	5.0.10.0	1	9	dB12_valA_pract1	dL_B12_B1_pleasA	300	300	0	0	18	1	324	1	blank2r.bmp	0	1	+	0	7	C3r.bmp	505	1	blank2r.bmp	693	1	BMVZ	693	6	C2r.bmp	835	1	blank2r.bmp	870	1	dandy	870	1	!	1199	1	blank2r.bmp	1329
012318	14:27:04	1	999	5.0.10.0	1	10	dB12_valA_pract1	dL_B12_B1_unplA	300	300	0	0	18	1	298	1	blank2r.bmp	0	1	+	0	2	B2r.bmp	505	1	blank2r.bmp	693	1	BMVZ	693	1	B1r.bmp	835	1	blank2r.bmp	870	4	oaf	870	1	!	1199	1	blank2r.bmp	1329
012318	14:27:04	1	999	5.0.10.0	1	11	dB12_valA_pract1	dL_B12_B2_unplA	300	300	0	0	18	0	723	1	blank2r.bmp	0	1	+	0	5	C1r.bmp	505	1	blank2r.bmp	693	1	GKQX	693	4	B4r.bmp	835	1	blank2r.bmp	870	3	flood	870	1	!	1199	1	blank2r.bmp	1329
012318	14:27:04	1	999	5.0.10.0	1	12	dB12_valA_pract1	dL_B12_B1_unplA	300	300	0	0	18	1	466	1	blank2r.bmp	0	1	+	0	4	B4r.bmp	505	1	blank2r.bmp	693	1	BMVZ	693	8	C4r.bmp	835	1	blank2r.bmp	870	2	folly	870	1	!	1199	1	blank2r.bmp	1329
012318	14:27:04	1	999	5.0.10.0	2	1	dB12_valA_pract2	dM_B12_B2_pleasA	300	300	0	0	Ctrl+'B'	1	1280	1	blank2r.bmp	0	1	+	0	3	B3r.bmp	505	1	blank2r.bmp	729	1	GKQX	729	7	C3r.bmp	835	1	blank2r.bmp	870	5	jolly	870	1	!	1199	1	blank2r.bmp	1329
012318	14:27:04	1	999	5.0.10.0	3	1	dB12_valA_070	d070_B12_B1_unplA	300	300	0	0	18	1	19743	1	blank2r.bmp	0	1	+	0	1	B1r.bmp	505	1	blank2r.bmp	799	1	BMVZ	799	1	blank2r.bmp	870	5	flop	870	1	!	1199	1	blank2r.bmp	1329	0	0	0
012318	14:27:04	1	999	5.0.10.0	3	2	dB12_valA_070	d070_B12_B2_pleasA	300	300	0	0	Ctrl+'B'	0	0	1	blank2r.bmp	0	1	+	0	6	C2r.bmp	505	1	blank2r.bmp	799	1	GKQX	799	1	blank2r.bmp	870	6	fond	870	1	!	1199	1	blank2r.bmp	1329	0	0	0
012318	14:27:04	1	999	5.0.10.0	4	1	dB12_valA_070	d070_B12_B2_unplA	300	300	0	0	18	0	560	1	blank2r.bmp	0	1	+	0	8	C4r.bmp	505	1	blank2r.bmp	799	1	GKQX	799	1	blank2r.bmp	870	3	flood	870	1	!	1199	1	blank2r.bmp	1329	0	0	0
012318	14:27:04	1	999	5.0.10.0	4	2	dB12_valA_070	d070_B12_B2_pleasA	300	300	0	0	23	1	69	1	blank2r.bmp	0	1	+	0	3	B3r.bmp	505	1	blank2r.bmp	799	1	GKQX	799	1	blank2r.bmp	870	3	play	870	1	!	1199	1	blank2r.bmp	1329	0	0	0
012318	14:27:04	1	999	5.0.10.0	4	3	dB12_valA_070	d070_B12_B2_unplA	300	300	0	0	18	0	87	1	blank2r.bmp	0	1	+	0	7	C3r.bmp	505	1	blank2r.bmp	799	1	GKQX	799	1	blank2r.bmp	870	4	oaf	870	1	!	1199	1	blank2r.bmp	1329	0	0	0
012318	14:27:04	1	999	5.0.10.0	4	4	dB12_valA_070	d070_B12_B1_unplA	300	300	0	0	Ctrl+'B'	0	0	1	blank2r.bmp	0	1	+	0	4	B4r.bmp	-1	1	blank2r.bmp	-1	1	BMVZ	-1	1	blank2r.bmp	-1	1	flaw	-1	1	!	-1	1	blank2r.bmp	-1	0	0	0
012318	14:27:04	1	999	5.0.10.0	5	1	dA12_valB_pract1	dL_A12_A2_unplB	300	300	0	0	23	1	936	1	blank2r.bmp	0	1	+	0	1	B1r.bmp	505	1	blank2r.bmp	693	1	DHJF	693	2	B2r.bmp	835	1	blank2r.bmp	870	2	sick	870	1	!	1199	1	blank2r.bmp	1329
012318	14:27:04	1	999	5.0.10.0	5	2	dA12_valB_pract1	dL_A12_A1_pleasB	300	300	0	0	18	1	2038	1	blank2r.bmp	0	1	+	0	6	C2r.bmp	505	1	blank2r.bmp	693	1	NPLW	693	5	C1r.bmp	835	1	blank2r.bmp	870	2	trust	870	1	!	1199	1	blank2r.bmp	1329
012318	14:27:04	1	999	5.0.10.0	5	3	dA12_valB_pract1	dL_A12_A2_unplB	300	300	0	0	23	1	1034	1	blank2r.bmp	0	1	+	0	5	C1r.bmp	505	1	blank2r.bmp	693	1	DHJF	693	3	B3r.bmp	835	1	blank2r.bmp	870	1	miser	870	1	!	1199	1	blank2r.bmp	1329
012318	14:27:04	1	999	5.0.10.0	5	4	dA12_valB_pract1	dL_A12_A2_pleasB	300	300	0	0	23	1	4507	1	blank2r.bmp	0	1	+	0	8	C4r.bmp	505	1	blank2r.bmp	693	1	DHJF	693	2	B2r.bmp	835	1	blank2r.bmp	870	4	cute	870	1	!	1199	1	blank2r.bmp	1329
012318	14:27:04	1	999	5.0.10.0	5	5	dA12_valB_pract1	dL_A12_A1_pleasB	300	300	0	0	18	1	951	1	blank2r.bmp	0	1	+	0	2	B2r.bmp	505	1	blank2r.bmp	693	1	NPLW	693	7	C3r.bmp	835	1	blank2r.bmp	870	5	best	870	1	!	1199	1	blank2r.bmp	1329
012318	14:27:04	1	999	5.0.10.0	5	6	dA12_valB_pract1	dL_A12_A1_pleasB	300	300	0	0	23	0	613	1	blank2r.bmp	0	1	+	0	6	C2r.bmp	505	1	blank2r.bmp	693	1	NPLW	693	4	B4r.bmp	835	1	blank2r.bmp	870	3	true	870	1	!	1199	1	blank2r.bmp	1329
012318	14:27:04	1	999	5.0.10.0	5	7	dA12_valB_pract1	dL_A12_A1_unplB	300	300	0	0	18	1	372	1	blank2r.bmp	0	1	+	0	2	B2r.bmp	505	1	blank2r.bmp	693	1	NPLW	693	6	C2r.bmp	835	1	blank2r.bmp	870	3	bitter	870	1	!	1199	1	blank2r.bmp	1329
012318	14:27:04	1	999	5.0.10.0	5	8	dA12_valB_pract1	dL_A12_A1_unplB	300	300	0	0	18	1	470	1	blank2r.bmp	0	1	+	0	7	C3r.bmp	505	1	blank2r.bmp	693	1	NPLW	693	1	B1r.bmp	835	1	blank2r.bmp	870	6	victim	870	1	!	1199	1	blank2r.bmp	1329
012318	14:27:04	1	999	5.0.10.0	5	9	dA12_valB_pract1	dL_A12_A2_pleasB	300	300	0	0	18	0	1523	1	blank2r.bmp	0	1	+	0	4	B4r.bmp	505	1	blank2r.bmp	693	1	DHJF	693	8	C4r.bmp	835	1	blank2r.bmp	870	6	better	870	1	!	1199	1	blank2r.bmp	1329
012318	14:27:04	1	999	5.0.10.0	5	10	dA12_valB_pract1	dL_A12_A2_pleasB	300	300	0	0	Ctrl+'B'	0	0	1	blank2r.bmp	0	1	+	0	5	C1r.bmp	505	1	blank2r.bmp	693	1	DHJF	693	3	B3r.bmp	835	1	blank2r.bmp	870	1	kiss	870	1	!	1199	1	blank2r.bmp	1329
012318	14:27:04	1	999	5.0.10.0	6	1	dA12_valB_pract2	dM_A12_A2_pleasB	300	300	0	0	Ctrl+'B'	0	0	1	blank2r.bmp	0	1	+	0	1	B1r.bmp	505	1	blank2r.bmp	729	1	DHJF	729	5	C1r.bmp	835	1	blank2r.bmp	-1	6	better	-1	1	!	-1	1	blank2r.bmp	-1
012318	14:27:04	1	999	5.0.10.0	7	1	dA12_valB_080	d080_A12_A2_pleasB	300	300	0	0	Ctrl+'B'	0	0	1	blank2r.bmp	0	1	+	0	8	C4r.bmp	505	1	blank2r.bmp	799	1	DHJF	799	1	blank2r.bmp	882	5	best	882	1	!	-1	1	blank2r.bmp	-1	0	0	0
012318	14:27:04	1	999	5.0.10.0	8	1	dA12_valB_080	d080_A12_A1_unplB	300	300	0	0	18	1	2471	1	blank2r.bmp	0	1	+	0	3	B3r.bmp	505	1	blank2r.bmp	799	1	NPLW	799	1	blank2r.bmp	882	5	crime	882	1	!	1211	1	blank2r.bmp	1340	0	0	0
012318	14:27:04	1	999	5.0.10.0	8	2	dA12_valB_080	d080_A12_A2_unplB	300	300	0	0	18	0	500	1	blank2r.bmp	0	1	+	0	8	C4r.bmp	505	1	blank2r.bmp	799	1	DHJF	799	1	blank2r.bmp	882	4	bruise	882	1	!	1211	1	blank2r.bmp	1340	0	0	0
012318	14:27:04	1	999	5.0.10.0	8	3	dA12_valB_080	d080_A12_A1_pleasB	300	300	0	0	Ctrl+'B'	0	0	1	blank2r.bmp	0	1	+	0	6	C2r.bmp	505	1	blank2r.bmp	-1	1	NPLW	-1	1	blank2r.bmp	-1	2	trust	-1	1	!	-1	1	blank2r.bmp	-1	0	0	0
012918	14:03:52	1	3	5.0.10.0	1	1	dB12_valA_pract1	dL_B12_B2_pleasA	300	300	0	0	23	1	271	1	blank2r.bmp	0	1	+	0	4	B4r.bmp	505	1	blank2r.bmp	693	1	GKQX	693	3	B3r.bmp	835	1	blank2r.bmp	870	5	friedlich	870	1	!	1199	1	blank2r.bmp	1329
012918	14:03:52	1	3	5.0.10.0	1	2	dB12_valA_pract1	dL_B12_B2_pleasA	300	300	0	0	23	1	164	1	blank2r.bmp	0	1	+	0	1	B1r.bmp	505	1	blank2r.bmp	693	1	GKQX	693	4	B4r.bmp	835	1	blank2r.bmp	870	4	heiter	870	1	!	1199	1	blank2r.bmp	1329
012918	14:03:52	1	3	5.0.10.0	1	3	dB12_valA_pract1	dL_B12_B1_unplA	300	300	0	0	18	1	173	1	blank2r.bmp	0	1	+	0	3	B3r.bmp	505	1	blank2r.bmp	693	1	BMVZ	693	5	C1r.bmp	835	1	blank2r.bmp	870	5	schlecht	870	1	!	1199	1	blank2r.bmp	1329
012918	14:03:52	1	3	5.0.10.0	1	4	dB12_valA_pract1	dL_B12_B1_pleasA	300	300	0	0	18	1	48	1	blank2r.bmp	0	1	+	0	5	C1r.bmp	505	1	blank2r.bmp	693	1	BMVZ	693	1	B1r.bmp	835	1	blank2r.bmp	870	6	froh	870	1	!	1199	1	blank2r.bmp	1329
012918	14:03:52	1	3	5.0.10.0	1	5	dB12_valA_pract1	dL_B12_B1_pleasA	300	300	0	0	18	1	12	1	blank2r.bmp	0	1	+	0	7	C3r.bmp	505	1	blank2r.bmp	693	1	BMVZ	693	8	C4r.bmp	835	1	blank2r.bmp	870	1	toll	870	1	!	1199	1	blank2r.bmp	1329
012918	14:03:52	1	3	5.0.10.0	1	6	dB12_valA_pract1	dL_B12_B2_pleasA	300	300	0	0	23	1	15261	1	blank2r.bmp	0	1	+	0	2	B2r.bmp	505	1	blank2r.bmp	693	1	GKQX	693	6	C2r.bmp	835	1	blank2r.bmp	870	3	freund	870	1	!	1199	1	blank2r.bmp	1329
012918	14:03:52	1	3	5.0.10.0	1	7	dB12_valA_pract1	dL_B12_B1_pleasA	300	300	0	0	18	1	330	1	blank2r.bmp	0	1	+	0	6	C2r.bmp	505	1	blank2r.bmp	693	1	BMVZ	693	2	B2r.bmp	835	1	blank2r.bmp	870	2	schn	870	1	!	1199	1	blank2r.bmp	1329
012918	14:03:52	1	3	5.0.10.0	1	8	dB12_valA_pract1	dL_B12_B1_unplA	300	300	0	0	18	1	3797	1	blank2r.bmp	0	1	+	0	8	C4r.bmp	505	1	blank2r.bmp	693	1	BMVZ	693	7	C3r.bmp	835	1	blank2r.bmp	870	4	elend	870	1	!	1199	1	blank2r.bmp	1329
012918	14:03:52	1	3	5.0.10.0	1	9	dB12_valA_pract1	dL_B12_B2_unplA	300	300	0	0	23	1	4063	1	blank2r.bmp	0	1	+	0	7	C3r.bmp	505	1	blank2r.bmp	693	1	GKQX	693	6	C2r.bmp	835	1	blank2r.bmp	870	6	leiden	870	1	!	1199	1	blank2r.bmp	1329
012918	14:03:52	1	3	5.0.10.0	1	10	dB12_valA_pract1	dL_B12_B2_unplA	300	300	0	0	23	1	3520	1	blank2r.bmp	0	1	+	0	8	C4r.bmp	505	1	blank2r.bmp	693	1	GKQX	693	1	B1r.bmp	835	1	blank2r.bmp	870	3	tten	870	1	!	1199	1	blank2r.bmp	1329
012918	14:03:52	1	3	5.0.10.0	1	11	dB12_valA_pract1	dL_B12_B2_unplA	300	300	0	0	23	1	229	1	blank2r.bmp	0	1	+	0	4	B4r.bmp	505	1	blank2r.bmp	700	1	GKQX	700	7	C3r.bmp	835	1	blank2r.bmp	870	2	neidisch	870	1	!	1199	1	blank2r.bmp	1329
