date	time	group	subject	build	trialcode	blockcode	blocknum	trialnum	pretrialpause	posttrialpause	trialduration	trialtimeout	latency	response	correct	stimulusnumber1	stimulusitem1	stimulusonset1	stimulusnumber2	stimulusitem2	stimulusonset2	stimulusnumber3	stimulusitem3	stimulusonset3	stimulusnumber4	stimulusitem4	stimulusonset4	stimulusnumber5	stimulusitem5	stimulusonset5	stimulusnumber6	stimulusitem6	stimulusonset6	stimulusnumber7	stimulusitem7	stimulusonset7	stimulusnumber8	stimulusitem8	stimulusonset8	stimulusnumber9	stimulusitem9	stimulusonset9	stimulusnumber10	stimulusitem10	stimulusonset10
020518	13:02:10	1	21	5.0.10.0	dL_A12_A2_pleasB	dA12_valB_pract1	1	1	300	300	0	0	3594	18	0	1	blank2r.bmp	0	1	+	0	6	C2r.bmp	500	1	blank2r.bmp	700	1	DHJF	700	8	C4r.bmp	830	1	blank2r.bmp	870	2	mutig	870	1	!	1200	1	blank2r.bmp	1330
020518	13:02:10	1	21	5.0.10.0	dL_A12_A1_pleasB	dA12_valB_pract1	1	2	300	300	0	0	1155	18	1	1	blank2r.bmp	0	1	+	0	1	B1r.bmp	500	1	blank2r.bmp	700	1	NPLW	700	2	B2r.bmp	830	1	blank2r.bmp	870	5	begabt	870	1	!	1200	1	blank2r.bmp	1330
020518	13:02:10	1	21	5.0.10.0	dL_A12_A2_unplB	dA12_valB_pract1	1	3	300	300	0	0	32	23	1	1	blank2r.bmp	0	1	+	0	3	B3r.bmp	500	1	blank2r.bmp	700	1	DHJF	700	5	C1r.bmp	830	1	blank2r.bmp	870	5	kummer	870	1	!	1200	1	blank2r.bmp	1330
020518	13:02:10	1	21	5.0.10.0	dL_A12_A2_pleasB	dA12_valB_pract1	1	4	300	300	0	0	1151	23	1	1	blank2r.bmp	0	1	+	0	7	C3r.bmp	500	1	blank2r.bmp	700	1	DHJF	700	1	B1r.bmp	830	1	blank2r.bmp	870	6	kreativ	870	1	!	1200	1	blank2r.bmp	1330
020518	13:02:10	1	21	5.0.10.0	dL_A12_A2_unplB	dA12_valB_pract1	1	5	300	300	0	0	1120	23	1	1	blank2r.bmp	0	1	+	0	4	B4r.bmp	500	1	blank2r.bmp	700	1	DHJF	700	3	B3r.bmp	830	1	blank2r.bmp	870	3	ärger	870	1	!	1200	1	blank2r.bmp	1330
020518	13:02:10	1	21	5.0.10.0	dL_A12_A1_unplB	dA12_valB_pract1	1	6	300	300	0	0	619	18	1	1	blank2r.bmp	0	1	+	0	2	B2r.bmp	500	1	blank2r.bmp	700	1	NPLW	700	4	B4r.bmp	830	1	blank2r.bmp	870	4	böse	870	1	!	1200	1	blank2r.bmp	1330
020518	13:02:10	1	21	5.0.10.0	dL_A12_A1_unplB	dA12_valB_pract1	1	7	300	300	0	0	743	18	1	1	blank2r.bmp	0	1	+	0	8	C4r.bmp	500	1	blank2r.bmp	700	1	NPLW	700	6	C2r.bmp	830	1	blank2r.bmp	870	2	geizig	870	1	!	1200	1	blank2r.bmp	1330
020518	13:02:10	1	21	5.0.10.0	dL_A12_A1_unplB	dA12_valB_pract1	1	8	300	300	0	0	484	18	1	1	blank2r.bmp	0	1	+	0	5	C1r.bmp	500	1	blank2r.bmp	700	1	NPLW	700	7	C3r.bmp	830	1	blank2r.bmp	870	1	grausam	870	1	!	1200	1	blank2r.bmp	1330
020518	13:02:10	1	21	5.0.10.0	dL_A12_A2_unplB	dA12_valB_pract1	1	9	300	300	0	0	614	23	1	1	blank2r.bmp	0	1	+	0	3	B3r.bmp	500	1	blank2r.bmp	700	1	DHJF	700	4	B4r.bmp	830	1	blank2r.bmp	870	6	traurig	870	1	!	1200	1	blank2r.bmp	1330
020518	13:02:10	1	21	5.0.10.0	dL_A12_A1_pleasB	dA12_valB_pract1	1	10	300	300	0	0	553	18	1	1	blank2r.bmp	0	1	+	0	8	C4r.bmp	500	1	blank2r.bmp	700	1	NPLW	700	5	C1r.bmp	830	1	blank2r.bmp	870	4	treu	870	1	!	1200	1	blank2r.bmp	1330
020518	13:02:10	1	21	5.0.10.0	dL_A12_A1_pleasB	dA12_valB_pract1	1	11	300	300	0	0	529	18	1	1	blank2r.bmp	0	1	+	0	2	B2r.bmp	500	1	blank2r.bmp	700	1	NPLW	700	3	B3r.bmp	830	1	blank2r.bmp	870	1	gut	870	1	!	1200	1	blank2r.bmp	1330
020518	13:02:10	1	21	5.0.10.0	dL_A12_A2_pleasB	dA12_valB_pract1	1	12	300	300	0	0	625	23	1	1	blank2r.bmp	0	1	+	0	1	B1r.bmp	500	1	blank2r.bmp	700	1	DHJF	700	2	B2r.bmp	830	1	blank2r.bmp	870	3	kuss	870	1	!	1200	1	blank2r.bmp	1330
020518	13:02:10	1	21	5.0.10.0	dM_A12_A2_unplB	dA12_valB_pract2	2	1	300	300	0	0	738	23	1	1	blank2r.bmp	0	1	+	0	4	B4r.bmp	500	1	blank2r.bmp	730	1	DHJF	730	7	C3r.bmp	830	1	blank2r.bmp	870	5	kummer	870	1	!	1200	1	blank2r.bmp	1330
020518	13:02:10	1	21	5.0.10.0	dM_A12_A2_pleasB	dA12_valB_pract2	2	2	300	300	0	0	552	23	1	1	blank2r.bmp	0	1	+	0	7	C3r.bmp	500	1	blank2r.bmp	730	1	DHJF	730	8	C4r.bmp	830	1	blank2r.bmp	870	4	treu	870	1	!	1200	1	blank2r.bmp	1330
020518	13:02:10	1	21	5.0.10.0	dM_A12_A1_unplB	dA12_valB_pract2	2	3	300	300	0	0	424	18	1	1	blank2r.bmp	0	1	+	0	6	C2r.bmp	500	1	blank2r.bmp	730	1	NPLW	730	1	B1r.bmp	830	1	blank2r.bmp	870	1	grausam	870	1	!	1200	1	blank2r.bmp	1330
020518	13:02:10	1	21	5.0.10.0	dM_A12_A2_unplB	dA12_valB_pract2	2	4	300	300	0	0	507	23	1	1	blank2r.bmp	0	1	+	0	5	C1r.bmp	500	1	blank2r.bmp	730	1	DHJF	730	6	C2r.bmp	830	1	blank2r.bmp	870	4	böse	870	1	!	1200	1	blank2r.bmp	1330
020518	13:02:10	1	21	5.0.10.0	dM_A12_A1_pleasB	dA12_valB_pract2	2	5	300	300	0	0	780	18	1	1	blank2r.bmp	0	1	+	0	7	C3r.bmp	500	1	blank2r.bmp	730	1	NPLW	730	1	B1r.bmp	830	1	blank2r.bmp	870	1	gut	870	1	!	1200	1	blank2r.bmp	1330
020518	13:02:10	1	21	5.0.10.0	dM_A12_A2_pleasB	dA12_valB_pract2	2	6	300	300	0	0	692	23	1	1	blank2r.bmp	0	1	+	0	4	B4r.bmp	500	1	blank2r.bmp	730	1	DHJF	730	6	C2r.bmp	830	1	blank2r.bmp	870	2	mutig	870	1	!	1200	1	blank2r.bmp	1330
020518	13:02:10	1	21	5.0.10.0	dM_A12_A2_unplB	dA12_valB_pract2	2	7	300	300	0	0	591	23	1	1	blank2r.bmp	0	1	+	0	2	B2r.bmp	500	1	blank2r.bmp	730	1	DHJF	730	5	C1r.bmp	830	1	blank2r.bmp	870	6	traurig	870	1	!	1200	1	blank2r.bmp	1330
020518	13:02:10	1	21	5.0.10.0	dM_A12_A1_pleasB	dA12_valB_pract2	2	8	300	300	0	0	404	18	1	1	blank2r.bmp	0	1	+	0	5	C1r.bmp	500	1	blank2r.bmp	730	1	NPLW	730	4	B4r.bmp	830	1	blank2r.bmp	870	6	kreativ	870	1	!	1200	1	blank2r.bmp	1330
020518	13:02:10	1	21	5.0.10.0	dM_A12_A1_pleasB	dA12_valB_pract2	2	9	300	300	0	0	410	23	0	1	blank2r.bmp	0	1	+	0	3	B3r.bmp	500	1	blank2r.bmp	730	1	NPLW	730	2	B2r.bmp	830	1	blank2r.bmp	870	5	begabt	870	1	!	1200	1	blank2r.bmp	1330
020518	13:02:10	1	21	5.0.10.0	dM_A12_A1_unplB	dA12_valB_pract2	2	10	300	300	0	0	262	18	1	1	blank2r.bmp	0	1	+	0	6	C2r.bmp	500	1	blank2r.bmp	730	1	NPLW	730	3	B3r.bmp	830	1	blank2r.bmp	870	2	geizig	870	1	!	1200	1	blank2r.bmp	1330
020518	13:02:10	1	21	5.0.10.0	dM_A12_A1_unplB	dA12_valB_pract2	2	11	300	300	0	0	713	18	1	1	blank2r.bmp	0	1	+	0	1	B1r.bmp	500	1	blank2r.bmp	730	1	NPLW	730	7	C3r.bmp	830	1	blank2r.bmp	870	3	ärger	870	1	!	1200	1	blank2r.bmp	1330
020518	13:02:10	1	21	5.0.10.0	dM_A12_A2_pleasB	dA12_valB_pract2	2	12	300	300	0	0	415	23	1	1	blank2r.bmp	0	1	+	0	8	C4r.bmp	500	1	blank2r.bmp	730	1	DHJF	730	8	C4r.bmp	830	1	blank2r.bmp	870	3	kuss	870	1	!	1200	1	blank2r.bmp	1330
020518	13:02:10	1	21	5.0.10.0	d070_A12_A2_unplB	dA12_valB_070	3	1	300	300	0	0	438	23	1	1	blank2r.bmp	0	1	+	0	3	B3r.bmp	500	1	blank2r.bmp	800	1	DHJF	800	1	blank2r.bmp	870	1	grausam	870	1	!	1200	1	blank2r.bmp	1330	0	0	0
020518	13:02:10	1	21	5.0.10.0	d070_A12_A1_unplB	dA12_valB_070	3	2	300	300	0	0	966	23	0	1	blank2r.bmp	0	1	+	0	5	C1r.bmp	500	1	blank2r.bmp	800	1	NPLW	800	1	blank2r.bmp	870	4	böse	870	1	!	1200	1	blank2r.bmp	1330	0	0	0
020518	13:02:10	1	21	5.0.10.0	d070_A12_A2_unplB	dA12_valB_070	3	3	300	300	0	0	407	23	1	1	blank2r.bmp	0	1	+	0	6	C2r.bmp	500	1	blank2r.bmp	800	1	DHJF	800	1	blank2r.bmp	870	5	kummer	870	1	!	1200	1	blank2r.bmp	1330	0	0	0
020518	13:02:10	1	21	5.0.10.0	d070_A12_A1_unplB	dA12_valB_070	3	4	300	300	0	0	512	18	1	1	blank2r.bmp	0	1	+	0	8	C4r.bmp	500	1	blank2r.bmp	800	1	NPLW	800	1	blank2r.bmp	870	3	ärger	870	1	!	1200	1	blank2r.bmp	1330	0	0	0
020518	13:02:10	1	21	5.0.10.0	d070_A12_A2_pleasB	dA12_valB_070	3	5	300	300	0	0	946	23	1	1	blank2r.bmp	0	1	+	0	4	B4r.bmp	500	1	blank2r.bmp	800	1	DHJF	800	1	blank2r.bmp	870	2	mutig	870	1	!	1200	1	blank2r.bmp	1330	0	0	0
020518	13:02:10	1	21	5.0.10.0	d070_A12_A2_pleasB	dA12_valB_070	3	6	300	300	0	0	800	23	1	1	blank2r.bmp	0	1	+	0	2	B2r.bmp	500	1	blank2r.bmp	800	1	DHJF	800	1	blank2r.bmp	870	5	begabt	870	1	!	1200	1	blank2r.bmp	1330	0	0	0
020518	13:02:10	1	21	5.0.10.0	d070_A12_A2_unplB	dA12_valB_070	3	7	300	300	0	0	833	18	0	1	blank2r.bmp	0	1	+	0	1	B1r.bmp	500	1	blank2r.bmp	800	1	DHJF	800	1	blank2r.bmp	870	6	traurig	870	1	!	1200	1	blank2r.bmp	1330	0	0	0
020518	13:02:10	1	21	5.0.10.0	d070_A12_A1_pleasB	dA12_valB_070	3	8	300	300	0	0	773	18	1	1	blank2r.bmp	0	1	+	0	7	C3r.bmp	500	1	blank2r.bmp	800	1	NPLW	800	1	blank2r.bmp	870	3	kuss	870	1	!	1200	1	blank2r.bmp	1330	0	0	0
020518	13:02:10	1	21	5.0.10.0	d070_A12_A1_pleasB	dA12_valB_070	3	9	300	300	0	0	356	18	1	1	blank2r.bmp	0	1	+	0	7	C3r.bmp	500	1	blank2r.bmp	800	1	NPLW	800	1	blank2r.bmp	870	4	treu	870	1	!	1200	1	blank2r.bmp	1330	0	0	0
020518	13:02:10	1	21	5.0.10.0	d070_A12_A2_unplB	dA12_valB_070	3	10	300	300	0	0	379	23	1	1	blank2r.bmp	0	1	+	0	4	B4r.bmp	500	1	blank2r.bmp	800	1	DHJF	800	1	blank2r.bmp	870	2	geizig	870	1	!	1200	1	blank2r.bmp	1330	0	0	0
020518	13:02:10	1	21	5.0.10.0	d070_A12_A2_unplB	dA12_valB_070	3	11	300	300	0	0	499	23	1	1	blank2r.bmp	0	1	+	0	2	B2r.bmp	500	1	blank2r.bmp	800	1	DHJF	800	1	blank2r.bmp	870	3	ärger	870	1	!	1200	1	blank2r.bmp	1330	0	0	0
020518	13:02:10	1	21	5.0.10.0	d070_A12_A2_pleasB	dA12_valB_070	3	12	300	300	0	0	388	23	1	1	blank2r.bmp	0	1	+	0	5	C1r.bmp	500	1	blank2r.bmp	800	1	DHJF	800	1	blank2r.bmp	870	1	gut	870	1	!	1200	1	blank2r.bmp	1330	0	0	0
020518	13:02:10	1	21	5.0.10.0	d070_A12_A2_pleasB	dA12_valB_070	3	13	300	300	0	0	608	23	1	1	blank2r.bmp	0	1	+	0	6	C2r.bmp	500	1	blank2r.bmp	800	1	DHJF	800	1	blank2r.bmp	870	6	kreativ	870	1	!	1200	1	blank2r.bmp	1330	0	0	0
020518	13:02:10	1	21	5.0.10.0	d070_A12_A2_pleasB	dA12_valB_070	3	14	300	300	0	0	210	18	0	1	blank2r.bmp	0	1	+	0	3	B3r.bmp	500	1	blank2r.bmp	800	1	DHJF	800	1	blank2r.bmp	870	6	kreativ	870	1	!	1200	1	blank2r.bmp	1330	0	0	0
020518	13:02:10	1	21	5.0.10.0	d070_A12_A2_pleasB	dA12_valB_070	3	15	300	300	0	0	798	23	1	1	blank2r.bmp	0	1	+	0	1	B1r.bmp	500	1	blank2r.bmp	800	1	DHJF	800	1	blank2r.bmp	870	1	gut	870	1	!	1200	1	blank2r.bmp	1330	0	0	0
020518	13:02:10	1	21	5.0.10.0	d070_A12_A1_pleasB	dA12_valB_070	3	16	300	300	0	0	333	23	0	1	blank2r.bmp	0	1	+	0	8	C4r.bmp	500	1	blank2r.bmp	800	1	NPLW	800	1	blank2r.bmp	870	3	kuss	870	1	!	1200	1	blank2r.bmp	1330	0	0	0
020518	13:02:10	1	21	5.0.10.0	d070_A12_A1_unplB	dA12_valB_070	3	17	300	300	0	0	301	23	0	1	blank2r.bmp	0	1	+	0	7	C3r.bmp	500	1	blank2r.bmp	800	1	NPLW	800	1	blank2r.bmp	870	4	böse	870	1	!	1200	1	blank2r.bmp	1330	0	0	0
020518	13:02:10	1	21	5.0.10.0	d070_A12_A1_pleasB	dA12_valB_070	3	18	300	300	0	0	241	18	1	1	blank2r.bmp	0	1	+	0	8	C4r.bmp	500	1	blank2r.bmp	800	1	NPLW	800	1	blank2r.bmp	870	4	treu	870	1	!	1200	1	blank2r.bmp	1330	0	0	0
020518	13:02:10	1	21	5.0.10.0	d070_A12_A2_unplB	dA12_valB_070	3	19	300	300	0	0	429	23	1	1	blank2r.bmp	0	1	+	0	1	B1r.bmp	500	1	blank2r.bmp	800	1	DHJF	800	1	blank2r.bmp	870	5	kummer	870	1	!	1200	1	blank2r.bmp	1330	0	0	0
020518	13:02:10	1	21	5.0.10.0	d070_A12_A1_unplB	dA12_valB_070	3	20	300	300	0	0	485	23	0	1	blank2r.bmp	0	1	+	0	6	C2r.bmp	500	1	blank2r.bmp	800	1	NPLW	800	1	blank2r.bmp	870	6	traurig	870	1	!	1200	1	blank2r.bmp	1330	0	0	0
020518	13:02:10	1	21	5.0.10.0	d070_A12_A1_pleasB	dA12_valB_070	3	21	300	300	0	0	385	23	0	1	blank2r.bmp	0	1	+	0	5	C1r.bmp	500	1	blank2r.bmp	800	1	NPLW	800	1	blank2r.bmp	870	5	begabt	870	1	!	1200	1	blank2r.bmp	1330	0	0	0
020518	13:02:10	1	21	5.0.10.0	d070_A12_A2_pleasB	dA12_valB_070	3	22	300	300	0	0	428	18	0	1	blank2r.bmp	0	1	+	0	3	B3r.bmp	500	1	blank2r.bmp	800	1	DHJF	800	1	blank2r.bmp	870	2	mutig	870	1	!	1200	1	blank2r.bmp	1330	0	0	0
020518	13:02:10	1	21	5.0.10.0	d070_A12_A2_pleasB	dA12_valB_070	3	23	300	300	0	0	321	23	1	1	blank2r.bmp	0	1	+	0	4	B4r.bmp	500	1	blank2r.bmp	800	1	DHJF	800	1	blank2r.bmp	870	4	treu	870	1	!	1200	1	blank2r.bmp	1330	0	0	0
020518	13:02:10	1	21	5.0.10.0	d070_A12_A1_unplB	dA12_valB_070	3	24	300	300	0	0	323	23	0	1	blank2r.bmp	0	1	+	0	2	B2r.bmp	500	1	blank2r.bmp	800	1	NPLW	800	1	blank2r.bmp	870	1	grausam	870	1	!	1200	1	blank2r.bmp	1330	0	0	0
020518	13:02:10	1	21	5.0.10.0	d070_A12_A2_pleasB	dA12_valB_070	3	25	300	300	0	0	315	23	1	1	blank2r.bmp	0	1	+	0	8	C4r.bmp	500	1	blank2r.bmp	800	1	DHJF	800	1	blank2r.bmp	870	3	kuss	870	1	!	1200	1	blank2r.bmp	1330	0	0	0
020518	13:02:10	1	21	5.0.10.0	d070_A12_A1_pleasB	dA12_valB_070	3	26	300	300	0	0	604	18	1	1	blank2r.bmp	0	1	+	0	5	C1r.bmp	500	1	blank2r.bmp	800	1	NPLW	800	1	blank2r.bmp	870	2	mutig	870	1	!	1200	1	blank2r.bmp	1330	0	0	0
020518	13:02:10	1	21	5.0.10.0	d070_A12_A1_unplB	dA12_valB_070	3	27	300	300	0	0	368	18	1	1	blank2r.bmp	0	1	+	0	1	B1r.bmp	500	1	blank2r.bmp	800	1	NPLW	800	1	blank2r.bmp	870	2	geizig	870	1	!	1200	1	blank2r.bmp	1330	0	0	0
020518	13:02:10	1	21	5.0.10.0	d070_A12_A1_pleasB	dA12_valB_070	3	28	300	300	0	0	550	18	1	1	blank2r.bmp	0	1	+	0	7	C3r.bmp	500	1	blank2r.bmp	800	1	NPLW	800	1	blank2r.bmp	870	5	begabt	870	1	!	1200	1	blank2r.bmp	1330	0	0	0
020518	13:02:10	1	21	5.0.10.0	d070_A12_A2_pleasB	dA12_valB_070	3	29	300	300	0	0	1064	23	1	1	blank2r.bmp	0	1	+	0	4	B4r.bmp	500	1	blank2r.bmp	800	1	DHJF	800	1	blank2r.bmp	870	1	gut	870	1	!	1200	1	blank2r.bmp	1330	0	0	0
020518	13:02:10	1	21	5.0.10.0	d070_A12_A2_unplB	dA12_valB_070	3	30	300	300	0	0	634	18	0	1	blank2r.bmp	0	1	+	0	6	C2r.bmp	500	1	blank2r.bmp	800	1	DHJF	800	1	blank2r.bmp	870	6	traurig	870	1	!	1200	1	blank2r.bmp	1330	0	0	0
020518	13:02:10	1	21	5.0.10.0	d070_A12_A1_pleasB	dA12_valB_070	3	31	300	300	0	0	828	23	0	1	blank2r.bmp	0	1	+	0	2	B2r.bmp	500	1	blank2r.bmp	800	1	NPLW	800	1	blank2r.bmp	870	6	kreativ	870	1	!	1200	1	blank2r.bmp	1330	0	0	0
020518	13:02:10	1	21	5.0.10.0	d070_A12_A1_pleasB	dA12_valB_070	3	32	300	300	0	0	630	18	1	1	blank2r.bmp	0	1	+	0	3	B3r.bmp	500	1	blank2r.bmp	800	1	NPLW	800	1	blank2r.bmp	870	5	begabt	870	1	!	1200	1	blank2r.bmp	1330	0	0	0
020518	13:02:10	1	21	5.0.10.0	d070_A12_A2_unplB	dA12_valB_070	3	33	300	300	0	0	465	23	1	1	blank2r.bmp	0	1	+	0	2	B2r.bmp	500	1	blank2r.bmp	800	1	DHJF	800	1	blank2r.bmp	870	1	grausam	870	1	!	1200	1	blank2r.bmp	1330	0	0	0
020518	13:02:10	1	21	5.0.10.0	d070_A12_A2_unplB	dA12_valB_070	3	34	300	300	0	0	380	23	1	1	blank2r.bmp	0	1	+	0	1	B1r.bmp	500	1	blank2r.bmp	800	1	DHJF	800	1	blank2r.bmp	870	5	kummer	870	1	!	1200	1	blank2r.bmp	1330	0	0	0
020518	13:02:10	1	21	5.0.10.0	d070_A12_A2_unplB	dA12_valB_070	3	35	300	300	0	0	408	23	1	1	blank2r.bmp	0	1	+	0	5	C1r.bmp	500	1	blank2r.bmp	800	1	DHJF	800	1	blank2r.bmp	870	2	geizig	870	1	!	1200	1	blank2r.bmp	1330	0	0	0
020518	13:02:10	1	21	5.0.10.0	d070_A12_A2_pleasB	dA12_valB_070	3	36	300	300	0	0	410	23	1	1	blank2r.bmp	0	1	+	0	4	B4r.bmp	500	1	blank2r.bmp	800	1	DHJF	800	1	blank2r.bmp	870	6	kreativ	870	1	!	1200	1	blank2r.bmp	1330	0	0	0
020518	13:02:10	1	21	5.0.10.0	d070_A12_A1_pleasB	dA12_valB_070	3	37	300	300	0	0	172	18	1	1	blank2r.bmp	0	1	+	0	3	B3r.bmp	500	1	blank2r.bmp	800	1	NPLW	800	1	blank2r.bmp	870	4	treu	870	1	!	1200	1	blank2r.bmp	1330	0	0	0
020518	13:02:10	1	21	5.0.10.0	d070_A12_A1_unplB	dA12_valB_070	3	38	300	300	0	0	226	23	0	1	blank2r.bmp	0	1	+	0	7	C3r.bmp	500	1	blank2r.bmp	800	1	NPLW	800	1	blank2r.bmp	870	3	ärger	870	1	!	1200	1	blank2r.bmp	1330	0	0	0
020518	13:02:10	1	21	5.0.10.0	d070_A12_A2_unplB	dA12_valB_070	3	39	300	300	0	0	679	23	1	1	blank2r.bmp	0	1	+	0	6	C2r.bmp	500	1	blank2r.bmp	800	1	DHJF	800	1	blank2r.bmp	870	4	böse	870	1	!	1200	1	blank2r.bmp	1330	0	0	0
020518	13:02:10	1	21	5.0.10.0	d070_A12_A2_pleasB	dA12_valB_070	3	40	300	300	0	0	627	18	0	1	blank2r.bmp	0	1	+	0	8	C4r.bmp	500	1	blank2r.bmp	800	1	DHJF	800	1	blank2r.bmp	870	2	mutig	870	1	!	1200	1	blank2r.bmp	1330	0	0	0
020518	13:02:10	1	21	5.0.10.0	d070_A12_A1_unplB	dA12_valB_070	3	41	300	300	0	0	514	23	0	1	blank2r.bmp	0	1	+	0	2	B2r.bmp	500	1	blank2r.bmp	800	1	NPLW	800	1	blank2r.bmp	870	1	grausam	870	1	!	1200	1	blank2r.bmp	1330	0	0	0
020518	13:02:10	1	21	5.0.10.0	d070_A12_A1_pleasB	dA12_valB_070	3	42	300	300	0	0	744	23	0	1	blank2r.bmp	0	1	+	0	7	C3r.bmp	500	1	blank2r.bmp	800	1	NPLW	800	1	blank2r.bmp	870	3	kuss	870	1	!	1200	1	blank2r.bmp	1330	0	0	0
020518	13:02:10	1	21	5.0.10.0	d070_A12_A1_pleasB	dA12_valB_070	3	43	300	300	0	0	1362	23	0	1	blank2r.bmp	0	1	+	0	4	B4r.bmp	500	1	blank2r.bmp	800	1	NPLW	800	1	blank2r.bmp	870	1	gut	870	1	!	1200	1	blank2r.bmp	1330	0	0	0
020518	13:02:10	1	21	5.0.10.0	d070_A12_A1_unplB	dA12_valB_070	3	44	300	300	0	0	553	18	1	1	blank2r.bmp	0	1	+	0	6	C2r.bmp	500	1	blank2r.bmp	800	1	NPLW	800	1	blank2r.bmp	870	6	traurig	870	1	!	1200	1	blank2r.bmp	1330	0	0	0
020518	13:02:10	1	21	5.0.10.0	d070_A12_A1_unplB	dA12_valB_070	3	45	300	300	0	0	520	18	1	1	blank2r.bmp	0	1	+	0	5	C1r.bmp	500	1	blank2r.bmp	800	1	NPLW	800	1	blank2r.bmp	870	2	geizig	870	1	!	1200	1	blank2r.bmp	1330	0	0	0
020518	13:02:10	1	21	5.0.10.0	d070_A12_A2_unplB	dA12_valB_070	3	46	300	300	0	0	477	23	1	1	blank2r.bmp	0	1	+	0	3	B3r.bmp	500	1	blank2r.bmp	800	1	DHJF	800	1	blank2r.bmp	870	4	böse	870	1	!	1200	1	blank2r.bmp	1330	0	0	0
020518	13:02:10	1	21	5.0.10.0	d070_A12_A1_unplB	dA12_valB_070	3	47	300	300	0	0	829	23	0	1	blank2r.bmp	0	1	+	0	8	C4r.bmp	500	1	blank2r.bmp	800	1	NPLW	800	1	blank2r.bmp	870	5	kummer	870	1	!	1200	1	blank2r.bmp	1330	0	0	0
020518	13:02:10	1	21	5.0.10.0	d070_A12_A1_unplB	dA12_valB_070	3	48	300	300	0	0	704	18	1	1	blank2r.bmp	0	1	+	0	1	B1r.bmp	500	1	blank2r.bmp	800	1	NPLW	800	1	blank2r.bmp	870	3	ärger	870	1	!	1200	1	blank2r.bmp	1330	0	0	0
020518	13:02:10	1	21	5.0.10.0	d070_A12_A2_unplB	dA12_valB_070	4	1	300	300	0	0	255	23	1	1	blank2r.bmp	0	1	+	0	7	C3r.bmp	500	1	blank2r.bmp	800	1	DHJF	800	1	blank2r.bmp	870	5	kummer	870	1	!	1200	1	blank2r.bmp	1330	0	0	0
020518	13:02:10	1	21	5.0.10.0	d070_A12_A1_unplB	dA12_valB_070	4	2	300	300	0	0	202	23	0	1	blank2r.bmp	0	1	+	0	6	C2r.bmp	500	1	blank2r.bmp	800	1	NPLW	800	1	blank2r.bmp	870	1	grausam	870	1	!	1200	1	blank2r.bmp	1330	0	0	0
020518	13:02:10	1	21	5.0.10.0	d070_A12_A2_pleasB	dA12_valB_070	4	3	300	300	0	0	278	23	1	1	blank2r.bmp	0	1	+	0	8	C4r.bmp	500	1	blank2r.bmp	800	1	DHJF	800	1	blank2r.bmp	870	6	kreativ	870	1	!	1200	1	blank2r.bmp	1330	0	0	0
020518	13:02:10	1	21	5.0.10.0	d070_A12_A1_pleasB	dA12_valB_070	4	4	300	300	0	0	132	18	1	1	blank2r.bmp	0	1	+	0	5	C1r.bmp	500	1	blank2r.bmp	800	1	NPLW	800	1	blank2r.bmp	870	2	mutig	870	1	!	1200	1	blank2r.bmp	1330	0	0	0
020518	13:02:10	1	21	5.0.10.0	d070_A12_A2_pleasB	dA12_valB_070	4	5	300	300	0	0	285	23	1	1	blank2r.bmp	0	1	+	0	3	B3r.bmp	500	1	blank2r.bmp	800	1	DHJF	800	1	blank2r.bmp	870	5	begabt	870	1	!	1200	1	blank2r.bmp	1330	0	0	0
020518	13:02:10	1	21	5.0.10.0	d070_A12_A1_unplB	dA12_valB_070	4	6	300	300	0	0	348	23	0	1	blank2r.bmp	0	1	+	0	4	B4r.bmp	500	1	blank2r.bmp	800	1	NPLW	800	1	blank2r.bmp	870	2	geizig	870	1	!	1200	1	blank2r.bmp	1330	0	0	0
020518	13:02:10	1	21	5.0.10.0	d070_A12_A2_pleasB	dA12_valB_070	4	7	300	300	0	0	559	23	1	1	blank2r.bmp	0	1	+	0	1	B1r.bmp	500	1	blank2r.bmp	800	1	DHJF	800	1	blank2r.bmp	870	1	gut	870	1	!	1200	1	blank2r.bmp	1330	0	0	0
020518	13:02:10	1	21	5.0.10.0	d070_A12_A2_pleasB	dA12_valB_070	4	8	300	300	0	0	209	23	1	1	blank2r.bmp	0	1	+	0	2	B2r.bmp	500	1	blank2r.bmp	800	1	DHJF	800	1	blank2r.bmp	870	3	kuss	870	1	!	1200	1	blank2r.bmp	1330	0	0	0
020518	13:02:10	1	21	5.0.10.0	d070_A12_A2_unplB	dA12_valB_070	4	9	300	300	0	0	198	18	0	1	blank2r.bmp	0	1	+	0	7	C3r.bmp	500	1	blank2r.bmp	800	1	DHJF	800	1	blank2r.bmp	870	4	böse	870	1	!	1200	1	blank2r.bmp	1330	0	0	0
020518	13:02:10	1	21	5.0.10.0	d070_A12_A2_unplB	dA12_valB_070	4	10	300	300	0	0	249	23	1	1	blank2r.bmp	0	1	+	0	8	C4r.bmp	500	1	blank2r.bmp	800	1	DHJF	800	1	blank2r.bmp	870	6	traurig	870	1	!	1200	1	blank2r.bmp	1330	0	0	0
020518	13:02:10	1	21	5.0.10.0	d070_A12_A2_pleasB	dA12_valB_070	4	11	300	300	0	0	236	23	1	1	blank2r.bmp	0	1	+	0	2	B2r.bmp	500	1	blank2r.bmp	800	1	DHJF	800	1	blank2r.bmp	870	4	treu	870	1	!	1200	1	blank2r.bmp	1330	0	0	0
020518	13:02:10	1	21	5.0.10.0	d070_A12_A1_pleasB	dA12_valB_070	4	12	300	300	0	0	349	23	0	1	blank2r.bmp	0	1	+	0	1	B1r.bmp	500	1	blank2r.bmp	800	1	NPLW	800	1	blank2r.bmp	870	4	treu	870	1	!	1200	1	blank2r.bmp	1330	0	0	0
020518	13:02:10	1	21	5.0.10.0	d070_A12_A1_unplB	dA12_valB_070	4	13	300	300	0	0	574	18	1	1	blank2r.bmp	0	1	+	0	4	B4r.bmp	500	1	blank2r.bmp	800	1	NPLW	800	1	blank2r.bmp	870	3	ärger	870	1	!	1200	1	blank2r.bmp	1330	0	0	0
020518	13:02:10	1	21	5.0.10.0	d070_A12_A1_pleasB	dA12_valB_070	4	14	300	300	0	0	664	18	1	1	blank2r.bmp	0	1	+	0	3	B3r.bmp	500	1	blank2r.bmp	800	1	NPLW	800	1	blank2r.bmp	870	5	begabt	870	1	!	1200	1	blank2r.bmp	1330	0	0	0
020518	13:02:10	1	21	5.0.10.0	d070_A12_A2_pleasB	dA12_valB_070	4	15	300	300	0	0	1106	23	1	1	blank2r.bmp	0	1	+	0	6	C2r.bmp	500	1	blank2r.bmp	800	1	DHJF	800	1	blank2r.bmp	870	1	gut	870	1	!	1200	1	blank2r.bmp	1330	0	0	0
020518	13:02:10	1	21	5.0.10.0	d070_A12_A2_unplB	dA12_valB_070	4	16	300	300	0	0	486	18	0	1	blank2r.bmp	0	1	+	0	5	C1r.bmp	500	1	blank2r.bmp	800	1	DHJF	800	1	blank2r.bmp	870	2	geizig	870	1	!	1200	1	blank2r.bmp	1330	0	0	0
020518	13:02:10	1	21	5.0.10.0	d070_A12_A1_unplB	dA12_valB_070	4	17	300	300	0	0	536	18	1	1	blank2r.bmp	0	1	+	0	4	B4r.bmp	500	1	blank2r.bmp	800	1	NPLW	800	1	blank2r.bmp	870	4	böse	870	1	!	1200	1	blank2r.bmp	1330	0	0	0
020518	13:02:10	1	21	5.0.10.0	d070_A12_A1_pleasB	dA12_valB_070	4	18	300	300	0	0	394	18	1	1	blank2r.bmp	0	1	+	0	1	B1r.bmp	500	1	blank2r.bmp	800	1	NPLW	800	1	blank2r.bmp	870	3	kuss	870	1	!	1200	1	blank2r.bmp	1330	0	0	0
020518	13:02:10	1	21	5.0.10.0	d070_A12_A2_unplB	dA12_valB_070	4	19	300	300	0	0	1828	23	1	1	blank2r.bmp	0	1	+	0	2	B2r.bmp	500	1	blank2r.bmp	800	1	DHJF	800	1	blank2r.bmp	870	5	kummer	870	1	!	1200	1	blank2r.bmp	1330	0	0	0
020518	13:02:10	1	21	5.0.10.0	d070_A12_A2_pleasB	dA12_valB_070	4	20	300	300	0	0	682	23	1	1	blank2r.bmp	0	1	+	0	8	C4r.bmp	500	1	blank2r.bmp	800	1	DHJF	800	1	blank2r.bmp	870	2	mutig	870	1	!	1200	1	blank2r.bmp	1330	0	0	0
020518	13:02:10	1	21	5.0.10.0	d070_A12_A2_pleasB	dA12_valB_070	4	21	300	300	0	0	403	18	0	1	blank2r.bmp	0	1	+	0	6	C2r.bmp	500	1	blank2r.bmp	800	1	DHJF	800	1	blank2r.bmp	870	6	kreativ	870	1	!	1200	1	blank2r.bmp	1330	0	0	0
020518	13:02:10	1	21	5.0.10.0	d070_A12_A1_pleasB	dA12_valB_070	4	22	300	300	0	0	1354	23	0	1	blank2r.bmp	0	1	+	0	7	C3r.bmp	500	1	blank2r.bmp	800	1	NPLW	800	1	blank2r.bmp	870	6	kreativ	870	1	!	1200	1	blank2r.bmp	1330	0	0	0
020518	13:02:10	1	21	5.0.10.0	d070_A12_A2_pleasB	dA12_valB_070	4	23	300	300	0	0	563	23	1	1	blank2r.bmp	0	1	+	0	3	B3r.bmp	500	1	blank2r.bmp	800	1	DHJF	800	1	blank2r.bmp	870	1	gut	870	1	!	1200	1	blank2r.bmp	1330	0	0	0
020518	13:02:10	1	21	5.0.10.0	d070_A12_A1_unplB	dA12_valB_070	4	24	300	300	0	0	944	23	0	1	blank2r.bmp	0	1	+	0	5	C1r.bmp	500	1	blank2r.bmp	800	1	NPLW	800	1	blank2r.bmp	870	1	grausam	870	1	!	1200	1	blank2r.bmp	1330	0	0	0
020518	13:02:10	1	21	5.0.10.0	d070_A12_A2_unplB	dA12_valB_070	4	25	300	300	0	0	254	18	0	1	blank2r.bmp	0	1	+	0	8	C4r.bmp	500	1	blank2r.bmp	800	1	DHJF	800	1	blank2r.bmp	870	3	ärger	870	1	!	1200	1	blank2r.bmp	1330	0	0	0
020518	13:02:10	1	21	5.0.10.0	d070_A12_A2_pleasB	dA12_valB_070	4	26	300	300	0	0	621	23	1	1	blank2r.bmp	0	1	+	0	4	B4r.bmp	500	1	blank2r.bmp	800	1	DHJF	800	1	blank2r.bmp	870	4	treu	870	1	!	1200	1	blank2r.bmp	1330	0	0	0
020518	13:02:10	1	21	5.0.10.0	d070_A12_A2_unplB	dA12_valB_070	4	27	300	300	0	0	480	23	1	1	blank2r.bmp	0	1	+	0	1	B1r.bmp	500	1	blank2r.bmp	800	1	DHJF	800	1	blank2r.bmp	870	6	traurig	870	1	!	1200	1	blank2r.bmp	1330	0	0	0
020518	13:02:10	1	21	5.0.10.0	d070_A12_A1_unplB	dA12_valB_070	4	28	300	300	0	0	366	23	0	1	blank2r.bmp	0	1	+	0	3	B3r.bmp	500	1	blank2r.bmp	800	1	NPLW	800	1	blank2r.bmp	870	4	böse	870	1	!	1200	1	blank2r.bmp	1330	0	0	0
020518	13:02:10	1	21	5.0.10.0	d070_A12_A1_pleasB	dA12_valB_070	4	29	300	300	0	0	657	18	1	1	blank2r.bmp	0	1	+	0	7	C3r.bmp	500	1	blank2r.bmp	800	1	NPLW	800	1	blank2r.bmp	870	5	begabt	870	1	!	1200	1	blank2r.bmp	1330	0	0	0
020518	13:02:10	1	21	5.0.10.0	d070_A12_A1_unplB	dA12_valB_070	4	30	300	300	0	0	464	23	0	1	blank2r.bmp	0	1	+	0	5	C1r.bmp	500	1	blank2r.bmp	800	1	NPLW	800	1	blank2r.bmp	870	3	ärger	870	1	!	1200	1	blank2r.bmp	1330	0	0	0
020518	13:02:10	1	21	5.0.10.0	d070_A12_A2_unplB	dA12_valB_070	4	31	300	300	0	0	285	23	1	1	blank2r.bmp	0	1	+	0	6	C2r.bmp	500	1	blank2r.bmp	800	1	DHJF	800	1	blank2r.bmp	870	1	grausam	870	1	!	1200	1	blank2r.bmp	1330	0	0	0
020518	13:02:10	1	21	5.0.10.0	d070_A12_A2_unplB	dA12_valB_070	4	32	300	300	0	0	355	23	1	1	blank2r.bmp	0	1	+	0	2	B2r.bmp	500	1	blank2r.bmp	800	1	DHJF	800	1	blank2r.bmp	870	6	traurig	870	1	!	1200	1	blank2r.bmp	1330	0	0	0
020518	13:02:10	1	21	5.0.10.0	d070_A12_A1_unplB	dA12_valB_070	4	33	300	300	0	0	183	18	1	1	blank2r.bmp	0	1	+	0	7	C3r.bmp	500	1	blank2r.bmp	800	1	NPLW	800	1	blank2r.bmp	870	2	geizig	870	1	!	1200	1	blank2r.bmp	1330	0	0	0
020518	13:02:10	1	21	5.0.10.0	d070_A12_A2_pleasB	dA12_valB_070	4	34	300	300	0	0	300	18	0	1	blank2r.bmp	0	1	+	0	6	C2r.bmp	500	1	blank2r.bmp	800	1	DHJF	800	1	blank2r.bmp	870	3	kuss	870	1	!	1200	1	blank2r.bmp	1330	0	0	0
020518	13:02:10	1	21	5.0.10.0	d070_A12_A1_pleasB	dA12_valB_070	4	35	300	300	0	0	262	23	0	1	blank2r.bmp	0	1	+	0	8	C4r.bmp	500	1	blank2r.bmp	800	1	NPLW	800	1	blank2r.bmp	870	2	mutig	870	1	!	1200	1	blank2r.bmp	1330	0	0	0
020518	13:02:10	1	21	5.0.10.0	d070_A12_A1_unplB	dA12_valB_070	4	36	300	300	0	0	314	23	0	1	blank2r.bmp	0	1	+	0	5	C1r.bmp	500	1	blank2r.bmp	800	1	NPLW	800	1	blank2r.bmp	870	5	kummer	870	1	!	1200	1	blank2r.bmp	1330	0	0	0
020518	13:02:10	1	21	5.0.10.0	d070_A12_A1_unplB	dA12_valB_070	4	37	300	300	0	0	382	23	0	1	blank2r.bmp	0	1	+	0	4	B4r.bmp	500	1	blank2r.bmp	800	1	NPLW	800	1	blank2r.bmp	870	5	kummer	870	1	!	1200	1	blank2r.bmp	1330	0	0	0
020518	13:02:10	1	21	5.0.10.0	d070_A12_A1_unplB	dA12_valB_070	4	38	300	300	0	0	1571	18	1	1	blank2r.bmp	0	1	+	0	1	B1r.bmp	500	1	blank2r.bmp	800	1	NPLW	800	1	blank2r.bmp	870	6	traurig	870	1	!	1200	1	blank2r.bmp	1330	0	0	0
020518	13:02:10	1	21	5.0.10.0	d070_A12_A2_unplB	dA12_valB_070	4	39	300	300	0	0	585	23	1	1	blank2r.bmp	0	1	+	0	2	B2r.bmp	500	1	blank2r.bmp	800	1	DHJF	800	1	blank2r.bmp	870	2	geizig	870	1	!	1200	1	blank2r.bmp	1330	0	0	0
020518	13:02:10	1	21	5.0.10.0	d070_A12_A1_pleasB	dA12_valB_070	4	40	300	300	0	0	645	23	0	1	blank2r.bmp	0	1	+	0	3	B3r.bmp	500	1	blank2r.bmp	800	1	NPLW	800	1	blank2r.bmp	870	3	kuss	870	1	!	1200	1	blank2r.bmp	1330	0	0	0
020518	13:02:10	1	21	5.0.10.0	d070_A12_A1_pleasB	dA12_valB_070	4	41	300	300	0	0	520	23	0	1	blank2r.bmp	0	1	+	0	7	C3r.bmp	500	1	blank2r.bmp	800	1	NPLW	800	1	blank2r.bmp	870	2	mutig	870	1	!	1200	1	blank2r.bmp	1330	0	0	0
020518	13:02:10	1	21	5.0.10.0	d070_A12_A2_unplB	dA12_valB_070	4	42	300	300	0	0	490	18	0	1	blank2r.bmp	0	1	+	0	8	C4r.bmp	500	1	blank2r.bmp	800	1	DHJF	800	1	blank2r.bmp	870	4	böse	870	1	!	1200	1	blank2r.bmp	1330	0	0	0
020518	13:02:10	1	21	5.0.10.0	d070_A12_A1_pleasB	dA12_valB_070	4	43	300	300	0	0	497	23	0	1	blank2r.bmp	0	1	+	0	6	C2r.bmp	500	1	blank2r.bmp	800	1	NPLW	800	1	blank2r.bmp	870	4	treu	870	1	!	1200	1	blank2r.bmp	1330	0	0	0
020518	13:02:10	1	21	5.0.10.0	d070_A12_A1_pleasB	dA12_valB_070	4	44	300	300	0	0	441	23	0	1	blank2r.bmp	0	1	+	0	4	B4r.bmp	500	1	blank2r.bmp	800	1	NPLW	800	1	blank2r.bmp	870	5	begabt	870	1	!	1200	1	blank2r.bmp	1330	0	0	0
020518	13:02:10	1	21	5.0.10.0	d070_A12_A1_pleasB	dA12_valB_070	4	45	300	300	0	0	451	23	0	1	blank2r.bmp	0	1	+	0	5	C1r.bmp	500	1	blank2r.bmp	800	1	NPLW	800	1	blank2r.bmp	870	1	gut	870	1	!	1200	1	blank2r.bmp	1330	0	0	0
020518	13:02:10	1	21	5.0.10.0	d070_A12_A2_pleasB	dA12_valB_070	4	46	300	300	0	0	342	23	1	1	blank2r.bmp	0	1	+	0	3	B3r.bmp	500	1	blank2r.bmp	800	1	DHJF	800	1	blank2r.bmp	870	6	kreativ	870	1	!	1200	1	blank2r.bmp	1330	0	0	0
020518	13:02:10	1	21	5.0.10.0	d070_A12_A2_unplB	dA12_valB_070	4	47	300	300	0	0	315	18	0	1	blank2r.bmp	0	1	+	0	2	B2r.bmp	500	1	blank2r.bmp	800	1	DHJF	800	1	blank2r.bmp	870	3	ärger	870	1	!	1200	1	blank2r.bmp	1330	0	0	0
020518	13:02:10	1	21	5.0.10.0	d070_A12_A1_unplB	dA12_valB_070	4	48	300	300	0	0	316	18	1	1	blank2r.bmp	0	1	+	0	1	B1r.bmp	500	1	blank2r.bmp	800	1	NPLW	800	1	blank2r.bmp	870	1	grausam	870	1	!	1200	1	blank2r.bmp	1330	0	0	0
020518	13:02:10	1	21	5.0.10.0	dL_B12_B2_unplA	dB12_valA_pract1	6	1	300	300	0	0	325	23	1	1	blank2r.bmp	0	1	+	0	2	B2r.bmp	500	1	blank2r.bmp	700	1	GKQX	700	6	C2r.bmp	830	1	blank2r.bmp	870	1	unfair	870	1	!	1200	1	blank2r.bmp	1330
020518	13:02:10	1	21	5.0.10.0	dL_B12_B1_unplA	dB12_valA_pract1	6	2	300	300	0	0	1534	18	1	1	blank2r.bmp	0	1	+	0	5	C1r.bmp	500	1	blank2r.bmp	700	1	BMVZ	700	7	C3r.bmp	830	1	blank2r.bmp	870	3	töten	870	1	!	1200	1	blank2r.bmp	1330
020518	13:02:10	1	21	5.0.10.0	dL_B12_B2_pleasA	dB12_valA_pract1	6	3	300	300	0	0	387	23	1	1	blank2r.bmp	0	1	+	0	1	B1r.bmp	500	1	blank2r.bmp	700	1	GKQX	700	2	B2r.bmp	830	1	blank2r.bmp	870	2	schön	870	1	!	1200	1	blank2r.bmp	1330
020518	13:02:10	1	21	5.0.10.0	dL_B12_B2_pleasA	dB12_valA_pract1	6	4	300	300	0	0	324	23	1	1	blank2r.bmp	0	1	+	0	3	B3r.bmp	500	1	blank2r.bmp	700	1	GKQX	700	1	B1r.bmp	830	1	blank2r.bmp	870	4	heiter	870	1	!	1200	1	blank2r.bmp	1330
020518	13:02:10	1	21	5.0.10.0	dL_B12_B1_pleasA	dB12_valA_pract1	6	5	300	300	0	0	175	18	1	1	blank2r.bmp	0	1	+	0	8	C4r.bmp	500	1	blank2r.bmp	700	1	BMVZ	700	3	B3r.bmp	830	1	blank2r.bmp	870	6	froh	870	1	!	1200	1	blank2r.bmp	1330
020518	13:02:10	1	21	5.0.10.0	dL_B12_B2_unplA	dB12_valA_pract1	6	6	300	300	0	0	302	23	1	1	blank2r.bmp	0	1	+	0	4	B4r.bmp	500	1	blank2r.bmp	700	1	GKQX	700	8	C4r.bmp	830	1	blank2r.bmp	870	2	neidisch	870	1	!	1200	1	blank2r.bmp	1330
020518	13:02:10	1	21	5.0.10.0	dL_B12_B1_unplA	dB12_valA_pract1	6	7	300	300	0	0	136	18	1	1	blank2r.bmp	0	1	+	0	7	C3r.bmp	500	1	blank2r.bmp	700	1	BMVZ	700	5	C1r.bmp	830	1	blank2r.bmp	870	4	elend	870	1	!	1200	1	blank2r.bmp	1330
020518	13:02:10	1	21	5.0.10.0	dL_B12_B2_pleasA	dB12_valA_pract1	6	8	300	300	0	0	51	23	1	1	blank2r.bmp	0	1	+	0	6	C2r.bmp	500	1	blank2r.bmp	700	1	GKQX	700	4	B4r.bmp	830	1	blank2r.bmp	870	1	toll	870	1	!	1200	1	blank2r.bmp	1330
020518	13:02:10	1	21	5.0.10.0	dL_B12_B1_pleasA	dB12_valA_pract1	6	9	300	300	0	0	159	18	1	1	blank2r.bmp	0	1	+	0	3	B3r.bmp	500	1	blank2r.bmp	700	1	BMVZ	700	5	C1r.bmp	830	1	blank2r.bmp	870	5	friedlich	870	1	!	1200	1	blank2r.bmp	1330
020518	13:02:10	1	21	5.0.10.0	dL_B12_B1_unplA	dB12_valA_pract1	6	10	300	300	0	0	176	18	1	1	blank2r.bmp	0	1	+	0	7	C3r.bmp	500	1	blank2r.bmp	700	1	BMVZ	700	3	B3r.bmp	830	1	blank2r.bmp	870	5	schlecht	870	1	!	1200	1	blank2r.bmp	1330
020518	13:02:10	1	21	5.0.10.0	dL_B12_B2_unplA	dB12_valA_pract1	6	11	300	300	0	0	85	23	1	1	blank2r.bmp	0	1	+	0	5	C1r.bmp	500	1	blank2r.bmp	700	1	GKQX	700	6	C2r.bmp	830	1	blank2r.bmp	870	6	leiden	870	1	!	1200	1	blank2r.bmp	1330
020518	13:02:10	1	21	5.0.10.0	dL_B12_B1_pleasA	dB12_valA_pract1	6	12	300	300	0	0	185	18	1	1	blank2r.bmp	0	1	+	0	2	B2r.bmp	500	1	blank2r.bmp	700	1	BMVZ	700	1	B1r.bmp	830	1	blank2r.bmp	870	3	freund	870	1	!	1200	1	blank2r.bmp	1330
020518	13:02:10	1	21	5.0.10.0	dM_B12_B2_unplA	dB12_valA_pract2	7	1	300	300	0	0	368	23	1	1	blank2r.bmp	0	1	+	0	4	B4r.bmp	500	1	blank2r.bmp	730	1	GKQX	730	8	C4r.bmp	830	1	blank2r.bmp	870	5	schlecht	870	1	!	1200	1	blank2r.bmp	1330
020518	13:02:10	1	21	5.0.10.0	dM_B12_B2_unplA	dB12_valA_pract2	7	2	300	300	0	0	164	23	1	1	blank2r.bmp	0	1	+	0	1	B1r.bmp	500	1	blank2r.bmp	730	1	GKQX	730	4	B4r.bmp	830	1	blank2r.bmp	870	3	töten	870	1	!	1200	1	blank2r.bmp	1330
020518	13:02:10	1	21	5.0.10.0	dM_B12_B1_pleasA	dB12_valA_pract2	7	3	300	300	0	0	85	18	1	1	blank2r.bmp	0	1	+	0	8	C4r.bmp	500	1	blank2r.bmp	730	1	BMVZ	730	2	B2r.bmp	830	1	blank2r.bmp	870	1	toll	870	1	!	1200	1	blank2r.bmp	1330
020518	13:02:10	1	21	5.0.10.0	dM_B12_B2_unplA	dB12_valA_pract2	7	4	300	300	0	0	131	23	1	1	blank2r.bmp	0	1	+	0	6	C2r.bmp	500	1	blank2r.bmp	730	1	GKQX	730	7	C3r.bmp	830	1	blank2r.bmp	870	4	elend	870	1	!	1200	1	blank2r.bmp	1330
020518	13:02:10	1	21	5.0.10.0	dM_B12_B1_pleasA	dB12_valA_pract2	7	5	300	300	0	0	91	18	1	1	blank2r.bmp	0	1	+	0	8	C4r.bmp	500	1	blank2r.bmp	730	1	BMVZ	730	6	C2r.bmp	830	1	blank2r.bmp	870	3	freund	870	1	!	1200	1	blank2r.bmp	1330
020518	13:02:10	1	21	5.0.10.0	dM_B12_B1_unplA	dB12_valA_pract2	7	6	300	300	0	0	258	18	1	1	blank2r.bmp	0	1	+	0	1	B1r.bmp	500	1	blank2r.bmp	730	1	BMVZ	730	5	C1r.bmp	830	1	blank2r.bmp	870	2	neidisch	870	1	!	1200	1	blank2r.bmp	1330
020518	13:02:10	1	21	5.0.10.0	dM_B12_B1_unplA	dB12_valA_pract2	7	7	300	300	0	0	341	18	1	1	blank2r.bmp	0	1	+	0	7	C3r.bmp	500	1	blank2r.bmp	730	1	BMVZ	730	1	B1r.bmp	830	1	blank2r.bmp	870	1	unfair	870	1	!	1200	1	blank2r.bmp	1330
020518	13:02:10	1	21	5.0.10.0	dM_B12_B2_pleasA	dB12_valA_pract2	7	8	300	300	0	0	235	23	1	1	blank2r.bmp	0	1	+	0	2	B2r.bmp	500	1	blank2r.bmp	730	1	GKQX	730	4	B4r.bmp	830	1	blank2r.bmp	870	2	schön	870	1	!	1200	1	blank2r.bmp	1330
020518	13:02:10	1	21	5.0.10.0	dM_B12_B1_unplA	dB12_valA_pract2	7	9	300	300	0	0	275	18	1	1	blank2r.bmp	0	1	+	0	3	B3r.bmp	500	1	blank2r.bmp	730	1	BMVZ	730	7	C3r.bmp	830	1	blank2r.bmp	870	6	leiden	870	1	!	1200	1	blank2r.bmp	1330
020518	13:02:10	1	21	5.0.10.0	dM_B12_B1_pleasA	dB12_valA_pract2	7	10	300	300	0	0	421	18	1	1	blank2r.bmp	0	1	+	0	6	C2r.bmp	500	1	blank2r.bmp	730	1	BMVZ	730	2	B2r.bmp	830	1	blank2r.bmp	870	5	friedlich	870	1	!	1200	1	blank2r.bmp	1330
020518	13:02:10	1	21	5.0.10.0	dM_B12_B2_pleasA	dB12_valA_pract2	7	11	300	300	0	0	219	23	1	1	blank2r.bmp	0	1	+	0	5	C1r.bmp	500	1	blank2r.bmp	730	1	GKQX	730	8	C4r.bmp	830	1	blank2r.bmp	870	6	froh	870	1	!	1200	1	blank2r.bmp	1330
020518	13:02:10	1	21	5.0.10.0	dM_B12_B2_pleasA	dB12_valA_pract2	7	12	300	300	0	0	274	23	1	1	blank2r.bmp	0	1	+	0	4	B4r.bmp	500	1	blank2r.bmp	730	1	GKQX	730	3	B3r.bmp	830	1	blank2r.bmp	870	4	heiter	870	1	!	1200	1	blank2r.bmp	1330
020518	13:02:10	1	21	5.0.10.0	d080_B12_B2_unplA	dB12_valA_080	8	1	300	300	0	0	351	23	1	1	blank2r.bmp	0	1	+	0	8	C4r.bmp	500	1	blank2r.bmp	800	1	GKQX	800	1	blank2r.bmp	880	6	leiden	880	1	!	1210	1	blank2r.bmp	1340	0	0	0
020518	13:02:10	1	21	5.0.10.0	d080_B12_B1_unplA	dB12_valA_080	8	2	300	300	0	0	246	18	1	1	blank2r.bmp	0	1	+	0	4	B4r.bmp	500	1	blank2r.bmp	800	1	BMVZ	800	1	blank2r.bmp	880	3	töten	880	1	!	1210	1	blank2r.bmp	1340	0	0	0
020518	13:02:10	1	21	5.0.10.0	d080_B12_B1_pleasA	dB12_valA_080	8	3	300	300	0	0	197	18	1	1	blank2r.bmp	0	1	+	0	6	C2r.bmp	500	1	blank2r.bmp	800	1	BMVZ	800	1	blank2r.bmp	880	4	heiter	880	1	!	1210	1	blank2r.bmp	1340	0	0	0
020518	13:02:10	1	21	5.0.10.0	d080_B12_B1_pleasA	dB12_valA_080	8	4	300	300	0	0	368	18	1	1	blank2r.bmp	0	1	+	0	2	B2r.bmp	500	1	blank2r.bmp	800	1	BMVZ	800	1	blank2r.bmp	880	3	freund	880	1	!	1210	1	blank2r.bmp	1340	0	0	0
020518	13:02:10	1	21	5.0.10.0	d080_B12_B1_pleasA	dB12_valA_080	8	5	300	300	0	0	253	18	1	1	blank2r.bmp	0	1	+	0	1	B1r.bmp	500	1	blank2r.bmp	800	1	BMVZ	800	1	blank2r.bmp	880	5	friedlich	880	1	!	1210	1	blank2r.bmp	1340	0	0	0
020518	13:02:10	1	21	5.0.10.0	d080_B12_B1_unplA	dB12_valA_080	8	6	300	300	0	0	261	18	1	1	blank2r.bmp	0	1	+	0	5	C1r.bmp	500	1	blank2r.bmp	800	1	BMVZ	800	1	blank2r.bmp	880	1	unfair	880	1	!	1210	1	blank2r.bmp	1340	0	0	0
020518	13:02:10	1	21	5.0.10.0	d080_B12_B2_unplA	dB12_valA_080	8	7	300	300	0	0	150	23	1	1	blank2r.bmp	0	1	+	0	3	B3r.bmp	500	1	blank2r.bmp	800	1	GKQX	800	1	blank2r.bmp	880	5	schlecht	880	1	!	1210	1	blank2r.bmp	1340	0	0	0
020518	13:02:10	1	21	5.0.10.0	d080_B12_B2_unplA	dB12_valA_080	8	8	300	300	0	0	218	23	1	1	blank2r.bmp	0	1	+	0	7	C3r.bmp	500	1	blank2r.bmp	800	1	GKQX	800	1	blank2r.bmp	880	2	neidisch	880	1	!	1210	1	blank2r.bmp	1340	0	0	0
020518	13:02:10	1	21	5.0.10.0	d080_B12_B1_unplA	dB12_valA_080	8	9	300	300	0	0	171	18	1	1	blank2r.bmp	0	1	+	0	4	B4r.bmp	500	1	blank2r.bmp	800	1	BMVZ	800	1	blank2r.bmp	880	4	elend	880	1	!	1210	1	blank2r.bmp	1340	0	0	0
020518	13:02:10	1	21	5.0.10.0	d080_B12_B2_unplA	dB12_valA_080	8	10	300	300	0	0	226	18	0	1	blank2r.bmp	0	1	+	0	8	C4r.bmp	500	1	blank2r.bmp	800	1	GKQX	800	1	blank2r.bmp	880	2	neidisch	880	1	!	1210	1	blank2r.bmp	1340	0	0	0
020518	13:02:10	1	21	5.0.10.0	d080_B12_B2_pleasA	dB12_valA_080	8	11	300	300	0	0	231	23	1	1	blank2r.bmp	0	1	+	0	5	C1r.bmp	500	1	blank2r.bmp	800	1	GKQX	800	1	blank2r.bmp	880	2	schön	880	1	!	1210	1	blank2r.bmp	1340	0	0	0
020518	13:02:10	1	21	5.0.10.0	d080_B12_B2_unplA	dB12_valA_080	8	12	300	300	0	0	160	23	1	1	blank2r.bmp	0	1	+	0	7	C3r.bmp	500	1	blank2r.bmp	800	1	GKQX	800	1	blank2r.bmp	880	4	elend	880	1	!	1210	1	blank2r.bmp	1340	0	0	0
020518	13:02:10	1	21	5.0.10.0	d080_B12_B1_pleasA	dB12_valA_080	8	13	300	300	0	0	150	18	1	1	blank2r.bmp	0	1	+	0	3	B3r.bmp	500	1	blank2r.bmp	800	1	BMVZ	800	1	blank2r.bmp	880	1	toll	880	1	!	1210	1	blank2r.bmp	1340	0	0	0
020518	13:02:10	1	21	5.0.10.0	d080_B12_B2_pleasA	dB12_valA_080	8	14	300	300	0	0	203	23	1	1	blank2r.bmp	0	1	+	0	6	C2r.bmp	500	1	blank2r.bmp	800	1	GKQX	800	1	blank2r.bmp	880	6	froh	880	1	!	1210	1	blank2r.bmp	1340	0	0	0
020518	13:02:10	1	21	5.0.10.0	d080_B12_B1_unplA	dB12_valA_080	8	15	300	300	0	0	69	18	1	1	blank2r.bmp	0	1	+	0	1	B1r.bmp	500	1	blank2r.bmp	800	1	BMVZ	800	1	blank2r.bmp	880	6	leiden	880	1	!	1210	1	blank2r.bmp	1340	0	0	0
020518	13:02:10	1	21	5.0.10.0	d080_B12_B2_pleasA	dB12_valA_080	8	16	300	300	0	0	133	23	1	1	blank2r.bmp	0	1	+	0	2	B2r.bmp	500	1	blank2r.bmp	800	1	GKQX	800	1	blank2r.bmp	880	5	friedlich	880	1	!	1210	1	blank2r.bmp	1340	0	0	0
020518	13:02:10	1	21	5.0.10.0	d080_B12_B2_pleasA	dB12_valA_080	8	17	300	300	0	0	221	23	1	1	blank2r.bmp	0	1	+	0	8	C4r.bmp	500	1	blank2r.bmp	800	1	GKQX	800	1	blank2r.bmp	880	3	freund	880	1	!	1210	1	blank2r.bmp	1340	0	0	0
020518	13:02:10	1	21	5.0.10.0	d080_B12_B2_pleasA	dB12_valA_080	8	18	300	300	0	0	236	23	1	1	blank2r.bmp	0	1	+	0	5	C1r.bmp	500	1	blank2r.bmp	800	1	GKQX	800	1	blank2r.bmp	880	6	froh	880	1	!	1210	1	blank2r.bmp	1340	0	0	0
020518	13:02:10	1	21	5.0.10.0	d080_B12_B2_unplA	dB12_valA_080	8	19	300	300	0	0	237	23	1	1	blank2r.bmp	0	1	+	0	6	C2r.bmp	500	1	blank2r.bmp	800	1	GKQX	800	1	blank2r.bmp	880	5	schlecht	880	1	!	1210	1	blank2r.bmp	1340	0	0	0
020518	13:02:10	1	21	5.0.10.0	d080_B12_B2_unplA	dB12_valA_080	8	20	300	300	0	0	194	23	1	1	blank2r.bmp	0	1	+	0	1	B1r.bmp	500	1	blank2r.bmp	800	1	GKQX	800	1	blank2r.bmp	880	3	töten	880	1	!	1210	1	blank2r.bmp	1340	0	0	0
020518	13:02:10	1	21	5.0.10.0	d080_B12_B2_pleasA	dB12_valA_080	8	21	300	300	0	0	207	23	1	1	blank2r.bmp	0	1	+	0	4	B4r.bmp	500	1	blank2r.bmp	800	1	GKQX	800	1	blank2r.bmp	880	2	schön	880	1	!	1210	1	blank2r.bmp	1340	0	0	0
020518	13:02:10	1	21	5.0.10.0	d080_B12_B2_pleasA	dB12_valA_080	8	22	300	300	0	0	212	23	1	1	blank2r.bmp	0	1	+	0	2	B2r.bmp	500	1	blank2r.bmp	800	1	GKQX	800	1	blank2r.bmp	880	1	toll	880	1	!	1210	1	blank2r.bmp	1340	0	0	0
020518	13:02:10	1	21	5.0.10.0	d080_B12_B1_pleasA	dB12_valA_080	8	23	300	300	0	0	142	18	1	1	blank2r.bmp	0	1	+	0	3	B3r.bmp	500	1	blank2r.bmp	800	1	BMVZ	800	1	blank2r.bmp	880	4	heiter	880	1	!	1210	1	blank2r.bmp	1340	0	0	0
020518	13:02:10	1	21	5.0.10.0	d080_B12_B1_unplA	dB12_valA_080	8	24	300	300	0	0	252	18	1	1	blank2r.bmp	0	1	+	0	7	C3r.bmp	500	1	blank2r.bmp	800	1	BMVZ	800	1	blank2r.bmp	880	1	unfair	880	1	!	1210	1	blank2r.bmp	1340	0	0	0
020518	13:02:10	1	21	5.0.10.0	d080_B12_B2_unplA	dB12_valA_080	8	25	300	300	0	0	400	23	1	1	blank2r.bmp	0	1	+	0	3	B3r.bmp	500	1	blank2r.bmp	800	1	GKQX	800	1	blank2r.bmp	880	1	unfair	880	1	!	1210	1	blank2r.bmp	1340	0	0	0
020518	13:02:10	1	21	5.0.10.0	d080_B12_B1_pleasA	dB12_valA_080	8	26	300	300	0	0	73	18	1	1	blank2r.bmp	0	1	+	0	1	B1r.bmp	500	1	blank2r.bmp	800	1	BMVZ	800	1	blank2r.bmp	880	6	froh	880	1	!	1210	1	blank2r.bmp	1340	0	0	0
020518	13:02:10	1	21	5.0.10.0	d080_B12_B1_pleasA	dB12_valA_080	8	27	300	300	0	0	243	18	1	1	blank2r.bmp	0	1	+	0	8	C4r.bmp	500	1	blank2r.bmp	800	1	BMVZ	800	1	blank2r.bmp	880	2	schön	880	1	!	1210	1	blank2r.bmp	1340	0	0	0
020518	13:02:10	1	21	5.0.10.0	d080_B12_B2_unplA	dB12_valA_080	8	28	300	300	0	0	115	23	1	1	blank2r.bmp	0	1	+	0	4	B4r.bmp	500	1	blank2r.bmp	800	1	GKQX	800	1	blank2r.bmp	880	3	töten	880	1	!	1210	1	blank2r.bmp	1340	0	0	0
020518	13:02:10	1	21	5.0.10.0	d080_B12_B2_pleasA	dB12_valA_080	8	29	300	300	0	0	25	23	1	1	blank2r.bmp	0	1	+	0	2	B2r.bmp	500	1	blank2r.bmp	800	1	GKQX	800	1	blank2r.bmp	880	1	toll	880	1	!	1210	1	blank2r.bmp	1340	0	0	0
020518	13:02:10	1	21	5.0.10.0	d080_B12_B2_unplA	dB12_valA_080	8	30	300	300	0	0	15	23	1	1	blank2r.bmp	0	1	+	0	7	C3r.bmp	500	1	blank2r.bmp	800	1	GKQX	800	1	blank2r.bmp	880	5	schlecht	880	1	!	1210	1	blank2r.bmp	1340	0	0	0
020518	13:02:10	1	21	5.0.10.0	d080_B12_B1_pleasA	dB12_valA_080	8	31	300	300	0	0	55	18	1	1	blank2r.bmp	0	1	+	0	5	C1r.bmp	500	1	blank2r.bmp	800	1	BMVZ	800	1	blank2r.bmp	880	3	freund	880	1	!	1210	1	blank2r.bmp	1340	0	0	0
020518	13:02:10	1	21	5.0.10.0	d080_B12_B2_pleasA	dB12_valA_080	8	32	300	300	0	0	176	23	1	1	blank2r.bmp	0	1	+	0	6	C2r.bmp	500	1	blank2r.bmp	800	1	GKQX	800	1	blank2r.bmp	880	4	heiter	880	1	!	1210	1	blank2r.bmp	1340	0	0	0
020518	13:02:10	1	21	5.0.10.0	d080_B12_B2_pleasA	dB12_valA_080	8	33	300	300	0	0	152	23	1	1	blank2r.bmp	0	1	+	0	5	C1r.bmp	500	1	blank2r.bmp	800	1	GKQX	800	1	blank2r.bmp	880	5	friedlich	880	1	!	1210	1	blank2r.bmp	1340	0	0	0
020518	13:02:10	1	21	5.0.10.0	d080_B12_B2_unplA	dB12_valA_080	8	34	300	300	0	0	142	23	1	1	blank2r.bmp	0	1	+	0	6	C2r.bmp	500	1	blank2r.bmp	800	1	GKQX	800	1	blank2r.bmp	880	6	leiden	880	1	!	1210	1	blank2r.bmp	1340	0	0	0
020518	13:02:10	1	21	5.0.10.0	d080_B12_B1_pleasA	dB12_valA_080	8	35	300	300	0	0	141	18	1	1	blank2r.bmp	0	1	+	0	3	B3r.bmp	500	1	blank2r.bmp	800	1	BMVZ	800	1	blank2r.bmp	880	1	toll	880	1	!	1210	1	blank2r.bmp	1340	0	0	0
020518	13:02:10	1	21	5.0.10.0	d080_B12_B1_pleasA	dB12_valA_080	8	36	300	300	0	0	208	18	1	1	blank2r.bmp	0	1	+	0	1	B1r.bmp	500	1	blank2r.bmp	800	1	BMVZ	800	1	blank2r.bmp	880	5	friedlich	880	1	!	1210	1	blank2r.bmp	1340	0	0	0
020518	13:02:10	1	21	5.0.10.0	d080_B12_B2_pleasA	dB12_valA_080	8	37	300	300	0	0	109	23	1	1	blank2r.bmp	0	1	+	0	4	B4r.bmp	500	1	blank2r.bmp	800	1	GKQX	800	1	blank2r.bmp	880	3	freund	880	1	!	1210	1	blank2r.bmp	1340	0	0	0
020518	13:02:10	1	21	5.0.10.0	d080_B12_B1_unplA	dB12_valA_080	8	38	300	300	0	0	1364	18	1	1	blank2r.bmp	0	1	+	0	8	C4r.bmp	500	1	blank2r.bmp	800	1	BMVZ	800	1	blank2r.bmp	880	2	neidisch	880	1	!	1210	1	blank2r.bmp	1340	0	0	0
020518	13:02:10	1	21	5.0.10.0	d080_B12_B1_unplA	dB12_valA_080	8	39	300	300	0	0	262	18	1	1	blank2r.bmp	0	1	+	0	7	C3r.bmp	500	1	blank2r.bmp	800	1	BMVZ	800	1	blank2r.bmp	880	4	elend	880	1	!	1210	1	blank2r.bmp	1340	0	0	0
020518	13:02:10	1	21	5.0.10.0	d080_B12_B2_pleasA	dB12_valA_080	8	40	300	300	0	0	264	23	1	1	blank2r.bmp	0	1	+	0	2	B2r.bmp	500	1	blank2r.bmp	800	1	GKQX	800	1	blank2r.bmp	880	4	heiter	880	1	!	1210	1	blank2r.bmp	1340	0	0	0
020518	13:02:10	1	21	5.0.10.0	d080_B12_B1_unplA	dB12_valA_080	8	41	300	300	0	0	187	18	1	1	blank2r.bmp	0	1	+	0	8	C4r.bmp	500	1	blank2r.bmp	800	1	BMVZ	800	1	blank2r.bmp	880	2	neidisch	880	1	!	1210	1	blank2r.bmp	1340	0	0	0
020518	13:02:10	1	21	5.0.10.0	d080_B12_B1_unplA	dB12_valA_080	8	42	300	300	0	0	214	18	1	1	blank2r.bmp	0	1	+	0	2	B2r.bmp	500	1	blank2r.bmp	800	1	BMVZ	800	1	blank2r.bmp	880	6	leiden	880	1	!	1210	1	blank2r.bmp	1340	0	0	0
020518	13:02:10	1	21	5.0.10.0	d080_B12_B1_unplA	dB12_valA_080	8	43	300	300	0	0	407	23	0	1	blank2r.bmp	0	1	+	0	5	C1r.bmp	500	1	blank2r.bmp	800	1	BMVZ	800	1	blank2r.bmp	880	5	schlecht	880	1	!	1210	1	blank2r.bmp	1340	0	0	0
020518	13:02:10	1	21	5.0.10.0	d080_B12_B1_pleasA	dB12_valA_080	8	44	300	300	0	0	171	18	1	1	blank2r.bmp	0	1	+	0	4	B4r.bmp	500	1	blank2r.bmp	800	1	BMVZ	800	1	blank2r.bmp	880	2	schön	880	1	!	1210	1	blank2r.bmp	1340	0	0	0
020518	13:02:10	1	21	5.0.10.0	d080_B12_B1_unplA	dB12_valA_080	8	45	300	300	0	0	309	18	1	1	blank2r.bmp	0	1	+	0	3	B3r.bmp	500	1	blank2r.bmp	800	1	BMVZ	800	1	blank2r.bmp	880	3	töten	880	1	!	1210	1	blank2r.bmp	1340	0	0	0
020518	13:02:10	1	21	5.0.10.0	d080_B12_B1_pleasA	dB12_valA_080	8	46	300	300	0	0	200	18	1	1	blank2r.bmp	0	1	+	0	7	C3r.bmp	500	1	blank2r.bmp	800	1	BMVZ	800	1	blank2r.bmp	880	6	froh	880	1	!	1210	1	blank2r.bmp	1340	0	0	0
020518	13:02:10	1	21	5.0.10.0	d080_B12_B2_unplA	dB12_valA_080	8	47	300	300	0	0	85	23	1	1	blank2r.bmp	0	1	+	0	6	C2r.bmp	500	1	blank2r.bmp	800	1	GKQX	800	1	blank2r.bmp	880	4	elend	880	1	!	1210	1	blank2r.bmp	1340	0	0	0
020518	13:02:10	1	21	5.0.10.0	d080_B12_B1_unplA	dB12_valA_080	8	48	300	300	0	0	62	18	1	1	blank2r.bmp	0	1	+	0	1	B1r.bmp	500	1	blank2r.bmp	800	1	BMVZ	800	1	blank2r.bmp	880	1	unfair	880	1	!	1210	1	blank2r.bmp	1340	0	0	0
020518	13:02:10	1	21	5.0.10.0	d080_B12_B2_pleasA	dB12_valA_080	9	1	300	300	0	0	1052	23	1	1	blank2r.bmp	0	1	+	0	3	B3r.bmp	500	1	blank2r.bmp	800	1	GKQX	800	1	blank2r.bmp	880	2	schön	880	1	!	1210	1	blank2r.bmp	1340	0	0	0
020518	13:02:10	1	21	5.0.10.0	d080_B12_B2_pleasA	dB12_valA_080	9	2	300	300	0	0	197	23	1	1	blank2r.bmp	0	1	+	0	5	C1r.bmp	500	1	blank2r.bmp	800	1	GKQX	800	1	blank2r.bmp	880	5	friedlich	880	1	!	1210	1	blank2r.bmp	1340	0	0	0
020518	13:02:10	1	21	5.0.10.0	d080_B12_B2_pleasA	dB12_valA_080	9	3	300	300	0	0	1163	23	1	1	blank2r.bmp	0	1	+	0	6	C2r.bmp	500	1	blank2r.bmp	800	1	GKQX	800	1	blank2r.bmp	880	3	freund	880	1	!	1210	1	blank2r.bmp	1340	0	0	0
020518	13:02:10	1	21	5.0.10.0	d080_B12_B2_unplA	dB12_valA_080	9	4	300	300	0	0	268	23	1	1	blank2r.bmp	0	1	+	0	8	C4r.bmp	500	1	blank2r.bmp	800	1	GKQX	800	1	blank2r.bmp	880	1	unfair	880	1	!	1210	1	blank2r.bmp	1340	0	0	0
020518	13:02:10	1	21	5.0.10.0	d080_B12_B1_unplA	dB12_valA_080	9	5	300	300	0	0	277	18	1	1	blank2r.bmp	0	1	+	0	7	C3r.bmp	500	1	blank2r.bmp	800	1	BMVZ	800	1	blank2r.bmp	880	4	elend	880	1	!	1210	1	blank2r.bmp	1340	0	0	0
020518	13:02:10	1	21	5.0.10.0	d080_B12_B2_unplA	dB12_valA_080	9	6	300	300	0	0	334	23	1	1	blank2r.bmp	0	1	+	0	2	B2r.bmp	500	1	blank2r.bmp	800	1	GKQX	800	1	blank2r.bmp	880	2	neidisch	880	1	!	1210	1	blank2r.bmp	1340	0	0	0
020518	13:02:10	1	21	5.0.10.0	d080_B12_B1_pleasA	dB12_valA_080	9	7	300	300	0	0	140	18	1	1	blank2r.bmp	0	1	+	0	1	B1r.bmp	500	1	blank2r.bmp	800	1	BMVZ	800	1	blank2r.bmp	880	6	froh	880	1	!	1210	1	blank2r.bmp	1340	0	0	0
020518	13:02:10	1	21	5.0.10.0	d080_B12_B2_unplA	dB12_valA_080	9	8	300	300	0	0	231	23	1	1	blank2r.bmp	0	1	+	0	4	B4r.bmp	500	1	blank2r.bmp	800	1	GKQX	800	1	blank2r.bmp	880	6	leiden	880	1	!	1210	1	blank2r.bmp	1340	0	0	0
020518	13:02:10	1	21	5.0.10.0	d080_B12_B2_unplA	dB12_valA_080	9	9	300	300	0	0	628	23	1	1	blank2r.bmp	0	1	+	0	7	C3r.bmp	500	1	blank2r.bmp	800	1	GKQX	800	1	blank2r.bmp	880	3	töten	880	1	!	1210	1	blank2r.bmp	1340	0	0	0
020518	13:02:10	1	21	5.0.10.0	d080_B12_B2_unplA	dB12_valA_080	9	10	300	300	0	0	360	23	1	1	blank2r.bmp	0	1	+	0	2	B2r.bmp	500	1	blank2r.bmp	800	1	GKQX	800	1	blank2r.bmp	880	5	schlecht	880	1	!	1210	1	blank2r.bmp	1340	0	0	0
020518	13:02:10	1	21	5.0.10.0	d080_B12_B2_unplA	dB12_valA_080	9	11	300	300	0	0	1151	23	1	1	blank2r.bmp	0	1	+	0	6	C2r.bmp	500	1	blank2r.bmp	800	1	GKQX	800	1	blank2r.bmp	880	1	unfair	880	1	!	1210	1	blank2r.bmp	1340	0	0	0
020518	13:02:10	1	21	5.0.10.0	d080_B12_B1_pleasA	dB12_valA_080	9	12	300	300	0	0	400	18	1	1	blank2r.bmp	0	1	+	0	4	B4r.bmp	500	1	blank2r.bmp	800	1	BMVZ	800	1	blank2r.bmp	880	4	heiter	880	1	!	1210	1	blank2r.bmp	1340	0	0	0
020518	13:02:10	1	21	5.0.10.0	d080_B12_B1_pleasA	dB12_valA_080	9	13	300	300	0	0	455	18	1	1	blank2r.bmp	0	1	+	0	8	C4r.bmp	500	1	blank2r.bmp	800	1	BMVZ	800	1	blank2r.bmp	880	1	toll	880	1	!	1210	1	blank2r.bmp	1340	0	0	0
020518	13:02:10	1	21	5.0.10.0	d080_B12_B1_pleasA	dB12_valA_080	9	14	300	300	0	0	578	18	1	1	blank2r.bmp	0	1	+	0	3	B3r.bmp	500	1	blank2r.bmp	800	1	BMVZ	800	1	blank2r.bmp	880	5	friedlich	880	1	!	1210	1	blank2r.bmp	1340	0	0	0
020518	13:02:10	1	21	5.0.10.0	d080_B12_B2_pleasA	dB12_valA_080	9	15	300	300	0	0	653	23	1	1	blank2r.bmp	0	1	+	0	5	C1r.bmp	500	1	blank2r.bmp	800	1	GKQX	800	1	blank2r.bmp	880	2	schön	880	1	!	1210	1	blank2r.bmp	1340	0	0	0
020518	13:02:10	1	21	5.0.10.0	d080_B12_B2_pleasA	dB12_valA_080	9	16	300	300	0	0	532	23	1	1	blank2r.bmp	0	1	+	0	1	B1r.bmp	500	1	blank2r.bmp	800	1	GKQX	800	1	blank2r.bmp	880	6	froh	880	1	!	1210	1	blank2r.bmp	1340	0	0	0
020518	13:02:10	1	21	5.0.10.0	d080_B12_B1_pleasA	dB12_valA_080	9	17	300	300	0	0	448	18	1	1	blank2r.bmp	0	1	+	0	2	B2r.bmp	500	1	blank2r.bmp	800	1	BMVZ	800	1	blank2r.bmp	880	3	freund	880	1	!	1210	1	blank2r.bmp	1340	0	0	0
020518	13:02:10	1	21	5.0.10.0	d080_B12_B2_pleasA	dB12_valA_080	9	18	300	300	0	0	295	23	1	1	blank2r.bmp	0	1	+	0	8	C4r.bmp	500	1	blank2r.bmp	800	1	GKQX	800	1	blank2r.bmp	880	4	heiter	880	1	!	1210	1	blank2r.bmp	1340	0	0	0
020518	13:02:10	1	21	5.0.10.0	d080_B12_B1_unplA	dB12_valA_080	9	19	300	300	0	0	278	18	1	1	blank2r.bmp	0	1	+	0	1	B1r.bmp	500	1	blank2r.bmp	800	1	BMVZ	800	1	blank2r.bmp	880	4	elend	880	1	!	1210	1	blank2r.bmp	1340	0	0	0
020518	13:02:10	1	21	5.0.10.0	d080_B12_B1_unplA	dB12_valA_080	9	20	300	300	0	0	454	18	1	1	blank2r.bmp	0	1	+	0	4	B4r.bmp	500	1	blank2r.bmp	800	1	BMVZ	800	1	blank2r.bmp	880	5	schlecht	880	1	!	1210	1	blank2r.bmp	1340	0	0	0
020518	13:02:10	1	21	5.0.10.0	d080_B12_B2_unplA	dB12_valA_080	9	21	300	300	0	0	297	23	1	1	blank2r.bmp	0	1	+	0	5	C1r.bmp	500	1	blank2r.bmp	800	1	GKQX	800	1	blank2r.bmp	880	6	leiden	880	1	!	1210	1	blank2r.bmp	1340	0	0	0
020518	13:02:10	1	21	5.0.10.0	d080_B12_B1_unplA	dB12_valA_080	9	22	300	300	0	0	406	18	1	1	blank2r.bmp	0	1	+	0	7	C3r.bmp	500	1	blank2r.bmp	800	1	BMVZ	800	1	blank2r.bmp	880	3	töten	880	1	!	1210	1	blank2r.bmp	1340	0	0	0
020518	13:02:10	1	21	5.0.10.0	d080_B12_B2_pleasA	dB12_valA_080	9	23	300	300	0	0	195	23	1	1	blank2r.bmp	0	1	+	0	6	C2r.bmp	500	1	blank2r.bmp	800	1	GKQX	800	1	blank2r.bmp	880	1	toll	880	1	!	1210	1	blank2r.bmp	1340	0	0	0
020518	13:02:10	1	21	5.0.10.0	d080_B12_B1_pleasA	dB12_valA_080	9	24	300	300	0	0	163	23	0	1	blank2r.bmp	0	1	+	0	3	B3r.bmp	500	1	blank2r.bmp	800	1	BMVZ	800	1	blank2r.bmp	880	6	froh	880	1	!	1210	1	blank2r.bmp	1340	0	0	0
020518	13:02:10	1	21	5.0.10.0	d080_B12_B2_pleasA	dB12_valA_080	9	25	300	300	0	0	366	23	1	1	blank2r.bmp	0	1	+	0	5	C1r.bmp	500	1	blank2r.bmp	800	1	GKQX	800	1	blank2r.bmp	880	3	freund	880	1	!	1210	1	blank2r.bmp	1340	0	0	0
020518	13:02:10	1	21	5.0.10.0	d080_B12_B1_pleasA	dB12_valA_080	9	26	300	300	0	0	395	23	0	1	blank2r.bmp	0	1	+	0	1	B1r.bmp	500	1	blank2r.bmp	800	1	BMVZ	800	1	blank2r.bmp	880	5	friedlich	880	1	!	1210	1	blank2r.bmp	1340	0	0	0
020518	13:02:10	1	21	5.0.10.0	d080_B12_B2_unplA	dB12_valA_080	9	27	300	300	0	0	497	23	1	1	blank2r.bmp	0	1	+	0	6	C2r.bmp	500	1	blank2r.bmp	800	1	GKQX	800	1	blank2r.bmp	880	2	neidisch	880	1	!	1210	1	blank2r.bmp	1340	0	0	0
020518	13:02:10	1	21	5.0.10.0	d080_B12_B2_pleasA	dB12_valA_080	9	28	300	300	0	0	877	23	1	1	blank2r.bmp	0	1	+	0	4	B4r.bmp	500	1	blank2r.bmp	800	1	GKQX	800	1	blank2r.bmp	880	2	schön	880	1	!	1210	1	blank2r.bmp	1340	0	0	0
020518	13:02:10	1	21	5.0.10.0	d080_B12_B1_pleasA	dB12_valA_080	9	29	300	300	0	0	241	18	1	1	blank2r.bmp	0	1	+	0	3	B3r.bmp	500	1	blank2r.bmp	800	1	BMVZ	800	1	blank2r.bmp	880	4	heiter	880	1	!	1210	1	blank2r.bmp	1340	0	0	0
020518	13:02:10	1	21	5.0.10.0	d080_B12_B2_unplA	dB12_valA_080	9	30	300	300	0	0	285	23	1	1	blank2r.bmp	0	1	+	0	7	C3r.bmp	500	1	blank2r.bmp	800	1	GKQX	800	1	blank2r.bmp	880	6	leiden	880	1	!	1210	1	blank2r.bmp	1340	0	0	0
020518	13:02:10	1	21	5.0.10.0	d080_B12_B1_pleasA	dB12_valA_080	9	31	300	300	0	0	536	23	0	1	blank2r.bmp	0	1	+	0	2	B2r.bmp	500	1	blank2r.bmp	800	1	BMVZ	800	1	blank2r.bmp	880	1	toll	880	1	!	1210	1	blank2r.bmp	1340	0	0	0
020518	13:02:10	1	21	5.0.10.0	d080_B12_B1_unplA	dB12_valA_080	9	32	300	300	0	0	672	18	1	1	blank2r.bmp	0	1	+	0	8	C4r.bmp	500	1	blank2r.bmp	800	1	BMVZ	800	1	blank2r.bmp	880	4	elend	880	1	!	1210	1	blank2r.bmp	1340	0	0	0
020518	13:02:10	1	21	5.0.10.0	d080_B12_B1_unplA	dB12_valA_080	9	33	300	300	0	0	659	18	1	1	blank2r.bmp	0	1	+	0	2	B2r.bmp	500	1	blank2r.bmp	800	1	BMVZ	800	1	blank2r.bmp	880	5	schlecht	880	1	!	1210	1	blank2r.bmp	1340	0	0	0
020518	13:02:10	1	21	5.0.10.0	d080_B12_B2_pleasA	dB12_valA_080	9	34	300	300	0	0	703	23	1	1	blank2r.bmp	0	1	+	0	4	B4r.bmp	500	1	blank2r.bmp	800	1	GKQX	800	1	blank2r.bmp	880	6	froh	880	1	!	1210	1	blank2r.bmp	1340	0	0	0
020518	13:02:10	1	21	5.0.10.0	d080_B12_B1_unplA	dB12_valA_080	9	35	300	300	0	0	510	18	1	1	blank2r.bmp	0	1	+	0	6	C2r.bmp	500	1	blank2r.bmp	800	1	BMVZ	800	1	blank2r.bmp	880	1	unfair	880	1	!	1210	1	blank2r.bmp	1340	0	0	0
020518	13:02:10	1	21	5.0.10.0	d080_B12_B2_pleasA	dB12_valA_080	9	36	300	300	0	0	365	23	1	1	blank2r.bmp	0	1	+	0	5	C1r.bmp	500	1	blank2r.bmp	800	1	GKQX	800	1	blank2r.bmp	880	4	heiter	880	1	!	1210	1	blank2r.bmp	1340	0	0	0
020518	13:02:10	1	21	5.0.10.0	d080_B12_B2_unplA	dB12_valA_080	9	37	300	300	0	0	229	18	0	1	blank2r.bmp	0	1	+	0	7	C3r.bmp	500	1	blank2r.bmp	800	1	GKQX	800	1	blank2r.bmp	880	2	neidisch	880	1	!	1210	1	blank2r.bmp	1340	0	0	0
020518	13:02:10	1	21	5.0.10.0	d080_B12_B1_unplA	dB12_valA_080	9	38	300	300	0	0	763	23	0	1	blank2r.bmp	0	1	+	0	3	B3r.bmp	500	1	blank2r.bmp	800	1	BMVZ	800	1	blank2r.bmp	880	3	töten	880	1	!	1210	1	blank2r.bmp	1340	0	0	0
020518	13:02:10	1	21	5.0.10.0	d080_B12_B1_unplA	dB12_valA_080	9	39	300	300	0	0	539	18	1	1	blank2r.bmp	0	1	+	0	1	B1r.bmp	500	1	blank2r.bmp	800	1	BMVZ	800	1	blank2r.bmp	880	3	töten	880	1	!	1210	1	blank2r.bmp	1340	0	0	0
020518	13:02:10	1	21	5.0.10.0	d080_B12_B2_pleasA	dB12_valA_080	9	40	300	300	0	0	738	23	1	1	blank2r.bmp	0	1	+	0	8	C4r.bmp	500	1	blank2r.bmp	800	1	GKQX	800	1	blank2r.bmp	880	3	freund	880	1	!	1210	1	blank2r.bmp	1340	0	0	0
020518	13:02:10	1	21	5.0.10.0	d080_B12_B1_unplA	dB12_valA_080	9	41	300	300	0	0	476	23	0	1	blank2r.bmp	0	1	+	0	5	C1r.bmp	500	1	blank2r.bmp	800	1	BMVZ	800	1	blank2r.bmp	880	1	unfair	880	1	!	1210	1	blank2r.bmp	1340	0	0	0
020518	13:02:10	1	21	5.0.10.0	d080_B12_B1_unplA	dB12_valA_080	9	42	300	300	0	0	429	18	1	1	blank2r.bmp	0	1	+	0	7	C3r.bmp	500	1	blank2r.bmp	800	1	BMVZ	800	1	blank2r.bmp	880	2	neidisch	880	1	!	1210	1	blank2r.bmp	1340	0	0	0
020518	13:02:10	1	21	5.0.10.0	d080_B12_B1_unplA	dB12_valA_080	9	43	300	300	0	0	468	18	1	1	blank2r.bmp	0	1	+	0	1	B1r.bmp	500	1	blank2r.bmp	800	1	BMVZ	800	1	blank2r.bmp	880	5	schlecht	880	1	!	1210	1	blank2r.bmp	1340	0	0	0
020518	13:02:10	1	21	5.0.10.0	d080_B12_B2_unplA	dB12_valA_080	9	44	300	300	0	0	530	18	0	1	blank2r.bmp	0	1	+	0	4	B4r.bmp	500	1	blank2r.bmp	800	1	GKQX	800	1	blank2r.bmp	880	6	leiden	880	1	!	1210	1	blank2r.bmp	1340	0	0	0
020518	13:02:10	1	21	5.0.10.0	d080_B12_B2_unplA	dB12_valA_080	9	45	300	300	0	0	409	23	1	1	blank2r.bmp	0	1	+	0	8	C4r.bmp	500	1	blank2r.bmp	800	1	GKQX	800	1	blank2r.bmp	880	4	elend	880	1	!	1210	1	blank2r.bmp	1340	0	0	0
020518	13:02:10	1	21	5.0.10.0	d080_B12_B1_pleasA	dB12_valA_080	9	46	300	300	0	0	512	18	1	1	blank2r.bmp	0	1	+	0	6	C2r.bmp	500	1	blank2r.bmp	800	1	BMVZ	800	1	blank2r.bmp	880	5	friedlich	880	1	!	1210	1	blank2r.bmp	1340	0	0	0
020518	13:02:10	1	21	5.0.10.0	d080_B12_B1_pleasA	dB12_valA_080	9	47	300	300	0	0	748	18	1	1	blank2r.bmp	0	1	+	0	2	B2r.bmp	500	1	blank2r.bmp	800	1	BMVZ	800	1	blank2r.bmp	880	1	toll	880	1	!	1210	1	blank2r.bmp	1340	0	0	0
020518	13:02:10	1	21	5.0.10.0	d080_B12_B1_pleasA	dB12_valA_080	9	48	300	300	0	0	452	23	0	1	blank2r.bmp	0	1	+	0	3	B3r.bmp	500	1	blank2r.bmp	800	1	BMVZ	800	1	blank2r.bmp	880	2	schön	880	1	!	1210	1	blank2r.bmp	1340	0	0	0
020518	13:02:10	1	21	5.0.10.0	endtrial	endblock	10	1	300	300	0	0	120985	21	0	0	0	0	0	0	0	0	0	0	0	0	0	0	0	0	0	0	0	0	0	0	0	0	0	0	0	0	0	0	0
