date	time	group	subject	build	trialcode	blockcode	blocknum	trialnum	pretrialpause	posttrialpause	trialduration	trialtimeout	latency	response	correct	stimulusnumber1	stimulusitem1	stimulusonset1	stimulusnumber2	stimulusitem2	stimulusonset2	stimulusnumber3	stimulusitem3	stimulusonset3	stimulusnumber4	stimulusitem4	stimulusonset4	stimulusnumber5	stimulusitem5	stimulusonset5	stimulusnumber6	stimulusitem6	stimulusonset6	stimulusnumber7	stimulusitem7	stimulusonset7	stimulusnumber8	stimulusitem8	stimulusonset8	stimulusnumber9	stimulusitem9	stimulusonset9	stimulusnumber10	stimulusitem10	stimulusonset10
020218	13:42:10	1	18	5.0.10.0	dL_A21_A2_unplB	dA21_valB_pract1	1	1	300	300	0	0	1525	23	0	1	blank2r.bmp	0	1	+	0	2	B2r.bmp	500	1	blank2r.bmp	700	1	DHJF	700	8	C4r.bmp	830	1	blank2r.bmp	870	2	geizig	870	1	!	1200	1	blank2r.bmp	1330
020218	13:42:10	1	18	5.0.10.0	dL_A21_A1_pleasB	dA21_valB_pract1	1	2	300	300	0	0	580	23	1	1	blank2r.bmp	0	1	+	0	3	B3r.bmp	500	1	blank2r.bmp	700	1	NPLW	700	1	B1r.bmp	830	1	blank2r.bmp	870	4	treu	870	1	!	1200	1	blank2r.bmp	1330
020218	13:42:10	1	18	5.0.10.0	dL_A21_A2_pleasB	dA21_valB_pract1	1	3	300	300	0	0	304	18	1	1	blank2r.bmp	0	1	+	0	4	B4r.bmp	500	1	blank2r.bmp	700	1	DHJF	700	6	C2r.bmp	830	1	blank2r.bmp	870	2	mutig	870	1	!	1200	1	blank2r.bmp	1330
020218	13:42:10	1	18	5.0.10.0	dL_A21_A1_unplB	dA21_valB_pract1	1	4	300	300	0	0	405	23	1	1	blank2r.bmp	0	1	+	0	6	C2r.bmp	500	1	blank2r.bmp	700	1	NPLW	700	2	B2r.bmp	830	1	blank2r.bmp	870	6	traurig	870	1	!	1200	1	blank2r.bmp	1330
020218	13:42:10	1	18	5.0.10.0	dL_A21_A1_unplB	dA21_valB_pract1	1	5	300	300	0	0	437	23	1	1	blank2r.bmp	0	1	+	0	8	C4r.bmp	500	1	blank2r.bmp	700	1	NPLW	700	3	B3r.bmp	830	1	blank2r.bmp	870	1	grausam	870	1	!	1200	1	blank2r.bmp	1330
020218	13:42:10	1	18	5.0.10.0	dL_A21_A1_unplB	dA21_valB_pract1	1	6	300	300	0	0	77	23	1	1	blank2r.bmp	0	1	+	0	5	C1r.bmp	500	1	blank2r.bmp	700	1	NPLW	700	7	C3r.bmp	830	1	blank2r.bmp	870	5	kummer	870	1	!	1200	1	blank2r.bmp	1330
020218	13:42:10	1	18	5.0.10.0	dL_A21_A1_pleasB	dA21_valB_pract1	1	7	300	300	0	0	191	23	1	1	blank2r.bmp	0	1	+	0	1	B1r.bmp	500	1	blank2r.bmp	700	1	NPLW	700	4	B4r.bmp	830	1	blank2r.bmp	870	5	begabt	870	1	!	1200	1	blank2r.bmp	1330
020218	13:42:10	1	18	5.0.10.0	dL_A21_A2_pleasB	dA21_valB_pract1	1	8	300	300	0	0	3709	23	0	1	blank2r.bmp	0	1	+	0	7	C3r.bmp	500	1	blank2r.bmp	700	1	DHJF	700	5	C1r.bmp	830	1	blank2r.bmp	870	3	kuss	870	1	!	1200	1	blank2r.bmp	1330
020218	13:42:10	1	18	5.0.10.0	dL_A21_A2_unplB	dA21_valB_pract1	1	9	300	300	0	0	155	18	1	1	blank2r.bmp	0	1	+	0	2	B2r.bmp	500	1	blank2r.bmp	700	1	DHJF	700	5	C1r.bmp	830	1	blank2r.bmp	870	3	ärger	870	1	!	1200	1	blank2r.bmp	1330
020218	13:42:10	1	18	5.0.10.0	dL_A21_A1_pleasB	dA21_valB_pract1	1	10	300	300	0	0	6775	23	1	1	blank2r.bmp	0	1	+	0	6	C2r.bmp	500	1	blank2r.bmp	700	1	NPLW	700	8	C4r.bmp	830	1	blank2r.bmp	870	1	gut	870	1	!	1200	1	blank2r.bmp	1330
020218	13:42:10	1	18	5.0.10.0	dL_A21_A2_unplB	dA21_valB_pract1	1	11	300	300	0	0	3	18	1	1	blank2r.bmp	0	1	+	0	3	B3r.bmp	500	1	blank2r.bmp	700	1	DHJF	700	2	B2r.bmp	830	1	blank2r.bmp	870	4	böse	870	1	!	1200	1	blank2r.bmp	1330
020218	13:42:10	1	18	5.0.10.0	dL_A21_A2_pleasB	dA21_valB_pract1	1	12	300	300	0	0	759	18	1	1	blank2r.bmp	0	1	+	0	7	C3r.bmp	500	1	blank2r.bmp	700	1	DHJF	700	4	B4r.bmp	830	1	blank2r.bmp	870	6	kreativ	870	1	!	1200	1	blank2r.bmp	1330
020218	13:42:10	1	18	5.0.10.0	dM_A21_A2_pleasB	dA21_valB_pract2	2	1	300	300	0	0	473	18	1	1	blank2r.bmp	0	1	+	0	8	C4r.bmp	500	1	blank2r.bmp	730	1	DHJF	730	1	B1r.bmp	830	1	blank2r.bmp	870	3	kuss	870	1	!	1200	1	blank2r.bmp	1330
020218	13:42:10	1	18	5.0.10.0	dM_A21_A1_pleasB	dA21_valB_pract2	2	2	300	300	0	0	311	23	1	1	blank2r.bmp	0	1	+	0	5	C1r.bmp	500	1	blank2r.bmp	730	1	NPLW	730	3	B3r.bmp	830	1	blank2r.bmp	870	1	gut	870	1	!	1200	1	blank2r.bmp	1330
020218	13:42:10	1	18	5.0.10.0	dM_A21_A2_unplB	dA21_valB_pract2	2	3	300	300	0	0	164	18	1	1	blank2r.bmp	0	1	+	0	1	B1r.bmp	500	1	blank2r.bmp	730	1	DHJF	730	7	C3r.bmp	830	1	blank2r.bmp	870	5	kummer	870	1	!	1200	1	blank2r.bmp	1330
020218	13:42:10	1	18	5.0.10.0	dM_A21_A1_pleasB	dA21_valB_pract2	2	4	300	300	0	0	210	23	1	1	blank2r.bmp	0	1	+	0	4	B4r.bmp	500	1	blank2r.bmp	730	1	NPLW	730	6	C2r.bmp	830	1	blank2r.bmp	870	2	mutig	870	1	!	1200	1	blank2r.bmp	1330
020218	13:42:10	1	18	5.0.10.0	dM_A21_A2_pleasB	dA21_valB_pract2	2	5	300	300	0	0	26	18	1	1	blank2r.bmp	0	1	+	0	6	C2r.bmp	500	1	blank2r.bmp	730	1	DHJF	730	8	C4r.bmp	830	1	blank2r.bmp	870	6	kreativ	870	1	!	1200	1	blank2r.bmp	1330
020218	13:42:10	1	18	5.0.10.0	dM_A21_A1_unplB	dA21_valB_pract2	2	6	300	300	0	0	193	23	1	1	blank2r.bmp	0	1	+	0	8	C4r.bmp	500	1	blank2r.bmp	730	1	NPLW	730	2	B2r.bmp	830	1	blank2r.bmp	870	6	traurig	870	1	!	1200	1	blank2r.bmp	1330
020218	13:42:10	1	18	5.0.10.0	dM_A21_A1_unplB	dA21_valB_pract2	2	7	300	300	0	0	785	23	1	1	blank2r.bmp	0	1	+	0	5	C1r.bmp	500	1	blank2r.bmp	730	1	NPLW	730	4	B4r.bmp	830	1	blank2r.bmp	870	2	geizig	870	1	!	1200	1	blank2r.bmp	1330
020218	13:42:10	1	18	5.0.10.0	dM_A21_A2_unplB	dA21_valB_pract2	2	8	300	300	0	0	2825	18	1	1	blank2r.bmp	0	1	+	0	4	B4r.bmp	500	1	blank2r.bmp	730	1	DHJF	730	1	B1r.bmp	830	1	blank2r.bmp	870	4	böse	870	1	!	1200	1	blank2r.bmp	1330
020218	13:42:10	1	18	5.0.10.0	dM_A21_A1_unplB	dA21_valB_pract2	2	9	300	300	0	0	153	23	1	1	blank2r.bmp	0	1	+	0	7	C3r.bmp	500	1	blank2r.bmp	730	1	NPLW	730	5	C1r.bmp	830	1	blank2r.bmp	870	1	grausam	870	1	!	1200	1	blank2r.bmp	1330
020218	13:42:10	1	18	5.0.10.0	dM_A21_A2_pleasB	dA21_valB_pract2	2	10	300	300	0	0	246	18	1	1	blank2r.bmp	0	1	+	0	1	B1r.bmp	500	1	blank2r.bmp	730	1	DHJF	730	3	B3r.bmp	830	1	blank2r.bmp	870	4	treu	870	1	!	1200	1	blank2r.bmp	1330
020218	13:42:10	1	18	5.0.10.0	dM_A21_A1_pleasB	dA21_valB_pract2	2	11	300	300	0	0	306	23	1	1	blank2r.bmp	0	1	+	0	3	B3r.bmp	500	1	blank2r.bmp	730	1	NPLW	730	6	C2r.bmp	830	1	blank2r.bmp	870	5	begabt	870	1	!	1200	1	blank2r.bmp	1330
020218	13:42:10	1	18	5.0.10.0	dM_A21_A2_unplB	dA21_valB_pract2	2	12	300	300	0	0	309	18	1	1	blank2r.bmp	0	1	+	0	2	B2r.bmp	500	1	blank2r.bmp	730	1	DHJF	730	7	C3r.bmp	830	1	blank2r.bmp	870	3	ärger	870	1	!	1200	1	blank2r.bmp	1330
020218	13:42:10	1	18	5.0.10.0	d070_A21_A1_unplB	dA21_valB_070	3	1	300	300	0	0	376	23	1	1	blank2r.bmp	0	1	+	0	8	C4r.bmp	500	1	blank2r.bmp	800	1	NPLW	800	1	blank2r.bmp	870	5	kummer	870	1	!	1200	1	blank2r.bmp	1330	0	0	0
020218	13:42:10	1	18	5.0.10.0	d070_A21_A2_unplB	dA21_valB_070	3	2	300	300	0	0	286	18	1	1	blank2r.bmp	0	1	+	0	2	B2r.bmp	500	1	blank2r.bmp	800	1	DHJF	800	1	blank2r.bmp	870	2	geizig	870	1	!	1200	1	blank2r.bmp	1330	0	0	0
020218	13:42:10	1	18	5.0.10.0	d070_A21_A2_unplB	dA21_valB_070	3	3	300	300	0	0	545	23	0	1	blank2r.bmp	0	1	+	0	6	C2r.bmp	500	1	blank2r.bmp	800	1	DHJF	800	1	blank2r.bmp	870	3	ärger	870	1	!	1200	1	blank2r.bmp	1330	0	0	0
020218	13:42:10	1	18	5.0.10.0	d070_A21_A2_unplB	dA21_valB_070	3	4	300	300	0	0	315	23	0	1	blank2r.bmp	0	1	+	0	7	C3r.bmp	500	1	blank2r.bmp	800	1	DHJF	800	1	blank2r.bmp	870	4	böse	870	1	!	1200	1	blank2r.bmp	1330	0	0	0
020218	13:42:10	1	18	5.0.10.0	d070_A21_A2_pleasB	dA21_valB_070	3	5	300	300	0	0	518	23	0	1	blank2r.bmp	0	1	+	0	3	B3r.bmp	500	1	blank2r.bmp	800	1	DHJF	800	1	blank2r.bmp	870	2	mutig	870	1	!	1200	1	blank2r.bmp	1330	0	0	0
020218	13:42:10	1	18	5.0.10.0	d070_A21_A2_pleasB	dA21_valB_070	3	6	300	300	0	0	145	18	1	1	blank2r.bmp	0	1	+	0	4	B4r.bmp	500	1	blank2r.bmp	800	1	DHJF	800	1	blank2r.bmp	870	6	kreativ	870	1	!	1200	1	blank2r.bmp	1330	0	0	0
020218	13:42:10	1	18	5.0.10.0	d070_A21_A2_unplB	dA21_valB_070	3	7	300	300	0	0	98	23	0	1	blank2r.bmp	0	1	+	0	5	C1r.bmp	500	1	blank2r.bmp	800	1	DHJF	800	1	blank2r.bmp	870	6	traurig	870	1	!	1200	1	blank2r.bmp	1330	0	0	0
020218	13:42:10	1	18	5.0.10.0	d070_A21_A1_unplB	dA21_valB_070	3	8	300	300	0	0	2520	23	1	1	blank2r.bmp	0	1	+	0	1	B1r.bmp	500	1	blank2r.bmp	800	1	NPLW	800	1	blank2r.bmp	870	1	grausam	870	1	!	1200	1	blank2r.bmp	1330	0	0	0
020218	13:42:10	1	18	5.0.10.0	d070_A21_A2_unplB	dA21_valB_070	3	9	300	300	0	0	70	18	1	1	blank2r.bmp	0	1	+	0	1	B1r.bmp	500	1	blank2r.bmp	800	1	DHJF	800	1	blank2r.bmp	870	6	traurig	870	1	!	1200	1	blank2r.bmp	1330	0	0	0
020218	13:42:10	1	18	5.0.10.0	d070_A21_A2_unplB	dA21_valB_070	3	10	300	300	0	0	181	18	1	1	blank2r.bmp	0	1	+	0	2	B2r.bmp	500	1	blank2r.bmp	800	1	DHJF	800	1	blank2r.bmp	870	3	ärger	870	1	!	1200	1	blank2r.bmp	1330	0	0	0
020218	13:42:10	1	18	5.0.10.0	d070_A21_A1_unplB	dA21_valB_070	3	11	300	300	0	0	128	23	1	1	blank2r.bmp	0	1	+	0	5	C1r.bmp	500	1	blank2r.bmp	800	1	NPLW	800	1	blank2r.bmp	870	4	böse	870	1	!	1200	1	blank2r.bmp	1330	0	0	0
020218	13:42:10	1	18	5.0.10.0	d070_A21_A2_pleasB	dA21_valB_070	3	12	300	300	0	0	2205	23	0	1	blank2r.bmp	0	1	+	0	7	C3r.bmp	500	1	blank2r.bmp	800	1	DHJF	800	1	blank2r.bmp	870	4	treu	870	1	!	1200	1	blank2r.bmp	1330	0	0	0
020218	13:42:10	1	18	5.0.10.0	d070_A21_A1_unplB	dA21_valB_070	3	13	300	300	0	0	62	23	1	1	blank2r.bmp	0	1	+	0	6	C2r.bmp	500	1	blank2r.bmp	800	1	NPLW	800	1	blank2r.bmp	870	2	geizig	870	1	!	1200	1	blank2r.bmp	1330	0	0	0
020218	13:42:10	1	18	5.0.10.0	d070_A21_A2_unplB	dA21_valB_070	3	14	300	300	0	0	200	18	1	1	blank2r.bmp	0	1	+	0	4	B4r.bmp	500	1	blank2r.bmp	800	1	DHJF	800	1	blank2r.bmp	870	1	grausam	870	1	!	1200	1	blank2r.bmp	1330	0	0	0
020218	13:42:10	1	18	5.0.10.0	d070_A21_A1_pleasB	dA21_valB_070	3	15	300	300	0	0	125	23	1	1	blank2r.bmp	0	1	+	0	3	B3r.bmp	500	1	blank2r.bmp	800	1	NPLW	800	1	blank2r.bmp	870	1	gut	870	1	!	1200	1	blank2r.bmp	1330	0	0	0
020218	13:42:10	1	18	5.0.10.0	d070_A21_A2_unplB	dA21_valB_070	3	16	300	300	0	0	302	18	1	1	blank2r.bmp	0	1	+	0	8	C4r.bmp	500	1	blank2r.bmp	800	1	DHJF	800	1	blank2r.bmp	870	5	kummer	870	1	!	1200	1	blank2r.bmp	1330	0	0	0
020218	13:42:10	1	18	5.0.10.0	d070_A21_A2_pleasB	dA21_valB_070	3	17	300	300	0	0	87	23	0	1	blank2r.bmp	0	1	+	0	7	C3r.bmp	500	1	blank2r.bmp	800	1	DHJF	800	1	blank2r.bmp	870	5	begabt	870	1	!	1200	1	blank2r.bmp	1330	0	0	0
020218	13:42:10	1	18	5.0.10.0	d070_A21_A2_pleasB	dA21_valB_070	3	18	300	300	0	0	2721	23	0	1	blank2r.bmp	0	1	+	0	4	B4r.bmp	500	1	blank2r.bmp	800	1	DHJF	800	1	blank2r.bmp	870	3	kuss	870	1	!	1200	1	blank2r.bmp	1330	0	0	0
020218	13:42:10	1	18	5.0.10.0	d070_A21_A1_pleasB	dA21_valB_070	3	19	300	300	0	0	84	23	1	1	blank2r.bmp	0	1	+	0	3	B3r.bmp	500	1	blank2r.bmp	800	1	NPLW	800	1	blank2r.bmp	870	3	kuss	870	1	!	1200	1	blank2r.bmp	1330	0	0	0
020218	13:42:10	1	18	5.0.10.0	d070_A21_A1_pleasB	dA21_valB_070	3	20	300	300	0	0	34	18	0	1	blank2r.bmp	0	1	+	0	6	C2r.bmp	500	1	blank2r.bmp	800	1	NPLW	800	1	blank2r.bmp	870	2	mutig	870	1	!	1200	1	blank2r.bmp	1330	0	0	0
020218	13:42:10	1	18	5.0.10.0	d070_A21_A1_pleasB	dA21_valB_070	3	21	300	300	0	0	16	23	1	1	blank2r.bmp	0	1	+	0	8	C4r.bmp	500	1	blank2r.bmp	800	1	NPLW	800	1	blank2r.bmp	870	6	kreativ	870	1	!	1200	1	blank2r.bmp	1330	0	0	0
020218	13:42:10	1	18	5.0.10.0	d070_A21_A1_pleasB	dA21_valB_070	3	22	300	300	0	0	347	18	0	1	blank2r.bmp	0	1	+	0	1	B1r.bmp	500	1	blank2r.bmp	800	1	NPLW	800	1	blank2r.bmp	870	4	treu	870	1	!	1200	1	blank2r.bmp	1330	0	0	0
020218	13:42:10	1	18	5.0.10.0	d070_A21_A1_unplB	dA21_valB_070	3	23	300	300	0	0	308	23	1	1	blank2r.bmp	0	1	+	0	2	B2r.bmp	500	1	blank2r.bmp	800	1	NPLW	800	1	blank2r.bmp	870	3	ärger	870	1	!	1200	1	blank2r.bmp	1330	0	0	0
020218	13:42:10	1	18	5.0.10.0	d070_A21_A1_unplB	dA21_valB_070	3	24	300	300	0	0	288	18	0	1	blank2r.bmp	0	1	+	0	5	C1r.bmp	500	1	blank2r.bmp	800	1	NPLW	800	1	blank2r.bmp	870	1	grausam	870	1	!	1200	1	blank2r.bmp	1330	0	0	0
020218	13:42:10	1	18	5.0.10.0	d070_A21_A1_pleasB	dA21_valB_070	3	25	300	300	0	0	55	23	1	1	blank2r.bmp	0	1	+	0	5	C1r.bmp	500	1	blank2r.bmp	800	1	NPLW	800	1	blank2r.bmp	870	1	gut	870	1	!	1200	1	blank2r.bmp	1330	0	0	0
020218	13:42:10	1	18	5.0.10.0	d070_A21_A1_pleasB	dA21_valB_070	3	26	300	300	0	0	56	18	0	1	blank2r.bmp	0	1	+	0	3	B3r.bmp	500	1	blank2r.bmp	800	1	NPLW	800	1	blank2r.bmp	870	5	begabt	870	1	!	1200	1	blank2r.bmp	1330	0	0	0
020218	13:42:10	1	18	5.0.10.0	d070_A21_A2_pleasB	dA21_valB_070	3	27	300	300	0	0	193	23	0	1	blank2r.bmp	0	1	+	0	2	B2r.bmp	500	1	blank2r.bmp	800	1	DHJF	800	1	blank2r.bmp	870	3	kuss	870	1	!	1200	1	blank2r.bmp	1330	0	0	0
020218	13:42:10	1	18	5.0.10.0	d070_A21_A1_unplB	dA21_valB_070	3	28	300	300	0	0	288	18	0	1	blank2r.bmp	0	1	+	0	8	C4r.bmp	500	1	blank2r.bmp	800	1	NPLW	800	1	blank2r.bmp	870	6	traurig	870	1	!	1200	1	blank2r.bmp	1330	0	0	0
020218	13:42:10	1	18	5.0.10.0	d070_A21_A1_pleasB	dA21_valB_070	3	29	300	300	0	0	253	23	1	1	blank2r.bmp	0	1	+	0	7	C3r.bmp	500	1	blank2r.bmp	800	1	NPLW	800	1	blank2r.bmp	870	2	mutig	870	1	!	1200	1	blank2r.bmp	1330	0	0	0
020218	13:42:10	1	18	5.0.10.0	d070_A21_A1_pleasB	dA21_valB_070	3	30	300	300	0	0	175	18	0	1	blank2r.bmp	0	1	+	0	4	B4r.bmp	500	1	blank2r.bmp	800	1	NPLW	800	1	blank2r.bmp	870	1	gut	870	1	!	1200	1	blank2r.bmp	1330	0	0	0
020218	13:42:10	1	18	5.0.10.0	d070_A21_A1_unplB	dA21_valB_070	3	31	300	300	0	0	13	23	1	1	blank2r.bmp	0	1	+	0	1	B1r.bmp	500	1	blank2r.bmp	800	1	NPLW	800	1	blank2r.bmp	870	2	geizig	870	1	!	1200	1	blank2r.bmp	1330	0	0	0
020218	13:42:10	1	18	5.0.10.0	d070_A21_A2_pleasB	dA21_valB_070	3	32	300	300	0	0	53	18	1	1	blank2r.bmp	0	1	+	0	6	C2r.bmp	500	1	blank2r.bmp	800	1	DHJF	800	1	blank2r.bmp	870	5	begabt	870	1	!	1200	1	blank2r.bmp	1330	0	0	0
020218	13:42:10	1	18	5.0.10.0	d070_A21_A1_pleasB	dA21_valB_070	3	33	300	300	0	0	27	23	1	1	blank2r.bmp	0	1	+	0	1	B1r.bmp	500	1	blank2r.bmp	800	1	NPLW	800	1	blank2r.bmp	870	4	treu	870	1	!	1200	1	blank2r.bmp	1330	0	0	0
020218	13:42:10	1	18	5.0.10.0	d070_A21_A2_pleasB	dA21_valB_070	3	34	300	300	0	0	217	18	1	1	blank2r.bmp	0	1	+	0	5	C1r.bmp	500	1	blank2r.bmp	800	1	DHJF	800	1	blank2r.bmp	870	6	kreativ	870	1	!	1200	1	blank2r.bmp	1330	0	0	0
020218	13:42:10	1	18	5.0.10.0	d070_A21_A1_pleasB	dA21_valB_070	3	35	300	300	0	0	480	23	1	1	blank2r.bmp	0	1	+	0	2	B2r.bmp	500	1	blank2r.bmp	800	1	NPLW	800	1	blank2r.bmp	870	3	kuss	870	1	!	1200	1	blank2r.bmp	1330	0	0	0
020218	13:42:10	1	18	5.0.10.0	d070_A21_A2_unplB	dA21_valB_070	3	36	300	300	0	0	167	18	1	1	blank2r.bmp	0	1	+	0	4	B4r.bmp	500	1	blank2r.bmp	800	1	DHJF	800	1	blank2r.bmp	870	5	kummer	870	1	!	1200	1	blank2r.bmp	1330	0	0	0
020218	13:42:10	1	18	5.0.10.0	d070_A21_A1_unplB	dA21_valB_070	3	37	300	300	0	0	138	23	1	1	blank2r.bmp	0	1	+	0	7	C3r.bmp	500	1	blank2r.bmp	800	1	NPLW	800	1	blank2r.bmp	870	4	böse	870	1	!	1200	1	blank2r.bmp	1330	0	0	0
020218	13:42:10	1	18	5.0.10.0	d070_A21_A2_pleasB	dA21_valB_070	3	38	300	300	0	0	2313	23	0	1	blank2r.bmp	0	1	+	0	6	C2r.bmp	500	1	blank2r.bmp	800	1	DHJF	800	1	blank2r.bmp	870	5	begabt	870	1	!	1200	1	blank2r.bmp	1330	0	0	0
020218	13:42:10	1	18	5.0.10.0	d070_A21_A2_unplB	dA21_valB_070	3	39	300	300	0	0	2447	23	0	1	blank2r.bmp	0	1	+	0	3	B3r.bmp	500	1	blank2r.bmp	800	1	DHJF	800	1	blank2r.bmp	870	4	böse	870	1	!	1200	1	blank2r.bmp	1330	0	0	0
020218	13:42:10	1	18	5.0.10.0	d070_A21_A2_unplB	dA21_valB_070	3	40	300	300	0	0	300	18	1	1	blank2r.bmp	0	1	+	0	8	C4r.bmp	500	1	blank2r.bmp	800	1	DHJF	800	1	blank2r.bmp	870	1	grausam	870	1	!	1200	1	blank2r.bmp	1330	0	0	0
020218	13:42:10	1	18	5.0.10.0	d070_A21_A2_unplB	dA21_valB_070	3	41	300	300	0	0	18	23	0	1	blank2r.bmp	0	1	+	0	2	B2r.bmp	500	1	blank2r.bmp	800	1	DHJF	800	1	blank2r.bmp	870	6	traurig	870	1	!	1200	1	blank2r.bmp	1330	0	0	0
020218	13:42:10	1	18	5.0.10.0	d070_A21_A2_pleasB	dA21_valB_070	3	42	300	300	0	0	50	18	1	1	blank2r.bmp	0	1	+	0	5	C1r.bmp	500	1	blank2r.bmp	800	1	DHJF	800	1	blank2r.bmp	870	4	treu	870	1	!	1200	1	blank2r.bmp	1330	0	0	0
020218	13:42:10	1	18	5.0.10.0	d070_A21_A1_unplB	dA21_valB_070	3	43	300	300	0	0	322	18	0	1	blank2r.bmp	0	1	+	0	1	B1r.bmp	500	1	blank2r.bmp	800	1	NPLW	800	1	blank2r.bmp	870	3	ärger	870	1	!	1200	1	blank2r.bmp	1330	0	0	0
020218	13:42:10	1	18	5.0.10.0	d070_A21_A2_pleasB	dA21_valB_070	3	44	300	300	0	0	107	23	0	1	blank2r.bmp	0	1	+	0	6	C2r.bmp	500	1	blank2r.bmp	800	1	DHJF	800	1	blank2r.bmp	870	6	kreativ	870	1	!	1200	1	blank2r.bmp	1330	0	0	0
020218	13:42:10	1	18	5.0.10.0	d070_A21_A1_pleasB	dA21_valB_070	3	45	300	300	0	0	2292	18	0	1	blank2r.bmp	0	1	+	0	7	C3r.bmp	500	1	blank2r.bmp	800	1	NPLW	800	1	blank2r.bmp	870	1	gut	870	1	!	1200	1	blank2r.bmp	1330	0	0	0
020218	13:42:10	1	18	5.0.10.0	d070_A21_A1_unplB	dA21_valB_070	3	46	300	300	0	0	89	23	1	1	blank2r.bmp	0	1	+	0	3	B3r.bmp	500	1	blank2r.bmp	800	1	NPLW	800	1	blank2r.bmp	870	5	kummer	870	1	!	1200	1	blank2r.bmp	1330	0	0	0
020218	13:42:10	1	18	5.0.10.0	d070_A21_A1_unplB	dA21_valB_070	3	47	300	300	0	0	2208	23	1	1	blank2r.bmp	0	1	+	0	8	C4r.bmp	500	1	blank2r.bmp	800	1	NPLW	800	1	blank2r.bmp	870	2	geizig	870	1	!	1200	1	blank2r.bmp	1330	0	0	0
020218	13:42:10	1	18	5.0.10.0	d070_A21_A2_pleasB	dA21_valB_070	3	48	300	300	0	0	35	18	1	1	blank2r.bmp	0	1	+	0	4	B4r.bmp	500	1	blank2r.bmp	800	1	DHJF	800	1	blank2r.bmp	870	2	mutig	870	1	!	1200	1	blank2r.bmp	1330	0	0	0
020218	13:42:10	1	18	5.0.10.0	d070_A21_A2_unplB	dA21_valB_070	4	1	300	300	0	0	139	23	0	1	blank2r.bmp	0	1	+	0	1	B1r.bmp	500	1	blank2r.bmp	800	1	DHJF	800	1	blank2r.bmp	870	6	traurig	870	1	!	1200	1	blank2r.bmp	1330	0	0	0
020218	13:42:10	1	18	5.0.10.0	d070_A21_A2_unplB	dA21_valB_070	4	2	300	300	0	0	87	18	1	1	blank2r.bmp	0	1	+	0	6	C2r.bmp	500	1	blank2r.bmp	800	1	DHJF	800	1	blank2r.bmp	870	2	geizig	870	1	!	1200	1	blank2r.bmp	1330	0	0	0
020218	13:42:10	1	18	5.0.10.0	d070_A21_A2_unplB	dA21_valB_070	4	3	300	300	0	0	2341	23	0	1	blank2r.bmp	0	1	+	0	3	B3r.bmp	500	1	blank2r.bmp	800	1	DHJF	800	1	blank2r.bmp	870	5	kummer	870	1	!	1200	1	blank2r.bmp	1330	0	0	0
020218	13:42:10	1	18	5.0.10.0	d070_A21_A1_unplB	dA21_valB_070	4	4	300	300	0	0	404	18	0	1	blank2r.bmp	0	1	+	0	8	C4r.bmp	500	1	blank2r.bmp	800	1	NPLW	800	1	blank2r.bmp	870	1	grausam	870	1	!	1200	1	blank2r.bmp	1330	0	0	0
020218	13:42:10	1	18	5.0.10.0	d070_A21_A1_unplB	dA21_valB_070	4	5	300	300	0	0	334	18	0	1	blank2r.bmp	0	1	+	0	7	C3r.bmp	500	1	blank2r.bmp	800	1	NPLW	800	1	blank2r.bmp	870	4	böse	870	1	!	1200	1	blank2r.bmp	1330	0	0	0
020218	13:42:10	1	18	5.0.10.0	d070_A21_A1_unplB	dA21_valB_070	4	6	300	300	0	0	19	23	1	1	blank2r.bmp	0	1	+	0	5	C1r.bmp	500	1	blank2r.bmp	800	1	NPLW	800	1	blank2r.bmp	870	3	ärger	870	1	!	1200	1	blank2r.bmp	1330	0	0	0
020218	13:42:10	1	18	5.0.10.0	d070_A21_A2_pleasB	dA21_valB_070	4	7	300	300	0	0	141	23	0	1	blank2r.bmp	0	1	+	0	2	B2r.bmp	500	1	blank2r.bmp	800	1	DHJF	800	1	blank2r.bmp	870	3	kuss	870	1	!	1200	1	blank2r.bmp	1330	0	0	0
020218	13:42:10	1	18	5.0.10.0	d070_A21_A2_pleasB	dA21_valB_070	4	8	300	300	0	0	2086	18	1	1	blank2r.bmp	0	1	+	0	4	B4r.bmp	500	1	blank2r.bmp	800	1	DHJF	800	1	blank2r.bmp	870	5	begabt	870	1	!	1200	1	blank2r.bmp	1330	0	0	0
020218	13:42:10	1	18	5.0.10.0	d070_A21_A2_pleasB	dA21_valB_070	4	9	300	300	0	0	518	18	1	1	blank2r.bmp	0	1	+	0	2	B2r.bmp	500	1	blank2r.bmp	800	1	DHJF	800	1	blank2r.bmp	870	4	treu	870	1	!	1200	1	blank2r.bmp	1330	0	0	0
020218	13:42:10	1	18	5.0.10.0	d070_A21_A2_pleasB	dA21_valB_070	4	10	300	300	0	0	214	23	0	1	blank2r.bmp	0	1	+	0	5	C1r.bmp	500	1	blank2r.bmp	800	1	DHJF	800	1	blank2r.bmp	870	6	kreativ	870	1	!	1200	1	blank2r.bmp	1330	0	0	0
020218	13:42:10	1	18	5.0.10.0	d070_A21_A1_pleasB	dA21_valB_070	4	11	300	300	0	0	207	18	0	1	blank2r.bmp	0	1	+	0	3	B3r.bmp	500	1	blank2r.bmp	800	1	NPLW	800	1	blank2r.bmp	870	2	mutig	870	1	!	1200	1	blank2r.bmp	1330	0	0	0
020218	13:42:10	1	18	5.0.10.0	d070_A21_A2_pleasB	dA21_valB_070	4	12	300	300	0	0	192	23	0	1	blank2r.bmp	0	1	+	0	6	C2r.bmp	500	1	blank2r.bmp	800	1	DHJF	800	1	blank2r.bmp	870	1	gut	870	1	!	1200	1	blank2r.bmp	1330	0	0	0
020218	13:42:10	1	18	5.0.10.0	d070_A21_A2_unplB	dA21_valB_070	4	13	300	300	0	0	314	18	1	1	blank2r.bmp	0	1	+	0	7	C3r.bmp	500	1	blank2r.bmp	800	1	DHJF	800	1	blank2r.bmp	870	6	traurig	870	1	!	1200	1	blank2r.bmp	1330	0	0	0
020218	13:42:10	1	18	5.0.10.0	d070_A21_A1_pleasB	dA21_valB_070	4	14	300	300	0	0	1942	18	0	1	blank2r.bmp	0	1	+	0	8	C4r.bmp	500	1	blank2r.bmp	800	1	NPLW	800	1	blank2r.bmp	870	1	gut	870	1	!	1200	1	blank2r.bmp	1330	0	0	0
020218	13:42:10	1	18	5.0.10.0	d070_A21_A2_unplB	dA21_valB_070	4	15	300	300	0	0	1894	23	0	1	blank2r.bmp	0	1	+	0	4	B4r.bmp	500	1	blank2r.bmp	800	1	DHJF	800	1	blank2r.bmp	870	5	kummer	870	1	!	1200	1	blank2r.bmp	1330	0	0	0
020218	13:42:10	1	18	5.0.10.0	d070_A21_A1_pleasB	dA21_valB_070	4	16	300	300	0	0	154	18	0	1	blank2r.bmp	0	1	+	0	1	B1r.bmp	500	1	blank2r.bmp	800	1	NPLW	800	1	blank2r.bmp	870	2	mutig	870	1	!	1200	1	blank2r.bmp	1330	0	0	0
020218	13:42:10	1	18	5.0.10.0	d070_A21_A1_unplB	dA21_valB_070	4	17	300	300	0	0	2508	18	0	1	blank2r.bmp	0	1	+	0	6	C2r.bmp	500	1	blank2r.bmp	800	1	NPLW	800	1	blank2r.bmp	870	1	grausam	870	1	!	1200	1	blank2r.bmp	1330	0	0	0
020218	13:42:10	1	18	5.0.10.0	d070_A21_A2_pleasB	dA21_valB_070	4	18	300	300	0	0	302	18	1	1	blank2r.bmp	0	1	+	0	5	C1r.bmp	500	1	blank2r.bmp	800	1	DHJF	800	1	blank2r.bmp	870	4	treu	870	1	!	1200	1	blank2r.bmp	1330	0	0	0
020218	13:42:10	1	18	5.0.10.0	d070_A21_A2_pleasB	dA21_valB_070	4	19	300	300	0	0	67	23	0	1	blank2r.bmp	0	1	+	0	8	C4r.bmp	500	1	blank2r.bmp	800	1	DHJF	800	1	blank2r.bmp	870	5	begabt	870	1	!	1200	1	blank2r.bmp	1330	0	0	0
020218	13:42:10	1	18	5.0.10.0	d070_A21_A2_pleasB	dA21_valB_070	4	20	300	300	0	0	428	18	1	1	blank2r.bmp	0	1	+	0	1	B1r.bmp	500	1	blank2r.bmp	800	1	DHJF	800	1	blank2r.bmp	870	3	kuss	870	1	!	1200	1	blank2r.bmp	1330	0	0	0
020218	13:42:10	1	18	5.0.10.0	d070_A21_A2_pleasB	dA21_valB_070	4	21	300	300	0	0	290	18	1	1	blank2r.bmp	0	1	+	0	7	C3r.bmp	500	1	blank2r.bmp	800	1	DHJF	800	1	blank2r.bmp	870	6	kreativ	870	1	!	1200	1	blank2r.bmp	1330	0	0	0
020218	13:42:10	1	18	5.0.10.0	d070_A21_A1_unplB	dA21_valB_070	4	22	300	300	0	0	93	23	1	1	blank2r.bmp	0	1	+	0	2	B2r.bmp	500	1	blank2r.bmp	800	1	NPLW	800	1	blank2r.bmp	870	3	ärger	870	1	!	1200	1	blank2r.bmp	1330	0	0	0
020218	13:42:10	1	18	5.0.10.0	d070_A21_A1_pleasB	dA21_valB_070	4	23	300	300	0	0	141	18	0	1	blank2r.bmp	0	1	+	0	3	B3r.bmp	500	1	blank2r.bmp	800	1	NPLW	800	1	blank2r.bmp	870	2	mutig	870	1	!	1200	1	blank2r.bmp	1330	0	0	0
020218	13:42:10	1	18	5.0.10.0	d070_A21_A1_pleasB	dA21_valB_070	4	24	300	300	0	0	318	23	1	1	blank2r.bmp	0	1	+	0	4	B4r.bmp	500	1	blank2r.bmp	800	1	NPLW	800	1	blank2r.bmp	870	6	kreativ	870	1	!	1200	1	blank2r.bmp	1330	0	0	0
020218	13:42:10	1	18	5.0.10.0	d070_A21_A1_unplB	dA21_valB_070	4	25	300	300	0	0	2185	18	0	1	blank2r.bmp	0	1	+	0	6	C2r.bmp	500	1	blank2r.bmp	800	1	NPLW	800	1	blank2r.bmp	870	4	böse	870	1	!	1200	1	blank2r.bmp	1330	0	0	0
020218	13:42:10	1	18	5.0.10.0	d070_A21_A2_unplB	dA21_valB_070	4	26	300	300	0	0	354	23	0	1	blank2r.bmp	0	1	+	0	3	B3r.bmp	500	1	blank2r.bmp	800	1	DHJF	800	1	blank2r.bmp	870	2	geizig	870	1	!	1200	1	blank2r.bmp	1330	0	0	0
020218	13:42:10	1	18	5.0.10.0	d070_A21_A2_pleasB	dA21_valB_070	4	27	300	300	0	0	190	23	0	1	blank2r.bmp	0	1	+	0	1	B1r.bmp	500	1	blank2r.bmp	800	1	DHJF	800	1	blank2r.bmp	870	3	kuss	870	1	!	1200	1	blank2r.bmp	1330	0	0	0
020218	13:42:10	1	18	5.0.10.0	d070_A21_A1_pleasB	dA21_valB_070	4	28	300	300	0	0	845	18	0	1	blank2r.bmp	0	1	+	0	5	C1r.bmp	500	1	blank2r.bmp	800	1	NPLW	800	1	blank2r.bmp	870	4	treu	870	1	!	1200	1	blank2r.bmp	1330	0	0	0
020218	13:42:10	1	18	5.0.10.0	d070_A21_A2_pleasB	dA21_valB_070	4	29	300	300	0	0	52	18	1	1	blank2r.bmp	0	1	+	0	7	C3r.bmp	500	1	blank2r.bmp	800	1	DHJF	800	1	blank2r.bmp	870	1	gut	870	1	!	1200	1	blank2r.bmp	1330	0	0	0
020218	13:42:10	1	18	5.0.10.0	d070_A21_A1_unplB	dA21_valB_070	4	30	300	300	0	0	265	23	1	1	blank2r.bmp	0	1	+	0	8	C4r.bmp	500	1	blank2r.bmp	800	1	NPLW	800	1	blank2r.bmp	870	1	grausam	870	1	!	1200	1	blank2r.bmp	1330	0	0	0
020218	13:42:10	1	18	5.0.10.0	d070_A21_A1_unplB	dA21_valB_070	4	31	300	300	0	0	35	18	0	1	blank2r.bmp	0	1	+	0	2	B2r.bmp	500	1	blank2r.bmp	800	1	NPLW	800	1	blank2r.bmp	870	5	kummer	870	1	!	1200	1	blank2r.bmp	1330	0	0	0
020218	13:42:10	1	18	5.0.10.0	d070_A21_A1_unplB	dA21_valB_070	4	32	300	300	0	0	1886	18	0	1	blank2r.bmp	0	1	+	0	4	B4r.bmp	500	1	blank2r.bmp	800	1	NPLW	800	1	blank2r.bmp	870	4	böse	870	1	!	1200	1	blank2r.bmp	1330	0	0	0
020218	13:42:10	1	18	5.0.10.0	d070_A21_A2_unplB	dA21_valB_070	4	33	300	300	0	0	35	23	0	1	blank2r.bmp	0	1	+	0	7	C3r.bmp	500	1	blank2r.bmp	800	1	DHJF	800	1	blank2r.bmp	870	2	geizig	870	1	!	1200	1	blank2r.bmp	1330	0	0	0
020218	13:42:10	1	18	5.0.10.0	d070_A21_A1_unplB	dA21_valB_070	4	34	300	300	0	0	2078	23	1	1	blank2r.bmp	0	1	+	0	4	B4r.bmp	500	1	blank2r.bmp	800	1	NPLW	800	1	blank2r.bmp	870	6	traurig	870	1	!	1200	1	blank2r.bmp	1330	0	0	0
020218	13:42:10	1	18	5.0.10.0	d070_A21_A2_unplB	dA21_valB_070	4	35	300	300	0	0	9	18	1	1	blank2r.bmp	0	1	+	0	5	C1r.bmp	500	1	blank2r.bmp	800	1	DHJF	800	1	blank2r.bmp	870	3	ärger	870	1	!	1200	1	blank2r.bmp	1330	0	0	0
020218	13:42:10	1	18	5.0.10.0	d070_A21_A1_pleasB	dA21_valB_070	4	36	300	300	0	0	2015	18	0	1	blank2r.bmp	0	1	+	0	1	B1r.bmp	500	1	blank2r.bmp	800	1	NPLW	800	1	blank2r.bmp	870	5	begabt	870	1	!	1200	1	blank2r.bmp	1330	0	0	0
020218	13:42:10	1	18	5.0.10.0	d070_A21_A2_unplB	dA21_valB_070	4	37	300	300	0	0	347	23	0	1	blank2r.bmp	0	1	+	0	8	C4r.bmp	500	1	blank2r.bmp	800	1	DHJF	800	1	blank2r.bmp	870	5	kummer	870	1	!	1200	1	blank2r.bmp	1330	0	0	0
020218	13:42:10	1	18	5.0.10.0	d070_A21_A2_pleasB	dA21_valB_070	4	38	300	300	0	0	1448	18	1	1	blank2r.bmp	0	1	+	0	2	B2r.bmp	500	1	blank2r.bmp	800	1	DHJF	800	1	blank2r.bmp	870	2	mutig	870	1	!	1200	1	blank2r.bmp	1330	0	0	0
020218	13:42:10	1	18	5.0.10.0	d070_A21_A1_pleasB	dA21_valB_070	4	39	300	300	0	0	1521	18	0	1	blank2r.bmp	0	1	+	0	3	B3r.bmp	500	1	blank2r.bmp	800	1	NPLW	800	1	blank2r.bmp	870	3	kuss	870	1	!	1200	1	blank2r.bmp	1330	0	0	0
020218	13:42:10	1	18	5.0.10.0	d070_A21_A1_unplB	dA21_valB_070	4	40	300	300	0	0	119	23	1	1	blank2r.bmp	0	1	+	0	6	C2r.bmp	500	1	blank2r.bmp	800	1	NPLW	800	1	blank2r.bmp	870	6	traurig	870	1	!	1200	1	blank2r.bmp	1330	0	0	0
020218	13:42:10	1	18	5.0.10.0	d070_A21_A2_unplB	dA21_valB_070	4	41	300	300	0	0	1482	23	0	1	blank2r.bmp	0	1	+	0	7	C3r.bmp	500	1	blank2r.bmp	800	1	DHJF	800	1	blank2r.bmp	870	3	ärger	870	1	!	1200	1	blank2r.bmp	1330	0	0	0
020218	13:42:10	1	18	5.0.10.0	d070_A21_A1_pleasB	dA21_valB_070	4	42	300	300	0	0	1632	23	1	1	blank2r.bmp	0	1	+	0	1	B1r.bmp	500	1	blank2r.bmp	800	1	NPLW	800	1	blank2r.bmp	870	4	treu	870	1	!	1200	1	blank2r.bmp	1330	0	0	0
020218	13:42:10	1	18	5.0.10.0	d070_A21_A1_pleasB	dA21_valB_070	4	43	300	300	0	0	19	18	0	1	blank2r.bmp	0	1	+	0	8	C4r.bmp	500	1	blank2r.bmp	800	1	NPLW	800	1	blank2r.bmp	870	5	begabt	870	1	!	1200	1	blank2r.bmp	1330	0	0	0
020218	13:42:10	1	18	5.0.10.0	d070_A21_A1_pleasB	dA21_valB_070	4	44	300	300	0	0	2786	23	1	1	blank2r.bmp	0	1	+	0	3	B3r.bmp	500	1	blank2r.bmp	800	1	NPLW	800	1	blank2r.bmp	870	6	kreativ	870	1	!	1200	1	blank2r.bmp	1330	0	0	0
020218	13:42:10	1	18	5.0.10.0	d070_A21_A2_unplB	dA21_valB_070	4	45	300	300	0	0	1772	18	1	1	blank2r.bmp	0	1	+	0	2	B2r.bmp	500	1	blank2r.bmp	800	1	DHJF	800	1	blank2r.bmp	870	4	böse	870	1	!	1200	1	blank2r.bmp	1330	0	0	0
020218	13:42:10	1	18	5.0.10.0	d070_A21_A1_pleasB	dA21_valB_070	4	46	300	300	0	0	1608	18	0	1	blank2r.bmp	0	1	+	0	6	C2r.bmp	500	1	blank2r.bmp	800	1	NPLW	800	1	blank2r.bmp	870	1	gut	870	1	!	1200	1	blank2r.bmp	1330	0	0	0
020218	13:42:10	1	18	5.0.10.0	d070_A21_A1_unplB	dA21_valB_070	4	47	300	300	0	0	2007	23	1	1	blank2r.bmp	0	1	+	0	4	B4r.bmp	500	1	blank2r.bmp	800	1	NPLW	800	1	blank2r.bmp	870	1	grausam	870	1	!	1200	1	blank2r.bmp	1330	0	0	0
020218	13:42:10	1	18	5.0.10.0	d070_A21_A2_unplB	dA21_valB_070	4	48	300	300	0	0	2896	23	0	1	blank2r.bmp	0	1	+	0	5	C1r.bmp	500	1	blank2r.bmp	800	1	DHJF	800	1	blank2r.bmp	870	2	geizig	870	1	!	1200	1	blank2r.bmp	1330	0	0	0
020218	13:42:10	1	18	5.0.10.0	dL_B21_B2_pleasA	dB21_valA_pract1	6	1	300	300	0	0	1590	18	1	1	blank2r.bmp	0	1	+	0	8	C4r.bmp	500	1	blank2r.bmp	700	1	GKQX	700	4	B4r.bmp	830	1	blank2r.bmp	870	3	freund	870	1	!	1200	1	blank2r.bmp	1330
020218	13:42:10	1	18	5.0.10.0	dL_B21_B2_unplA	dB21_valA_pract1	6	2	300	300	0	0	3807	18	1	1	blank2r.bmp	0	1	+	0	3	B3r.bmp	500	1	blank2r.bmp	700	1	GKQX	700	6	C2r.bmp	830	1	blank2r.bmp	870	1	unfair	870	1	!	1200	1	blank2r.bmp	1330
020218	13:42:10	1	18	5.0.10.0	dL_B21_B1_unplA	dB21_valA_pract1	6	3	300	300	0	0	3898	23	1	1	blank2r.bmp	0	1	+	0	4	B4r.bmp	500	1	blank2r.bmp	700	1	BMVZ	700	2	B2r.bmp	830	1	blank2r.bmp	870	5	schlecht	870	1	!	1200	1	blank2r.bmp	1330
020218	13:42:10	1	18	5.0.10.0	dL_B21_B2_unplA	dB21_valA_pract1	6	4	300	300	0	0	4394	23	0	1	blank2r.bmp	0	1	+	0	6	C2r.bmp	500	1	blank2r.bmp	700	1	GKQX	700	7	C3r.bmp	830	1	blank2r.bmp	870	3	töten	870	1	!	1200	1	blank2r.bmp	1330
020218	13:42:10	1	18	5.0.10.0	dL_B21_B1_pleasA	dB21_valA_pract1	6	5	300	300	0	0	3954	23	1	1	blank2r.bmp	0	1	+	0	1	B1r.bmp	500	1	blank2r.bmp	700	1	BMVZ	700	5	C1r.bmp	830	1	blank2r.bmp	870	6	froh	870	1	!	1200	1	blank2r.bmp	1330
020218	13:42:10	1	18	5.0.10.0	dL_B21_B1_pleasA	dB21_valA_pract1	6	6	300	300	0	0	80	23	1	1	blank2r.bmp	0	1	+	0	7	C3r.bmp	500	1	blank2r.bmp	700	1	BMVZ	700	8	C4r.bmp	830	1	blank2r.bmp	870	5	friedlich	870	1	!	1200	1	blank2r.bmp	1330
020218	13:42:10	1	18	5.0.10.0	dL_B21_B2_unplA	dB21_valA_pract1	6	7	300	300	0	0	2547	18	1	1	blank2r.bmp	0	1	+	0	2	B2r.bmp	500	1	blank2r.bmp	700	1	GKQX	700	3	B3r.bmp	830	1	blank2r.bmp	870	6	leiden	870	1	!	1200	1	blank2r.bmp	1330
020218	13:42:10	1	18	5.0.10.0	dL_B21_B1_unplA	dB21_valA_pract1	6	8	300	300	0	0	3855	23	1	1	blank2r.bmp	0	1	+	0	5	C1r.bmp	500	1	blank2r.bmp	700	1	BMVZ	700	1	B1r.bmp	830	1	blank2r.bmp	870	4	elend	870	1	!	1200	1	blank2r.bmp	1330
020218	13:42:10	1	18	5.0.10.0	dL_B21_B2_pleasA	dB21_valA_pract1	6	9	300	300	0	0	4365	18	1	1	blank2r.bmp	0	1	+	0	1	B1r.bmp	500	1	blank2r.bmp	700	1	GKQX	700	6	C2r.bmp	830	1	blank2r.bmp	870	4	heiter	870	1	!	1200	1	blank2r.bmp	1330
020218	13:42:10	1	18	5.0.10.0	dL_B21_B2_pleasA	dB21_valA_pract1	6	10	300	300	0	0	4350	18	1	1	blank2r.bmp	0	1	+	0	6	C2r.bmp	500	1	blank2r.bmp	700	1	GKQX	700	5	C1r.bmp	830	1	blank2r.bmp	870	2	schön	870	1	!	1200	1	blank2r.bmp	1330
020218	13:42:10	1	18	5.0.10.0	dL_B21_B1_unplA	dB21_valA_pract1	6	11	300	300	0	0	4254	23	1	1	blank2r.bmp	0	1	+	0	5	C1r.bmp	500	1	blank2r.bmp	700	1	BMVZ	700	8	C4r.bmp	830	1	blank2r.bmp	870	2	neidisch	870	1	!	1200	1	blank2r.bmp	1330
020218	13:42:10	1	18	5.0.10.0	dL_B21_B1_pleasA	dB21_valA_pract1	6	12	300	300	0	0	4554	23	1	1	blank2r.bmp	0	1	+	0	3	B3r.bmp	500	1	blank2r.bmp	700	1	BMVZ	700	7	C3r.bmp	830	1	blank2r.bmp	870	1	toll	870	1	!	1200	1	blank2r.bmp	1330
020218	13:42:10	1	18	5.0.10.0	dM_B21_B1_pleasA	dB21_valA_pract2	7	1	300	300	0	0	5362	23	1	1	blank2r.bmp	0	1	+	0	2	B2r.bmp	500	1	blank2r.bmp	730	1	BMVZ	730	3	B3r.bmp	830	1	blank2r.bmp	870	1	toll	870	1	!	1200	1	blank2r.bmp	1330
020218	13:42:10	1	18	5.0.10.0	dM_B21_B2_pleasA	dB21_valA_pract2	7	2	300	300	0	0	7368	23	0	1	blank2r.bmp	0	1	+	0	8	C4r.bmp	500	1	blank2r.bmp	730	1	GKQX	730	1	B1r.bmp	830	1	blank2r.bmp	870	6	froh	870	1	!	1200	1	blank2r.bmp	1330
020218	13:42:10	1	18	5.0.10.0	dM_B21_B2_pleasA	dB21_valA_pract2	7	3	300	300	0	0	6465	23	0	1	blank2r.bmp	0	1	+	0	4	B4r.bmp	500	1	blank2r.bmp	730	1	GKQX	730	2	B2r.bmp	830	1	blank2r.bmp	870	5	friedlich	870	1	!	1200	1	blank2r.bmp	1330
020218	13:42:10	1	18	5.0.10.0	dM_B21_B2_unplA	dB21_valA_pract2	7	4	300	300	0	0	10866	23	0	1	blank2r.bmp	0	1	+	0	7	C3r.bmp	500	1	blank2r.bmp	730	1	GKQX	730	4	B4r.bmp	830	1	blank2r.bmp	870	6	leiden	870	1	!	1200	1	blank2r.bmp	1330
020218	13:42:10	1	18	5.0.10.0	dM_B21_B2_pleasA	dB21_valA_pract2	7	5	300	300	0	0	242	18	1	1	blank2r.bmp	0	1	+	0	5	C1r.bmp	500	1	blank2r.bmp	730	1	GKQX	730	2	B2r.bmp	830	1	blank2r.bmp	870	4	heiter	870	1	!	1200	1	blank2r.bmp	1330
020218	13:42:10	1	18	5.0.10.0	dM_B21_B1_pleasA	dB21_valA_pract2	7	6	300	300	0	0	5474	23	1	1	blank2r.bmp	0	1	+	0	1	B1r.bmp	500	1	blank2r.bmp	730	1	BMVZ	730	8	C4r.bmp	830	1	blank2r.bmp	870	3	freund	870	1	!	1200	1	blank2r.bmp	1330
020218	13:42:10	1	18	5.0.10.0	dM_B21_B1_unplA	dB21_valA_pract2	7	7	300	300	0	0	185	23	1	1	blank2r.bmp	0	1	+	0	4	B4r.bmp	500	1	blank2r.bmp	730	1	BMVZ	730	6	C2r.bmp	830	1	blank2r.bmp	870	3	töten	870	1	!	1200	1	blank2r.bmp	1330
020218	13:42:10	1	18	5.0.10.0	dM_B21_B1_unplA	dB21_valA_pract2	7	8	300	300	0	0	234	23	1	1	blank2r.bmp	0	1	+	0	6	C2r.bmp	500	1	blank2r.bmp	730	1	BMVZ	730	1	B1r.bmp	830	1	blank2r.bmp	870	1	unfair	870	1	!	1200	1	blank2r.bmp	1330
020218	13:42:10	1	18	5.0.10.0	dM_B21_B2_unplA	dB21_valA_pract2	7	9	300	300	0	0	6327	23	0	1	blank2r.bmp	0	1	+	0	8	C4r.bmp	500	1	blank2r.bmp	730	1	GKQX	730	7	C3r.bmp	830	1	blank2r.bmp	870	4	elend	870	1	!	1200	1	blank2r.bmp	1330
020218	13:42:10	1	18	5.0.10.0	dM_B21_B1_pleasA	dB21_valA_pract2	7	10	300	300	0	0	7229	23	1	1	blank2r.bmp	0	1	+	0	2	B2r.bmp	500	1	blank2r.bmp	730	1	BMVZ	730	5	C1r.bmp	830	1	blank2r.bmp	870	2	schön	870	1	!	1200	1	blank2r.bmp	1330
020218	13:42:10	1	18	5.0.10.0	dM_B21_B2_unplA	dB21_valA_pract2	7	11	300	300	0	0	101	18	1	1	blank2r.bmp	0	1	+	0	7	C3r.bmp	500	1	blank2r.bmp	730	1	GKQX	730	4	B4r.bmp	830	1	blank2r.bmp	870	5	schlecht	870	1	!	1200	1	blank2r.bmp	1330
020218	13:42:10	1	18	5.0.10.0	dM_B21_B1_unplA	dB21_valA_pract2	7	12	300	300	0	0	155	23	1	1	blank2r.bmp	0	1	+	0	3	B3r.bmp	500	1	blank2r.bmp	730	1	BMVZ	730	3	B3r.bmp	830	1	blank2r.bmp	870	2	neidisch	870	1	!	1200	1	blank2r.bmp	1330
020218	13:42:10	1	18	5.0.10.0	d080_B21_B1_unplA	dB21_valA_080	8	1	300	300	0	0	45	23	1	1	blank2r.bmp	0	1	+	0	1	B1r.bmp	500	1	blank2r.bmp	800	1	BMVZ	800	1	blank2r.bmp	880	3	töten	880	1	!	1210	1	blank2r.bmp	1340	0	0	0
020218	13:42:10	1	18	5.0.10.0	d080_B21_B2_pleasA	dB21_valA_080	8	2	300	300	0	0	105	18	1	1	blank2r.bmp	0	1	+	0	8	C4r.bmp	500	1	blank2r.bmp	800	1	GKQX	800	1	blank2r.bmp	880	2	schön	880	1	!	1210	1	blank2r.bmp	1340	0	0	0
020218	13:42:10	1	18	5.0.10.0	d080_B21_B2_unplA	dB21_valA_080	8	3	300	300	0	0	220	23	0	1	blank2r.bmp	0	1	+	0	5	C1r.bmp	500	1	blank2r.bmp	800	1	GKQX	800	1	blank2r.bmp	880	6	leiden	880	1	!	1210	1	blank2r.bmp	1340	0	0	0
020218	13:42:10	1	18	5.0.10.0	d080_B21_B1_unplA	dB21_valA_080	8	4	300	300	0	0	3177	23	1	1	blank2r.bmp	0	1	+	0	2	B2r.bmp	500	1	blank2r.bmp	800	1	BMVZ	800	1	blank2r.bmp	880	4	elend	880	1	!	1210	1	blank2r.bmp	1340	0	0	0
020218	13:42:10	1	18	5.0.10.0	d080_B21_B2_pleasA	dB21_valA_080	8	5	300	300	0	0	24	18	1	1	blank2r.bmp	0	1	+	0	4	B4r.bmp	500	1	blank2r.bmp	800	1	GKQX	800	1	blank2r.bmp	880	6	froh	880	1	!	1210	1	blank2r.bmp	1340	0	0	0
020218	13:42:10	1	18	5.0.10.0	d080_B21_B1_unplA	dB21_valA_080	8	6	300	300	0	0	2650	23	1	1	blank2r.bmp	0	1	+	0	7	C3r.bmp	500	1	blank2r.bmp	800	1	BMVZ	800	1	blank2r.bmp	880	1	unfair	880	1	!	1210	1	blank2r.bmp	1340	0	0	0
020218	13:42:10	1	18	5.0.10.0	d080_B21_B1_pleasA	dB21_valA_080	8	7	300	300	0	0	25	23	1	1	blank2r.bmp	0	1	+	0	3	B3r.bmp	500	1	blank2r.bmp	800	1	BMVZ	800	1	blank2r.bmp	880	4	heiter	880	1	!	1210	1	blank2r.bmp	1340	0	0	0
020218	13:42:10	1	18	5.0.10.0	d080_B21_B2_unplA	dB21_valA_080	8	8	300	300	0	0	49	18	1	1	blank2r.bmp	0	1	+	0	6	C2r.bmp	500	1	blank2r.bmp	800	1	GKQX	800	1	blank2r.bmp	880	5	schlecht	880	1	!	1210	1	blank2r.bmp	1340	0	0	0
020218	13:42:10	1	18	5.0.10.0	d080_B21_B2_pleasA	dB21_valA_080	8	9	300	300	0	0	1807	18	1	1	blank2r.bmp	0	1	+	0	1	B1r.bmp	500	1	blank2r.bmp	800	1	GKQX	800	1	blank2r.bmp	880	3	freund	880	1	!	1210	1	blank2r.bmp	1340	0	0	0
020218	13:42:10	1	18	5.0.10.0	d080_B21_B1_pleasA	dB21_valA_080	8	10	300	300	0	0	2328	23	1	1	blank2r.bmp	0	1	+	0	6	C2r.bmp	500	1	blank2r.bmp	800	1	BMVZ	800	1	blank2r.bmp	880	1	toll	880	1	!	1210	1	blank2r.bmp	1340	0	0	0
020218	13:42:10	1	18	5.0.10.0	d080_B21_B2_unplA	dB21_valA_080	8	11	300	300	0	0	3729	23	0	1	blank2r.bmp	0	1	+	0	5	C1r.bmp	500	1	blank2r.bmp	800	1	GKQX	800	1	blank2r.bmp	880	2	neidisch	880	1	!	1210	1	blank2r.bmp	1340	0	0	0
020218	13:42:10	1	18	5.0.10.0	d080_B21_B2_pleasA	dB21_valA_080	8	12	300	300	0	0	3314	18	1	1	blank2r.bmp	0	1	+	0	2	B2r.bmp	500	1	blank2r.bmp	800	1	GKQX	800	1	blank2r.bmp	880	5	friedlich	880	1	!	1210	1	blank2r.bmp	1340	0	0	0
020218	13:42:10	1	18	5.0.10.0	d080_B21_B1_pleasA	dB21_valA_080	8	13	300	300	0	0	4417	23	1	1	blank2r.bmp	0	1	+	0	4	B4r.bmp	500	1	blank2r.bmp	800	1	BMVZ	800	1	blank2r.bmp	880	2	schön	880	1	!	1210	1	blank2r.bmp	1340	0	0	0
020218	13:42:10	1	18	5.0.10.0	d080_B21_B1_pleasA	dB21_valA_080	8	14	300	300	0	0	5409	23	1	1	blank2r.bmp	0	1	+	0	3	B3r.bmp	500	1	blank2r.bmp	800	1	BMVZ	800	1	blank2r.bmp	880	3	freund	880	1	!	1210	1	blank2r.bmp	1340	0	0	0
020218	13:42:10	1	18	5.0.10.0	d080_B21_B2_unplA	dB21_valA_080	8	15	300	300	0	0	6066	23	0	1	blank2r.bmp	0	1	+	0	7	C3r.bmp	500	1	blank2r.bmp	800	1	GKQX	800	1	blank2r.bmp	880	2	neidisch	880	1	!	1210	1	blank2r.bmp	1340	0	0	0
020218	13:42:10	1	18	5.0.10.0	d080_B21_B2_pleasA	dB21_valA_080	8	16	300	300	0	0	5417	23	0	1	blank2r.bmp	0	1	+	0	8	C4r.bmp	500	1	blank2r.bmp	800	1	GKQX	800	1	blank2r.bmp	880	1	toll	880	1	!	1210	1	blank2r.bmp	1340	0	0	0
020218	13:42:10	1	18	5.0.10.0	d080_B21_B1_unplA	dB21_valA_080	8	17	300	300	0	0	120	23	1	1	blank2r.bmp	0	1	+	0	7	C3r.bmp	500	1	blank2r.bmp	800	1	BMVZ	800	1	blank2r.bmp	880	1	unfair	880	1	!	1210	1	blank2r.bmp	1340	0	0	0
020218	13:42:10	1	18	5.0.10.0	d080_B21_B1_pleasA	dB21_valA_080	8	18	300	300	0	0	129	23	1	1	blank2r.bmp	0	1	+	0	2	B2r.bmp	500	1	blank2r.bmp	800	1	BMVZ	800	1	blank2r.bmp	880	6	froh	880	1	!	1210	1	blank2r.bmp	1340	0	0	0
020218	13:42:10	1	18	5.0.10.0	d080_B21_B2_unplA	dB21_valA_080	8	19	300	300	0	0	3087	23	0	1	blank2r.bmp	0	1	+	0	6	C2r.bmp	500	1	blank2r.bmp	800	1	GKQX	800	1	blank2r.bmp	880	5	schlecht	880	1	!	1210	1	blank2r.bmp	1340	0	0	0
020218	13:42:10	1	18	5.0.10.0	d080_B21_B1_pleasA	dB21_valA_080	8	20	300	300	0	0	4871	23	1	1	blank2r.bmp	0	1	+	0	5	C1r.bmp	500	1	blank2r.bmp	800	1	BMVZ	800	1	blank2r.bmp	880	4	heiter	880	1	!	1210	1	blank2r.bmp	1340	0	0	0
020218	13:42:10	1	18	5.0.10.0	d080_B21_B1_pleasA	dB21_valA_080	8	21	300	300	0	0	4561	23	1	1	blank2r.bmp	0	1	+	0	3	B3r.bmp	500	1	blank2r.bmp	800	1	BMVZ	800	1	blank2r.bmp	880	5	friedlich	880	1	!	1210	1	blank2r.bmp	1340	0	0	0
020218	13:42:10	1	18	5.0.10.0	d080_B21_B2_unplA	dB21_valA_080	8	22	300	300	0	0	2	18	1	1	blank2r.bmp	0	1	+	0	1	B1r.bmp	500	1	blank2r.bmp	800	1	GKQX	800	1	blank2r.bmp	880	3	töten	880	1	!	1210	1	blank2r.bmp	1340	0	0	0
020218	13:42:10	1	18	5.0.10.0	d080_B21_B1_pleasA	dB21_valA_080	8	23	300	300	0	0	35	23	1	1	blank2r.bmp	0	1	+	0	4	B4r.bmp	500	1	blank2r.bmp	800	1	BMVZ	800	1	blank2r.bmp	880	3	freund	880	1	!	1210	1	blank2r.bmp	1340	0	0	0
020218	13:42:10	1	18	5.0.10.0	d080_B21_B1_pleasA	dB21_valA_080	8	24	300	300	0	0	3996	23	1	1	blank2r.bmp	0	1	+	0	8	C4r.bmp	500	1	blank2r.bmp	800	1	BMVZ	800	1	blank2r.bmp	880	1	toll	880	1	!	1210	1	blank2r.bmp	1340	0	0	0
020218	13:42:10	1	18	5.0.10.0	d080_B21_B1_unplA	dB21_valA_080	8	25	300	300	0	0	4576	23	1	1	blank2r.bmp	0	1	+	0	6	C2r.bmp	500	1	blank2r.bmp	800	1	BMVZ	800	1	blank2r.bmp	880	4	elend	880	1	!	1210	1	blank2r.bmp	1340	0	0	0
020218	13:42:10	1	18	5.0.10.0	d080_B21_B1_pleasA	dB21_valA_080	8	26	300	300	0	0	3164	23	1	1	blank2r.bmp	0	1	+	0	1	B1r.bmp	500	1	blank2r.bmp	800	1	BMVZ	800	1	blank2r.bmp	880	4	heiter	880	1	!	1210	1	blank2r.bmp	1340	0	0	0
020218	13:42:10	1	18	5.0.10.0	d080_B21_B1_unplA	dB21_valA_080	8	27	300	300	0	0	3251	23	1	1	blank2r.bmp	0	1	+	0	4	B4r.bmp	500	1	blank2r.bmp	800	1	BMVZ	800	1	blank2r.bmp	880	6	leiden	880	1	!	1210	1	blank2r.bmp	1340	0	0	0
020218	13:42:10	1	18	5.0.10.0	d080_B21_B2_pleasA	dB21_valA_080	8	28	300	300	0	0	39	18	1	1	blank2r.bmp	0	1	+	0	8	C4r.bmp	500	1	blank2r.bmp	800	1	GKQX	800	1	blank2r.bmp	880	5	friedlich	880	1	!	1210	1	blank2r.bmp	1340	0	0	0
020218	13:42:10	1	18	5.0.10.0	d080_B21_B1_pleasA	dB21_valA_080	8	29	300	300	0	0	31	23	1	1	blank2r.bmp	0	1	+	0	5	C1r.bmp	500	1	blank2r.bmp	800	1	BMVZ	800	1	blank2r.bmp	880	2	schön	880	1	!	1210	1	blank2r.bmp	1340	0	0	0
020218	13:42:10	1	18	5.0.10.0	d080_B21_B2_unplA	dB21_valA_080	8	30	300	300	0	0	346	23	0	1	blank2r.bmp	0	1	+	0	7	C3r.bmp	500	1	blank2r.bmp	800	1	GKQX	800	1	blank2r.bmp	880	5	schlecht	880	1	!	1210	1	blank2r.bmp	1340	0	0	0
020218	13:42:10	1	18	5.0.10.0	d080_B21_B2_unplA	dB21_valA_080	8	31	300	300	0	0	2215	23	0	1	blank2r.bmp	0	1	+	0	2	B2r.bmp	500	1	blank2r.bmp	800	1	GKQX	800	1	blank2r.bmp	880	1	unfair	880	1	!	1210	1	blank2r.bmp	1340	0	0	0
020218	13:42:10	1	18	5.0.10.0	d080_B21_B1_pleasA	dB21_valA_080	8	32	300	300	0	0	3228	23	1	1	blank2r.bmp	0	1	+	0	3	B3r.bmp	500	1	blank2r.bmp	800	1	BMVZ	800	1	blank2r.bmp	880	6	froh	880	1	!	1210	1	blank2r.bmp	1340	0	0	0
020218	13:42:10	1	18	5.0.10.0	d080_B21_B1_unplA	dB21_valA_080	8	33	300	300	0	0	283	18	0	1	blank2r.bmp	0	1	+	0	1	B1r.bmp	500	1	blank2r.bmp	800	1	BMVZ	800	1	blank2r.bmp	880	3	töten	880	1	!	1210	1	blank2r.bmp	1340	0	0	0
020218	13:42:10	1	18	5.0.10.0	d080_B21_B1_unplA	dB21_valA_080	8	34	300	300	0	0	1963	23	1	1	blank2r.bmp	0	1	+	0	6	C2r.bmp	500	1	blank2r.bmp	800	1	BMVZ	800	1	blank2r.bmp	880	2	neidisch	880	1	!	1210	1	blank2r.bmp	1340	0	0	0
020218	13:42:10	1	18	5.0.10.0	d080_B21_B1_unplA	dB21_valA_080	8	35	300	300	0	0	2946	23	1	1	blank2r.bmp	0	1	+	0	7	C3r.bmp	500	1	blank2r.bmp	800	1	BMVZ	800	1	blank2r.bmp	880	6	leiden	880	1	!	1210	1	blank2r.bmp	1340	0	0	0
020218	13:42:10	1	18	5.0.10.0	d080_B21_B2_unplA	dB21_valA_080	8	36	300	300	0	0	175	18	1	1	blank2r.bmp	0	1	+	0	5	C1r.bmp	500	1	blank2r.bmp	800	1	GKQX	800	1	blank2r.bmp	880	4	elend	880	1	!	1210	1	blank2r.bmp	1340	0	0	0
020218	13:42:10	1	18	5.0.10.0	d080_B21_B2_unplA	dB21_valA_080	8	37	300	300	0	0	110	18	1	1	blank2r.bmp	0	1	+	0	8	C4r.bmp	500	1	blank2r.bmp	800	1	GKQX	800	1	blank2r.bmp	880	5	schlecht	880	1	!	1210	1	blank2r.bmp	1340	0	0	0
020218	13:42:10	1	18	5.0.10.0	d080_B21_B1_unplA	dB21_valA_080	8	38	300	300	0	0	3238	18	0	1	blank2r.bmp	0	1	+	0	3	B3r.bmp	500	1	blank2r.bmp	800	1	BMVZ	800	1	blank2r.bmp	880	2	neidisch	880	1	!	1210	1	blank2r.bmp	1340	0	0	0
020218	13:42:10	1	18	5.0.10.0	d080_B21_B1_unplA	dB21_valA_080	8	39	300	300	0	0	3479	23	1	1	blank2r.bmp	0	1	+	0	4	B4r.bmp	500	1	blank2r.bmp	800	1	BMVZ	800	1	blank2r.bmp	880	3	töten	880	1	!	1210	1	blank2r.bmp	1340	0	0	0
020218	13:42:10	1	18	5.0.10.0	d080_B21_B2_unplA	dB21_valA_080	8	40	300	300	0	0	77	18	1	1	blank2r.bmp	0	1	+	0	2	B2r.bmp	500	1	blank2r.bmp	800	1	GKQX	800	1	blank2r.bmp	880	6	leiden	880	1	!	1210	1	blank2r.bmp	1340	0	0	0
020218	13:42:10	1	18	5.0.10.0	d080_B21_B1_unplA	dB21_valA_080	8	41	300	300	0	0	258	23	1	1	blank2r.bmp	0	1	+	0	7	C3r.bmp	500	1	blank2r.bmp	800	1	BMVZ	800	1	blank2r.bmp	880	4	elend	880	1	!	1210	1	blank2r.bmp	1340	0	0	0
020218	13:42:10	1	18	5.0.10.0	d080_B21_B2_unplA	dB21_valA_080	8	42	300	300	0	0	2256	18	1	1	blank2r.bmp	0	1	+	0	2	B2r.bmp	500	1	blank2r.bmp	800	1	GKQX	800	1	blank2r.bmp	880	1	unfair	880	1	!	1210	1	blank2r.bmp	1340	0	0	0
020218	13:42:10	1	18	5.0.10.0	d080_B21_B2_pleasA	dB21_valA_080	8	43	300	300	0	0	3678	18	1	1	blank2r.bmp	0	1	+	0	8	C4r.bmp	500	1	blank2r.bmp	800	1	GKQX	800	1	blank2r.bmp	880	5	friedlich	880	1	!	1210	1	blank2r.bmp	1340	0	0	0
020218	13:42:10	1	18	5.0.10.0	d080_B21_B2_pleasA	dB21_valA_080	8	44	300	300	0	0	7212	23	0	1	blank2r.bmp	0	1	+	0	6	C2r.bmp	500	1	blank2r.bmp	800	1	GKQX	800	1	blank2r.bmp	880	3	freund	880	1	!	1210	1	blank2r.bmp	1340	0	0	0
020218	13:42:10	1	18	5.0.10.0	d080_B21_B2_pleasA	dB21_valA_080	8	45	300	300	0	0	1073	18	1	1	blank2r.bmp	0	1	+	0	5	C1r.bmp	500	1	blank2r.bmp	800	1	GKQX	800	1	blank2r.bmp	880	6	froh	880	1	!	1210	1	blank2r.bmp	1340	0	0	0
020218	13:42:10	1	18	5.0.10.0	d080_B21_B2_pleasA	dB21_valA_080	8	46	300	300	0	0	5142	18	1	1	blank2r.bmp	0	1	+	0	3	B3r.bmp	500	1	blank2r.bmp	800	1	GKQX	800	1	blank2r.bmp	880	2	schön	880	1	!	1210	1	blank2r.bmp	1340	0	0	0
020218	13:42:10	1	18	5.0.10.0	d080_B21_B2_pleasA	dB21_valA_080	8	47	300	300	0	0	1805	23	0	1	blank2r.bmp	0	1	+	0	4	B4r.bmp	500	1	blank2r.bmp	800	1	GKQX	800	1	blank2r.bmp	880	1	toll	880	1	!	1210	1	blank2r.bmp	1340	0	0	0
020218	13:42:10	1	18	5.0.10.0	d080_B21_B2_pleasA	dB21_valA_080	8	48	300	300	0	0	1680	18	1	1	blank2r.bmp	0	1	+	0	1	B1r.bmp	500	1	blank2r.bmp	800	1	GKQX	800	1	blank2r.bmp	880	4	heiter	880	1	!	1210	1	blank2r.bmp	1340	0	0	0
020218	13:42:10	1	18	5.0.10.0	d080_B21_B2_unplA	dB21_valA_080	9	1	300	300	0	0	198	18	1	1	blank2r.bmp	0	1	+	0	7	C3r.bmp	500	1	blank2r.bmp	800	1	GKQX	800	1	blank2r.bmp	880	4	elend	880	1	!	1210	1	blank2r.bmp	1340	0	0	0
020218	13:42:10	1	18	5.0.10.0	d080_B21_B1_unplA	dB21_valA_080	9	2	300	300	0	0	1968	23	1	1	blank2r.bmp	0	1	+	0	6	C2r.bmp	500	1	blank2r.bmp	800	1	BMVZ	800	1	blank2r.bmp	880	2	neidisch	880	1	!	1210	1	blank2r.bmp	1340	0	0	0
020218	13:42:10	1	18	5.0.10.0	d080_B21_B2_pleasA	dB21_valA_080	9	3	300	300	0	0	429	18	1	1	blank2r.bmp	0	1	+	0	5	C1r.bmp	500	1	blank2r.bmp	800	1	GKQX	800	1	blank2r.bmp	880	6	froh	880	1	!	1210	1	blank2r.bmp	1340	0	0	0
020218	13:42:10	1	18	5.0.10.0	d080_B21_B1_unplA	dB21_valA_080	9	4	300	300	0	0	108	23	1	1	blank2r.bmp	0	1	+	0	3	B3r.bmp	500	1	blank2r.bmp	800	1	BMVZ	800	1	blank2r.bmp	880	1	unfair	880	1	!	1210	1	blank2r.bmp	1340	0	0	0
020218	13:42:10	1	18	5.0.10.0	d080_B21_B2_unplA	dB21_valA_080	9	5	300	300	0	0	13	18	1	1	blank2r.bmp	0	1	+	0	8	C4r.bmp	500	1	blank2r.bmp	800	1	GKQX	800	1	blank2r.bmp	880	3	töten	880	1	!	1210	1	blank2r.bmp	1340	0	0	0
020218	13:42:10	1	18	5.0.10.0	d080_B21_B2_pleasA	dB21_valA_080	9	6	300	300	0	0	370	23	0	1	blank2r.bmp	0	1	+	0	1	B1r.bmp	500	1	blank2r.bmp	800	1	GKQX	800	1	blank2r.bmp	880	1	toll	880	1	!	1210	1	blank2r.bmp	1340	0	0	0
020218	13:42:10	1	18	5.0.10.0	d080_B21_B1_unplA	dB21_valA_080	9	7	300	300	0	0	4382	23	1	1	blank2r.bmp	0	1	+	0	2	B2r.bmp	500	1	blank2r.bmp	800	1	BMVZ	800	1	blank2r.bmp	880	5	schlecht	880	1	!	1210	1	blank2r.bmp	1340	0	0	0
020218	13:42:10	1	18	5.0.10.0	d080_B21_B1_unplA	dB21_valA_080	9	8	300	300	0	0	3092	23	1	1	blank2r.bmp	0	1	+	0	4	B4r.bmp	500	1	blank2r.bmp	800	1	BMVZ	800	1	blank2r.bmp	880	6	leiden	880	1	!	1210	1	blank2r.bmp	1340	0	0	0
020218	13:42:10	1	18	5.0.10.0	d080_B21_B1_unplA	dB21_valA_080	9	9	300	300	0	0	2384	18	0	1	blank2r.bmp	0	1	+	0	2	B2r.bmp	500	1	blank2r.bmp	800	1	BMVZ	800	1	blank2r.bmp	880	5	schlecht	880	1	!	1210	1	blank2r.bmp	1340	0	0	0
020218	13:42:10	1	18	5.0.10.0	d080_B21_B1_pleasA	dB21_valA_080	9	10	300	300	0	0	101	18	0	1	blank2r.bmp	0	1	+	0	5	C1r.bmp	500	1	blank2r.bmp	800	1	BMVZ	800	1	blank2r.bmp	880	3	freund	880	1	!	1210	1	blank2r.bmp	1340	0	0	0
020218	13:42:10	1	18	5.0.10.0	d080_B21_B1_unplA	dB21_valA_080	9	11	300	300	0	0	45	18	0	1	blank2r.bmp	0	1	+	0	4	B4r.bmp	500	1	blank2r.bmp	800	1	BMVZ	800	1	blank2r.bmp	880	6	leiden	880	1	!	1210	1	blank2r.bmp	1340	0	0	0
020218	13:42:10	1	18	5.0.10.0	d080_B21_B1_unplA	dB21_valA_080	9	12	300	300	0	0	1926	18	0	1	blank2r.bmp	0	1	+	0	8	C4r.bmp	500	1	blank2r.bmp	800	1	BMVZ	800	1	blank2r.bmp	880	1	unfair	880	1	!	1210	1	blank2r.bmp	1340	0	0	0
020218	13:42:10	1	18	5.0.10.0	d080_B21_B1_unplA	dB21_valA_080	9	13	300	300	0	0	264	23	1	1	blank2r.bmp	0	1	+	0	7	C3r.bmp	500	1	blank2r.bmp	800	1	BMVZ	800	1	blank2r.bmp	880	3	töten	880	1	!	1210	1	blank2r.bmp	1340	0	0	0
020218	13:42:10	1	18	5.0.10.0	d080_B21_B1_pleasA	dB21_valA_080	9	14	300	300	0	0	1887	18	0	1	blank2r.bmp	0	1	+	0	1	B1r.bmp	500	1	blank2r.bmp	800	1	BMVZ	800	1	blank2r.bmp	880	5	friedlich	880	1	!	1210	1	blank2r.bmp	1340	0	0	0
020218	13:42:10	1	18	5.0.10.0	d080_B21_B1_pleasA	dB21_valA_080	9	15	300	300	0	0	1616	18	0	1	blank2r.bmp	0	1	+	0	6	C2r.bmp	500	1	blank2r.bmp	800	1	BMVZ	800	1	blank2r.bmp	880	4	heiter	880	1	!	1210	1	blank2r.bmp	1340	0	0	0
020218	13:42:10	1	18	5.0.10.0	d080_B21_B2_unplA	dB21_valA_080	9	16	300	300	0	0	195	23	0	1	blank2r.bmp	0	1	+	0	3	B3r.bmp	500	1	blank2r.bmp	800	1	GKQX	800	1	blank2r.bmp	880	2	neidisch	880	1	!	1210	1	blank2r.bmp	1340	0	0	0
020218	13:42:10	1	18	5.0.10.0	d080_B21_B2_unplA	dB21_valA_080	9	17	300	300	0	0	52	23	0	1	blank2r.bmp	0	1	+	0	7	C3r.bmp	500	1	blank2r.bmp	800	1	GKQX	800	1	blank2r.bmp	880	4	elend	880	1	!	1210	1	blank2r.bmp	1340	0	0	0
020218	13:42:10	1	18	5.0.10.0	d080_B21_B1_unplA	dB21_valA_080	9	18	300	300	0	0	201	18	0	1	blank2r.bmp	0	1	+	0	8	C4r.bmp	500	1	blank2r.bmp	800	1	BMVZ	800	1	blank2r.bmp	880	2	neidisch	880	1	!	1210	1	blank2r.bmp	1340	0	0	0
020218	13:42:10	1	18	5.0.10.0	d080_B21_B2_pleasA	dB21_valA_080	9	19	300	300	0	0	131	23	0	1	blank2r.bmp	0	1	+	0	2	B2r.bmp	500	1	blank2r.bmp	800	1	GKQX	800	1	blank2r.bmp	880	2	schön	880	1	!	1210	1	blank2r.bmp	1340	0	0	0
020218	13:42:10	1	18	5.0.10.0	d080_B21_B2_pleasA	dB21_valA_080	9	20	300	300	0	0	191	18	1	1	blank2r.bmp	0	1	+	0	3	B3r.bmp	500	1	blank2r.bmp	800	1	GKQX	800	1	blank2r.bmp	880	6	froh	880	1	!	1210	1	blank2r.bmp	1340	0	0	0
020218	13:42:10	1	18	5.0.10.0	d080_B21_B2_unplA	dB21_valA_080	9	21	300	300	0	0	2675	18	1	1	blank2r.bmp	0	1	+	0	4	B4r.bmp	500	1	blank2r.bmp	800	1	GKQX	800	1	blank2r.bmp	880	5	schlecht	880	1	!	1210	1	blank2r.bmp	1340	0	0	0
020218	13:42:10	1	18	5.0.10.0	d080_B21_B2_pleasA	dB21_valA_080	9	22	300	300	0	0	2255	18	1	1	blank2r.bmp	0	1	+	0	1	B1r.bmp	500	1	blank2r.bmp	800	1	GKQX	800	1	blank2r.bmp	880	3	freund	880	1	!	1210	1	blank2r.bmp	1340	0	0	0
020218	13:42:10	1	18	5.0.10.0	d080_B21_B1_unplA	dB21_valA_080	9	23	300	300	0	0	5509	18	0	1	blank2r.bmp	0	1	+	0	5	C1r.bmp	500	1	blank2r.bmp	800	1	BMVZ	800	1	blank2r.bmp	880	1	unfair	880	1	!	1210	1	blank2r.bmp	1340	0	0	0
020218	13:42:10	1	18	5.0.10.0	d080_B21_B2_pleasA	dB21_valA_080	9	24	300	300	0	0	1374	23	0	1	blank2r.bmp	0	1	+	0	6	C2r.bmp	500	1	blank2r.bmp	800	1	GKQX	800	1	blank2r.bmp	880	1	toll	880	1	!	1210	1	blank2r.bmp	1340	0	0	0
020218	13:42:10	1	18	5.0.10.0	d080_B21_B2_pleasA	dB21_valA_080	9	25	300	300	0	0	207	18	1	1	blank2r.bmp	0	1	+	0	8	C4r.bmp	500	1	blank2r.bmp	800	1	GKQX	800	1	blank2r.bmp	880	4	heiter	880	1	!	1210	1	blank2r.bmp	1340	0	0	0
020218	13:42:10	1	18	5.0.10.0	d080_B21_B2_pleasA	dB21_valA_080	9	26	300	300	0	0	3744	18	1	1	blank2r.bmp	0	1	+	0	3	B3r.bmp	500	1	blank2r.bmp	800	1	GKQX	800	1	blank2r.bmp	880	2	schön	880	1	!	1210	1	blank2r.bmp	1340	0	0	0
020218	13:42:10	1	18	5.0.10.0	d080_B21_B1_pleasA	dB21_valA_080	9	27	300	300	0	0	544	23	1	1	blank2r.bmp	0	1	+	0	7	C3r.bmp	500	1	blank2r.bmp	800	1	BMVZ	800	1	blank2r.bmp	880	5	friedlich	880	1	!	1210	1	blank2r.bmp	1340	0	0	0
020218	13:42:10	1	18	5.0.10.0	d080_B21_B1_pleasA	dB21_valA_080	9	28	300	300	0	0	269	18	0	1	blank2r.bmp	0	1	+	0	4	B4r.bmp	500	1	blank2r.bmp	800	1	BMVZ	800	1	blank2r.bmp	880	6	froh	880	1	!	1210	1	blank2r.bmp	1340	0	0	0
020218	13:42:10	1	18	5.0.10.0	d080_B21_B2_pleasA	dB21_valA_080	9	29	300	300	0	0	122	23	0	1	blank2r.bmp	0	1	+	0	2	B2r.bmp	500	1	blank2r.bmp	800	1	GKQX	800	1	blank2r.bmp	880	5	friedlich	880	1	!	1210	1	blank2r.bmp	1340	0	0	0
020218	13:42:10	1	18	5.0.10.0	d080_B21_B1_unplA	dB21_valA_080	9	30	300	300	0	0	2515	23	1	1	blank2r.bmp	0	1	+	0	6	C2r.bmp	500	1	blank2r.bmp	800	1	BMVZ	800	1	blank2r.bmp	880	6	leiden	880	1	!	1210	1	blank2r.bmp	1340	0	0	0
020218	13:42:10	1	18	5.0.10.0	d080_B21_B2_pleasA	dB21_valA_080	9	31	300	300	0	0	2514	23	0	1	blank2r.bmp	0	1	+	0	1	B1r.bmp	500	1	blank2r.bmp	800	1	GKQX	800	1	blank2r.bmp	880	4	heiter	880	1	!	1210	1	blank2r.bmp	1340	0	0	0
020218	13:42:10	1	18	5.0.10.0	d080_B21_B2_unplA	dB21_valA_080	9	32	300	300	0	0	1776	23	0	1	blank2r.bmp	0	1	+	0	5	C1r.bmp	500	1	blank2r.bmp	800	1	GKQX	800	1	blank2r.bmp	880	4	elend	880	1	!	1210	1	blank2r.bmp	1340	0	0	0
020218	13:42:10	1	18	5.0.10.0	d080_B21_B2_pleasA	dB21_valA_080	9	33	300	300	0	0	1503	23	0	1	blank2r.bmp	0	1	+	0	5	C1r.bmp	500	1	blank2r.bmp	800	1	GKQX	800	1	blank2r.bmp	880	3	freund	880	1	!	1210	1	blank2r.bmp	1340	0	0	0
020218	13:42:10	1	18	5.0.10.0	d080_B21_B1_pleasA	dB21_valA_080	9	34	300	300	0	0	564	18	0	1	blank2r.bmp	0	1	+	0	2	B2r.bmp	500	1	blank2r.bmp	800	1	BMVZ	800	1	blank2r.bmp	880	1	toll	880	1	!	1210	1	blank2r.bmp	1340	0	0	0
020218	13:42:10	1	18	5.0.10.0	d080_B21_B1_pleasA	dB21_valA_080	9	35	300	300	0	0	180	23	1	1	blank2r.bmp	0	1	+	0	6	C2r.bmp	500	1	blank2r.bmp	800	1	BMVZ	800	1	blank2r.bmp	880	2	schön	880	1	!	1210	1	blank2r.bmp	1340	0	0	0
020218	13:42:10	1	18	5.0.10.0	d080_B21_B1_pleasA	dB21_valA_080	9	36	300	300	0	0	200	18	0	1	blank2r.bmp	0	1	+	0	1	B1r.bmp	500	1	blank2r.bmp	800	1	BMVZ	800	1	blank2r.bmp	880	3	freund	880	1	!	1210	1	blank2r.bmp	1340	0	0	0
020218	13:42:10	1	18	5.0.10.0	d080_B21_B1_pleasA	dB21_valA_080	9	37	300	300	0	0	9	23	1	1	blank2r.bmp	0	1	+	0	7	C3r.bmp	500	1	blank2r.bmp	800	1	BMVZ	800	1	blank2r.bmp	880	6	froh	880	1	!	1210	1	blank2r.bmp	1340	0	0	0
020218	13:42:10	1	18	5.0.10.0	d080_B21_B1_pleasA	dB21_valA_080	9	38	300	300	0	0	19	18	0	1	blank2r.bmp	0	1	+	0	3	B3r.bmp	500	1	blank2r.bmp	800	1	BMVZ	800	1	blank2r.bmp	880	4	heiter	880	1	!	1210	1	blank2r.bmp	1340	0	0	0
020218	13:42:10	1	18	5.0.10.0	d080_B21_B1_pleasA	dB21_valA_080	9	39	300	300	0	0	76	23	1	1	blank2r.bmp	0	1	+	0	4	B4r.bmp	500	1	blank2r.bmp	800	1	BMVZ	800	1	blank2r.bmp	880	2	schön	880	1	!	1210	1	blank2r.bmp	1340	0	0	0
020218	13:42:10	1	18	5.0.10.0	d080_B21_B2_unplA	dB21_valA_080	9	40	300	300	0	0	1391	23	0	1	blank2r.bmp	0	1	+	0	8	C4r.bmp	500	1	blank2r.bmp	800	1	GKQX	800	1	blank2r.bmp	880	3	töten	880	1	!	1210	1	blank2r.bmp	1340	0	0	0
020218	13:42:10	1	18	5.0.10.0	d080_B21_B1_pleasA	dB21_valA_080	9	41	300	300	0	0	1009	23	1	1	blank2r.bmp	0	1	+	0	2	B2r.bmp	500	1	blank2r.bmp	800	1	BMVZ	800	1	blank2r.bmp	880	1	toll	880	1	!	1210	1	blank2r.bmp	1340	0	0	0
020218	13:42:10	1	18	5.0.10.0	d080_B21_B2_unplA	dB21_valA_080	9	42	300	300	0	0	807	23	0	1	blank2r.bmp	0	1	+	0	7	C3r.bmp	500	1	blank2r.bmp	800	1	GKQX	800	1	blank2r.bmp	880	3	töten	880	1	!	1210	1	blank2r.bmp	1340	0	0	0
020218	13:42:10	1	18	5.0.10.0	d080_B21_B1_unplA	dB21_valA_080	9	43	300	300	0	0	583	23	1	1	blank2r.bmp	0	1	+	0	5	C1r.bmp	500	1	blank2r.bmp	800	1	BMVZ	800	1	blank2r.bmp	880	1	unfair	880	1	!	1210	1	blank2r.bmp	1340	0	0	0
020218	13:42:10	1	18	5.0.10.0	d080_B21_B2_unplA	dB21_valA_080	9	44	300	300	0	0	272	23	0	1	blank2r.bmp	0	1	+	0	1	B1r.bmp	500	1	blank2r.bmp	800	1	GKQX	800	1	blank2r.bmp	880	4	elend	880	1	!	1210	1	blank2r.bmp	1340	0	0	0
020218	13:42:10	1	18	5.0.10.0	d080_B21_B2_pleasA	dB21_valA_080	9	45	300	300	0	0	610	18	1	1	blank2r.bmp	0	1	+	0	3	B3r.bmp	500	1	blank2r.bmp	800	1	GKQX	800	1	blank2r.bmp	880	5	friedlich	880	1	!	1210	1	blank2r.bmp	1340	0	0	0
020218	13:42:10	1	18	5.0.10.0	d080_B21_B2_unplA	dB21_valA_080	9	46	300	300	0	0	268	18	1	1	blank2r.bmp	0	1	+	0	8	C4r.bmp	500	1	blank2r.bmp	800	1	GKQX	800	1	blank2r.bmp	880	5	schlecht	880	1	!	1210	1	blank2r.bmp	1340	0	0	0
020218	13:42:10	1	18	5.0.10.0	d080_B21_B2_unplA	dB21_valA_080	9	47	300	300	0	0	19	18	1	1	blank2r.bmp	0	1	+	0	4	B4r.bmp	500	1	blank2r.bmp	800	1	GKQX	800	1	blank2r.bmp	880	2	neidisch	880	1	!	1210	1	blank2r.bmp	1340	0	0	0
020218	13:42:10	1	18	5.0.10.0	d080_B21_B2_unplA	dB21_valA_080	9	48	300	300	0	0	376	18	1	1	blank2r.bmp	0	1	+	0	6	C2r.bmp	500	1	blank2r.bmp	800	1	GKQX	800	1	blank2r.bmp	880	6	leiden	880	1	!	1210	1	blank2r.bmp	1340	0	0	0
020218	13:42:10	1	18	5.0.10.0	endtrial	endblock	10	1	300	300	0	0	2227475	Ctrl+'Q'	1	0	0	0	0	0	0	0	0	0	0	0	0	0	0	0	0	0	0	0	0	0	0	0	0	0	0	0	0	0	0
