date	time	group	subject	build	trialcode	blockcode	blocknum	trialnum	pretrialpause	posttrialpause	trialduration	trialtimeout	latency	response	correct	stimulusnumber1	stimulusitem1	stimulusonset1	stimulusnumber2	stimulusitem2	stimulusonset2	stimulusnumber3	stimulusitem3	stimulusonset3	stimulusnumber4	stimulusitem4	stimulusonset4	stimulusnumber5	stimulusitem5	stimulusonset5	stimulusnumber6	stimulusitem6	stimulusonset6	stimulusnumber7	stimulusitem7	stimulusonset7	stimulusnumber8	stimulusitem8	stimulusonset8	stimulusnumber9	stimulusitem9	stimulusonset9	stimulusnumber10	stimulusitem10	stimulusonset10
013018	15:52:39	1	4	5.0.10.0	dL_B21_B1_pleasA	dB21_valA_pract1	1	1	300	300	0	0	794	23	1	1	blank2r.bmp	0	1	+	0	5	C1r.bmp	500	1	blank2r.bmp	700	1	BMVZ	700	8	C4r.bmp	830	1	blank2r.bmp	870	4	heiter	870	1	!	1200	1	blank2r.bmp	1330
013018	15:52:39	1	4	5.0.10.0	dL_B21_B1_unplA	dB21_valA_pract1	1	2	300	300	0	0	527	18	0	1	blank2r.bmp	0	1	+	0	6	C2r.bmp	500	1	blank2r.bmp	700	1	BMVZ	700	7	C3r.bmp	830	1	blank2r.bmp	870	1	unfair	870	1	!	1200	1	blank2r.bmp	1330
013018	15:52:39	1	4	5.0.10.0	dL_B21_B2_pleasA	dB21_valA_pract1	1	3	300	300	0	0	429	23	0	1	blank2r.bmp	0	1	+	0	2	B2r.bmp	500	1	blank2r.bmp	700	1	GKQX	700	6	C2r.bmp	830	1	blank2r.bmp	870	1	toll	870	1	!	1200	1	blank2r.bmp	1330
013018	15:52:39	1	4	5.0.10.0	dL_B21_B1_pleasA	dB21_valA_pract1	1	4	300	300	0	0	37	23	1	1	blank2r.bmp	0	1	+	0	7	C3r.bmp	500	1	blank2r.bmp	700	1	BMVZ	700	1	B1r.bmp	830	1	blank2r.bmp	870	2	schön	870	1	!	1200	1	blank2r.bmp	1330
013018	15:52:39	1	4	5.0.10.0	dL_B21_B2_unplA	dB21_valA_pract1	1	5	300	300	0	0	69	18	1	1	blank2r.bmp	0	1	+	0	4	B4r.bmp	500	1	blank2r.bmp	700	1	GKQX	700	3	B3r.bmp	830	1	blank2r.bmp	870	4	elend	870	1	!	1200	1	blank2r.bmp	1330
013018	15:52:39	1	4	5.0.10.0	dL_B21_B2_unplA	dB21_valA_pract1	1	6	300	300	0	0	18820	18	1	1	blank2r.bmp	0	1	+	0	8	C4r.bmp	500	1	blank2r.bmp	700	1	GKQX	700	2	B2r.bmp	830	1	blank2r.bmp	870	5	schlecht	870	1	!	1200	1	blank2r.bmp	1330
013018	15:52:39	1	4	5.0.10.0	dL_B21_B2_pleasA	dB21_valA_pract1	1	7	300	300	0	0	595	18	1	1	blank2r.bmp	0	1	+	0	3	B3r.bmp	500	1	blank2r.bmp	700	1	GKQX	700	4	B4r.bmp	830	1	blank2r.bmp	870	6	froh	870	1	!	1200	1	blank2r.bmp	1330
013018	15:52:39	1	4	5.0.10.0	dL_B21_B1_unplA	dB21_valA_pract1	1	8	300	300	0	0	2	23	1	1	blank2r.bmp	0	1	+	0	1	B1r.bmp	500	1	blank2r.bmp	700	1	BMVZ	700	5	C1r.bmp	830	1	blank2r.bmp	870	6	leiden	870	1	!	1200	1	blank2r.bmp	1330
013018	15:52:39	1	4	5.0.10.0	dL_B21_B1_unplA	dB21_valA_pract1	1	9	300	300	0	0	67	23	1	1	blank2r.bmp	0	1	+	0	3	B3r.bmp	500	1	blank2r.bmp	700	1	BMVZ	700	5	C1r.bmp	830	1	blank2r.bmp	870	3	töten	870	1	!	1200	1	blank2r.bmp	1330
013018	15:52:39	1	4	5.0.10.0	dL_B21_B2_pleasA	dB21_valA_pract1	1	10	300	300	0	0	239	18	1	1	blank2r.bmp	0	1	+	0	6	C2r.bmp	500	1	blank2r.bmp	700	1	GKQX	700	8	C4r.bmp	830	1	blank2r.bmp	870	5	friedlich	870	1	!	1200	1	blank2r.bmp	1330
013018	15:52:39	1	4	5.0.10.0	dL_B21_B2_unplA	dB21_valA_pract1	1	11	300	300	0	0	276	18	1	1	blank2r.bmp	0	1	+	0	7	C3r.bmp	500	1	blank2r.bmp	700	1	GKQX	700	6	C2r.bmp	830	1	blank2r.bmp	870	2	neidisch	870	1	!	1200	1	blank2r.bmp	1330
013018	15:52:39	1	4	5.0.10.0	dL_B21_B1_pleasA	dB21_valA_pract1	1	12	300	300	0	0	29287	23	1	1	blank2r.bmp	0	1	+	0	5	C1r.bmp	500	1	blank2r.bmp	700	1	BMVZ	700	1	B1r.bmp	830	1	blank2r.bmp	870	3	freund	870	1	!	1200	1	blank2r.bmp	1330
013018	15:52:39	1	4	5.0.10.0	dM_B21_B1_pleasA	dB21_valA_pract2	2	1	300	300	0	0	424	23	1	1	blank2r.bmp	0	1	+	0	8	C4r.bmp	500	1	blank2r.bmp	730	1	BMVZ	730	2	B2r.bmp	830	1	blank2r.bmp	870	4	heiter	870	1	!	1200	1	blank2r.bmp	1330
013018	15:52:39	1	4	5.0.10.0	dM_B21_B2_pleasA	dB21_valA_pract2	2	2	300	300	0	0	52	18	1	1	blank2r.bmp	0	1	+	0	2	B2r.bmp	500	1	blank2r.bmp	730	1	GKQX	730	3	B3r.bmp	830	1	blank2r.bmp	870	6	froh	870	1	!	1200	1	blank2r.bmp	1330
013018	15:52:39	1	4	5.0.10.0	dM_B21_B2_pleasA	dB21_valA_pract2	2	3	300	300	0	0	505	18	1	1	blank2r.bmp	0	1	+	0	4	B4r.bmp	500	1	blank2r.bmp	730	1	GKQX	730	7	C3r.bmp	830	1	blank2r.bmp	870	2	schön	870	1	!	1200	1	blank2r.bmp	1330
013018	15:52:39	1	4	5.0.10.0	dM_B21_B2_unplA	dB21_valA_pract2	2	4	300	300	0	0	78	18	1	1	blank2r.bmp	0	1	+	0	1	B1r.bmp	500	1	blank2r.bmp	730	1	GKQX	730	4	B4r.bmp	830	1	blank2r.bmp	870	4	elend	870	1	!	1200	1	blank2r.bmp	1330
013018	15:52:39	1	4	5.0.10.0	dM_B21_B1_unplA	dB21_valA_pract2	2	5	300	300	0	0	324	23	1	1	blank2r.bmp	0	1	+	0	8	C4r.bmp	500	1	blank2r.bmp	730	1	BMVZ	730	7	C3r.bmp	830	1	blank2r.bmp	870	6	leiden	870	1	!	1200	1	blank2r.bmp	1330
013018	15:52:39	1	4	5.0.10.0	dM_B21_B2_pleasA	dB21_valA_pract2	2	6	300	300	0	0	41	18	1	1	blank2r.bmp	0	1	+	0	5	C1r.bmp	500	1	blank2r.bmp	730	1	GKQX	730	8	C4r.bmp	830	1	blank2r.bmp	870	1	toll	870	1	!	1200	1	blank2r.bmp	1330
013018	15:52:39	1	4	5.0.10.0	dM_B21_B1_unplA	dB21_valA_pract2	2	7	300	300	0	0	137	23	1	1	blank2r.bmp	0	1	+	0	4	B4r.bmp	500	1	blank2r.bmp	730	1	BMVZ	730	3	B3r.bmp	830	1	blank2r.bmp	870	1	unfair	870	1	!	1200	1	blank2r.bmp	1330
013018	15:52:39	1	4	5.0.10.0	dM_B21_B1_pleasA	dB21_valA_pract2	2	8	300	300	0	0	157	23	1	1	blank2r.bmp	0	1	+	0	3	B3r.bmp	500	1	blank2r.bmp	730	1	BMVZ	730	1	B1r.bmp	830	1	blank2r.bmp	870	5	friedlich	870	1	!	1200	1	blank2r.bmp	1330
013018	15:52:39	1	4	5.0.10.0	dM_B21_B2_unplA	dB21_valA_pract2	2	9	300	300	0	0	131	18	1	1	blank2r.bmp	0	1	+	0	2	B2r.bmp	500	1	blank2r.bmp	730	1	GKQX	730	4	B4r.bmp	830	1	blank2r.bmp	870	5	schlecht	870	1	!	1200	1	blank2r.bmp	1330
013018	15:52:39	1	4	5.0.10.0	dM_B21_B1_pleasA	dB21_valA_pract2	2	10	300	300	0	0	128	23	1	1	blank2r.bmp	0	1	+	0	6	C2r.bmp	500	1	blank2r.bmp	730	1	BMVZ	730	5	C1r.bmp	830	1	blank2r.bmp	870	3	freund	870	1	!	1200	1	blank2r.bmp	1330
013018	15:52:39	1	4	5.0.10.0	dM_B21_B2_unplA	dB21_valA_pract2	2	11	300	300	0	0	180	18	1	1	blank2r.bmp	0	1	+	0	1	B1r.bmp	500	1	blank2r.bmp	730	1	GKQX	730	6	C2r.bmp	830	1	blank2r.bmp	870	3	töten	870	1	!	1200	1	blank2r.bmp	1330
013018	15:52:39	1	4	5.0.10.0	dM_B21_B1_unplA	dB21_valA_pract2	2	12	300	300	0	0	80	23	1	1	blank2r.bmp	0	1	+	0	7	C3r.bmp	500	1	blank2r.bmp	730	1	BMVZ	730	2	B2r.bmp	830	1	blank2r.bmp	870	2	neidisch	870	1	!	1200	1	blank2r.bmp	1330
013018	15:52:39	1	4	5.0.10.0	d070_B21_B1_pleasA	dB21_valA_070	3	1	300	300	0	0	198	18	0	1	blank2r.bmp	0	1	+	0	3	B3r.bmp	500	1	blank2r.bmp	800	1	BMVZ	800	1	blank2r.bmp	870	2	schön	870	1	!	1200	1	blank2r.bmp	1330	0	0	0
013018	15:52:39	1	4	5.0.10.0	d070_B21_B1_pleasA	dB21_valA_070	3	2	300	300	0	0	52	23	1	1	blank2r.bmp	0	1	+	0	7	C3r.bmp	500	1	blank2r.bmp	800	1	BMVZ	800	1	blank2r.bmp	870	4	heiter	870	1	!	1200	1	blank2r.bmp	1330	0	0	0
013018	15:52:39	1	4	5.0.10.0	d070_B21_B1_unplA	dB21_valA_070	3	3	300	300	0	0	2008	23	1	1	blank2r.bmp	0	1	+	0	8	C4r.bmp	500	1	blank2r.bmp	800	1	BMVZ	800	1	blank2r.bmp	870	3	töten	870	1	!	1200	1	blank2r.bmp	1330	0	0	0
013018	15:52:39	1	4	5.0.10.0	d070_B21_B2_unplA	dB21_valA_070	3	4	300	300	0	0	511	18	1	1	blank2r.bmp	0	1	+	0	5	C1r.bmp	500	1	blank2r.bmp	800	1	GKQX	800	1	blank2r.bmp	870	6	leiden	870	1	!	1200	1	blank2r.bmp	1330	0	0	0
013018	15:52:39	1	4	5.0.10.0	d070_B21_B1_unplA	dB21_valA_070	3	5	300	300	0	0	273	23	1	1	blank2r.bmp	0	1	+	0	1	B1r.bmp	500	1	blank2r.bmp	800	1	BMVZ	800	1	blank2r.bmp	870	4	elend	870	1	!	1200	1	blank2r.bmp	1330	0	0	0
013018	15:52:39	1	4	5.0.10.0	d070_B21_B1_unplA	dB21_valA_070	3	6	300	300	0	0	182	23	1	1	blank2r.bmp	0	1	+	0	4	B4r.bmp	500	1	blank2r.bmp	800	1	BMVZ	800	1	blank2r.bmp	870	2	neidisch	870	1	!	1200	1	blank2r.bmp	1330	0	0	0
013018	15:52:39	1	4	5.0.10.0	d070_B21_B2_unplA	dB21_valA_070	3	7	300	300	0	0	520	18	1	1	blank2r.bmp	0	1	+	0	2	B2r.bmp	500	1	blank2r.bmp	800	1	GKQX	800	1	blank2r.bmp	870	5	schlecht	870	1	!	1200	1	blank2r.bmp	1330	0	0	0
013018	15:52:39	1	4	5.0.10.0	d070_B21_B2_unplA	dB21_valA_070	3	8	300	300	0	0	389	18	1	1	blank2r.bmp	0	1	+	0	6	C2r.bmp	500	1	blank2r.bmp	800	1	GKQX	800	1	blank2r.bmp	870	1	unfair	870	1	!	1200	1	blank2r.bmp	1330	0	0	0
013018	15:52:39	1	4	5.0.10.0	d070_B21_B2_unplA	dB21_valA_070	3	9	300	300	0	0	177	23	0	1	blank2r.bmp	0	1	+	0	7	C3r.bmp	500	1	blank2r.bmp	800	1	GKQX	800	1	blank2r.bmp	870	5	schlecht	870	1	!	1200	1	blank2r.bmp	1330	0	0	0
013018	15:52:39	1	4	5.0.10.0	d070_B21_B1_pleasA	dB21_valA_070	3	10	300	300	0	0	116	23	1	1	blank2r.bmp	0	1	+	0	4	B4r.bmp	500	1	blank2r.bmp	800	1	BMVZ	800	1	blank2r.bmp	870	5	friedlich	870	1	!	1200	1	blank2r.bmp	1330	0	0	0
013018	15:52:39	1	4	5.0.10.0	d070_B21_B1_unplA	dB21_valA_070	3	11	300	300	0	0	61	23	1	1	blank2r.bmp	0	1	+	0	2	B2r.bmp	500	1	blank2r.bmp	800	1	BMVZ	800	1	blank2r.bmp	870	1	unfair	870	1	!	1200	1	blank2r.bmp	1330	0	0	0
013018	15:52:39	1	4	5.0.10.0	d070_B21_B2_unplA	dB21_valA_070	3	12	300	300	0	0	229	18	1	1	blank2r.bmp	0	1	+	0	3	B3r.bmp	500	1	blank2r.bmp	800	1	GKQX	800	1	blank2r.bmp	870	2	neidisch	870	1	!	1200	1	blank2r.bmp	1330	0	0	0
013018	15:52:39	1	4	5.0.10.0	d070_B21_B2_unplA	dB21_valA_070	3	13	300	300	0	0	2808	18	1	1	blank2r.bmp	0	1	+	0	6	C2r.bmp	500	1	blank2r.bmp	800	1	GKQX	800	1	blank2r.bmp	870	4	elend	870	1	!	1200	1	blank2r.bmp	1330	0	0	0
013018	15:52:39	1	4	5.0.10.0	d070_B21_B1_pleasA	dB21_valA_070	3	14	300	300	0	0	154	18	0	1	blank2r.bmp	0	1	+	0	5	C1r.bmp	500	1	blank2r.bmp	800	1	BMVZ	800	1	blank2r.bmp	870	3	freund	870	1	!	1200	1	blank2r.bmp	1330	0	0	0
013018	15:52:39	1	4	5.0.10.0	d070_B21_B2_pleasA	dB21_valA_070	3	15	300	300	0	0	259	23	0	1	blank2r.bmp	0	1	+	0	1	B1r.bmp	500	1	blank2r.bmp	800	1	GKQX	800	1	blank2r.bmp	870	1	toll	870	1	!	1200	1	blank2r.bmp	1330	0	0	0
013018	15:52:39	1	4	5.0.10.0	d070_B21_B2_unplA	dB21_valA_070	3	16	300	300	0	0	161	18	1	1	blank2r.bmp	0	1	+	0	8	C4r.bmp	500	1	blank2r.bmp	800	1	GKQX	800	1	blank2r.bmp	870	6	leiden	870	1	!	1200	1	blank2r.bmp	1330	0	0	0
013018	15:52:39	1	4	5.0.10.0	d070_B21_B1_pleasA	dB21_valA_070	3	17	300	300	0	0	117	23	1	1	blank2r.bmp	0	1	+	0	8	C4r.bmp	500	1	blank2r.bmp	800	1	BMVZ	800	1	blank2r.bmp	870	6	froh	870	1	!	1200	1	blank2r.bmp	1330	0	0	0
013018	15:52:39	1	4	5.0.10.0	d070_B21_B1_pleasA	dB21_valA_070	3	18	300	300	0	0	524	23	1	1	blank2r.bmp	0	1	+	0	2	B2r.bmp	500	1	blank2r.bmp	800	1	BMVZ	800	1	blank2r.bmp	870	6	froh	870	1	!	1200	1	blank2r.bmp	1330	0	0	0
013018	15:52:39	1	4	5.0.10.0	d070_B21_B2_unplA	dB21_valA_070	3	19	300	300	0	0	327	18	1	1	blank2r.bmp	0	1	+	0	6	C2r.bmp	500	1	blank2r.bmp	800	1	GKQX	800	1	blank2r.bmp	870	3	töten	870	1	!	1200	1	blank2r.bmp	1330	0	0	0
013018	15:52:39	1	4	5.0.10.0	d070_B21_B1_unplA	dB21_valA_070	3	20	300	300	0	0	497	23	1	1	blank2r.bmp	0	1	+	0	3	B3r.bmp	500	1	blank2r.bmp	800	1	BMVZ	800	1	blank2r.bmp	870	4	elend	870	1	!	1200	1	blank2r.bmp	1330	0	0	0
013018	15:52:39	1	4	5.0.10.0	d070_B21_B1_unplA	dB21_valA_070	3	21	300	300	0	0	246	23	1	1	blank2r.bmp	0	1	+	0	7	C3r.bmp	500	1	blank2r.bmp	800	1	BMVZ	800	1	blank2r.bmp	870	5	schlecht	870	1	!	1200	1	blank2r.bmp	1330	0	0	0
013018	15:52:39	1	4	5.0.10.0	d070_B21_B1_unplA	dB21_valA_070	3	22	300	300	0	0	155	23	1	1	blank2r.bmp	0	1	+	0	1	B1r.bmp	500	1	blank2r.bmp	800	1	BMVZ	800	1	blank2r.bmp	870	3	töten	870	1	!	1200	1	blank2r.bmp	1330	0	0	0
013018	15:52:39	1	4	5.0.10.0	d070_B21_B2_pleasA	dB21_valA_070	3	23	300	300	0	0	114	18	1	1	blank2r.bmp	0	1	+	0	5	C1r.bmp	500	1	blank2r.bmp	800	1	GKQX	800	1	blank2r.bmp	870	1	toll	870	1	!	1200	1	blank2r.bmp	1330	0	0	0
013018	15:52:39	1	4	5.0.10.0	d070_B21_B2_unplA	dB21_valA_070	3	24	300	300	0	0	50	18	1	1	blank2r.bmp	0	1	+	0	4	B4r.bmp	500	1	blank2r.bmp	800	1	GKQX	800	1	blank2r.bmp	870	1	unfair	870	1	!	1200	1	blank2r.bmp	1330	0	0	0
013018	15:52:39	1	4	5.0.10.0	d070_B21_B1_unplA	dB21_valA_070	3	25	300	300	0	0	194	23	1	1	blank2r.bmp	0	1	+	0	4	B4r.bmp	500	1	blank2r.bmp	800	1	BMVZ	800	1	blank2r.bmp	870	6	leiden	870	1	!	1200	1	blank2r.bmp	1330	0	0	0
013018	15:52:39	1	4	5.0.10.0	d070_B21_B2_pleasA	dB21_valA_070	3	26	300	300	0	0	182	18	1	1	blank2r.bmp	0	1	+	0	2	B2r.bmp	500	1	blank2r.bmp	800	1	GKQX	800	1	blank2r.bmp	870	3	freund	870	1	!	1200	1	blank2r.bmp	1330	0	0	0
013018	15:52:39	1	4	5.0.10.0	d070_B21_B1_pleasA	dB21_valA_070	3	27	300	300	0	0	202	23	1	1	blank2r.bmp	0	1	+	0	5	C1r.bmp	500	1	blank2r.bmp	800	1	BMVZ	800	1	blank2r.bmp	870	2	schön	870	1	!	1200	1	blank2r.bmp	1330	0	0	0
013018	15:52:39	1	4	5.0.10.0	d070_B21_B1_pleasA	dB21_valA_070	3	28	300	300	0	0	50	23	1	1	blank2r.bmp	0	1	+	0	7	C3r.bmp	500	1	blank2r.bmp	800	1	BMVZ	800	1	blank2r.bmp	870	5	friedlich	870	1	!	1200	1	blank2r.bmp	1330	0	0	0
013018	15:52:39	1	4	5.0.10.0	d070_B21_B1_pleasA	dB21_valA_070	3	29	300	300	0	0	105	23	1	1	blank2r.bmp	0	1	+	0	6	C2r.bmp	500	1	blank2r.bmp	800	1	BMVZ	800	1	blank2r.bmp	870	4	heiter	870	1	!	1200	1	blank2r.bmp	1330	0	0	0
013018	15:52:39	1	4	5.0.10.0	d070_B21_B2_pleasA	dB21_valA_070	3	30	300	300	0	0	12	18	1	1	blank2r.bmp	0	1	+	0	1	B1r.bmp	500	1	blank2r.bmp	800	1	GKQX	800	1	blank2r.bmp	870	4	heiter	870	1	!	1200	1	blank2r.bmp	1330	0	0	0
013018	15:52:39	1	4	5.0.10.0	d070_B21_B1_pleasA	dB21_valA_070	3	31	300	300	0	0	254	18	0	1	blank2r.bmp	0	1	+	0	8	C4r.bmp	500	1	blank2r.bmp	800	1	BMVZ	800	1	blank2r.bmp	870	5	friedlich	870	1	!	1200	1	blank2r.bmp	1330	0	0	0
013018	15:52:39	1	4	5.0.10.0	d070_B21_B2_pleasA	dB21_valA_070	3	32	300	300	0	0	492	23	0	1	blank2r.bmp	0	1	+	0	3	B3r.bmp	500	1	blank2r.bmp	800	1	GKQX	800	1	blank2r.bmp	870	2	schön	870	1	!	1200	1	blank2r.bmp	1330	0	0	0
013018	15:52:39	1	4	5.0.10.0	d070_B21_B2_unplA	dB21_valA_070	3	33	300	300	0	0	164	23	0	1	blank2r.bmp	0	1	+	0	7	C3r.bmp	500	1	blank2r.bmp	800	1	GKQX	800	1	blank2r.bmp	870	2	neidisch	870	1	!	1200	1	blank2r.bmp	1330	0	0	0
013018	15:52:39	1	4	5.0.10.0	d070_B21_B2_pleasA	dB21_valA_070	3	34	300	300	0	0	162	23	0	1	blank2r.bmp	0	1	+	0	5	C1r.bmp	500	1	blank2r.bmp	800	1	GKQX	800	1	blank2r.bmp	870	1	toll	870	1	!	1200	1	blank2r.bmp	1330	0	0	0
013018	15:52:39	1	4	5.0.10.0	d070_B21_B1_unplA	dB21_valA_070	3	35	300	300	0	0	383	23	1	1	blank2r.bmp	0	1	+	0	1	B1r.bmp	500	1	blank2r.bmp	800	1	BMVZ	800	1	blank2r.bmp	870	3	töten	870	1	!	1200	1	blank2r.bmp	1330	0	0	0
013018	15:52:39	1	4	5.0.10.0	d070_B21_B2_pleasA	dB21_valA_070	3	36	300	300	0	0	373	18	1	1	blank2r.bmp	0	1	+	0	2	B2r.bmp	500	1	blank2r.bmp	800	1	GKQX	800	1	blank2r.bmp	870	6	froh	870	1	!	1200	1	blank2r.bmp	1330	0	0	0
013018	15:52:39	1	4	5.0.10.0	d070_B21_B2_pleasA	dB21_valA_070	3	37	300	300	0	0	109	18	1	1	blank2r.bmp	0	1	+	0	4	B4r.bmp	500	1	blank2r.bmp	800	1	GKQX	800	1	blank2r.bmp	870	3	freund	870	1	!	1200	1	blank2r.bmp	1330	0	0	0
013018	15:52:39	1	4	5.0.10.0	d070_B21_B1_unplA	dB21_valA_070	3	38	300	300	0	0	117	18	0	1	blank2r.bmp	0	1	+	0	8	C4r.bmp	500	1	blank2r.bmp	800	1	BMVZ	800	1	blank2r.bmp	870	6	leiden	870	1	!	1200	1	blank2r.bmp	1330	0	0	0
013018	15:52:39	1	4	5.0.10.0	d070_B21_B1_pleasA	dB21_valA_070	3	39	300	300	0	0	245	23	1	1	blank2r.bmp	0	1	+	0	6	C2r.bmp	500	1	blank2r.bmp	800	1	BMVZ	800	1	blank2r.bmp	870	3	freund	870	1	!	1200	1	blank2r.bmp	1330	0	0	0
013018	15:52:39	1	4	5.0.10.0	d070_B21_B2_pleasA	dB21_valA_070	3	40	300	300	0	0	55	18	1	1	blank2r.bmp	0	1	+	0	3	B3r.bmp	500	1	blank2r.bmp	800	1	GKQX	800	1	blank2r.bmp	870	5	friedlich	870	1	!	1200	1	blank2r.bmp	1330	0	0	0
013018	15:52:39	1	4	5.0.10.0	d070_B21_B2_pleasA	dB21_valA_070	3	41	300	300	0	0	507	23	0	1	blank2r.bmp	0	1	+	0	4	B4r.bmp	500	1	blank2r.bmp	800	1	GKQX	800	1	blank2r.bmp	870	1	toll	870	1	!	1200	1	blank2r.bmp	1330	0	0	0
013018	15:52:39	1	4	5.0.10.0	d070_B21_B1_pleasA	dB21_valA_070	3	42	300	300	0	0	292	23	1	1	blank2r.bmp	0	1	+	0	2	B2r.bmp	500	1	blank2r.bmp	800	1	BMVZ	800	1	blank2r.bmp	870	6	froh	870	1	!	1200	1	blank2r.bmp	1330	0	0	0
013018	15:52:39	1	4	5.0.10.0	d070_B21_B2_pleasA	dB21_valA_070	3	43	300	300	0	0	395	23	0	1	blank2r.bmp	0	1	+	0	5	C1r.bmp	500	1	blank2r.bmp	800	1	GKQX	800	1	blank2r.bmp	870	4	heiter	870	1	!	1200	1	blank2r.bmp	1330	0	0	0
013018	15:52:39	1	4	5.0.10.0	d070_B21_B2_pleasA	dB21_valA_070	3	44	300	300	0	0	318	23	0	1	blank2r.bmp	0	1	+	0	6	C2r.bmp	500	1	blank2r.bmp	800	1	GKQX	800	1	blank2r.bmp	870	2	schön	870	1	!	1200	1	blank2r.bmp	1330	0	0	0
013018	15:52:39	1	4	5.0.10.0	d070_B21_B2_unplA	dB21_valA_070	3	45	300	300	0	0	353	23	0	1	blank2r.bmp	0	1	+	0	3	B3r.bmp	500	1	blank2r.bmp	800	1	GKQX	800	1	blank2r.bmp	870	2	neidisch	870	1	!	1200	1	blank2r.bmp	1330	0	0	0
013018	15:52:39	1	4	5.0.10.0	d070_B21_B2_unplA	dB21_valA_070	3	46	300	300	0	0	55	23	0	1	blank2r.bmp	0	1	+	0	7	C3r.bmp	500	1	blank2r.bmp	800	1	GKQX	800	1	blank2r.bmp	870	1	unfair	870	1	!	1200	1	blank2r.bmp	1330	0	0	0
013018	15:52:39	1	4	5.0.10.0	d070_B21_B1_unplA	dB21_valA_070	3	47	300	300	0	0	31	23	1	1	blank2r.bmp	0	1	+	0	1	B1r.bmp	500	1	blank2r.bmp	800	1	BMVZ	800	1	blank2r.bmp	870	4	elend	870	1	!	1200	1	blank2r.bmp	1330	0	0	0
013018	15:52:39	1	4	5.0.10.0	d070_B21_B1_unplA	dB21_valA_070	3	48	300	300	0	0	188	18	0	1	blank2r.bmp	0	1	+	0	8	C4r.bmp	500	1	blank2r.bmp	800	1	BMVZ	800	1	blank2r.bmp	870	5	schlecht	870	1	!	1200	1	blank2r.bmp	1330	0	0	0
013018	15:52:39	1	4	5.0.10.0	d070_B21_B1_pleasA	dB21_valA_070	4	1	300	300	0	0	2811	23	1	1	blank2r.bmp	0	1	+	0	8	C4r.bmp	500	1	blank2r.bmp	800	1	BMVZ	800	1	blank2r.bmp	870	3	freund	870	1	!	1200	1	blank2r.bmp	1330	0	0	0
013018	15:52:39	1	4	5.0.10.0	d070_B21_B1_unplA	dB21_valA_070	4	2	300	300	0	0	214	23	1	1	blank2r.bmp	0	1	+	0	5	C1r.bmp	500	1	blank2r.bmp	800	1	BMVZ	800	1	blank2r.bmp	870	5	schlecht	870	1	!	1200	1	blank2r.bmp	1330	0	0	0
013018	15:52:39	1	4	5.0.10.0	d070_B21_B2_unplA	dB21_valA_070	4	3	300	300	0	0	134	18	1	1	blank2r.bmp	0	1	+	0	2	B2r.bmp	500	1	blank2r.bmp	800	1	GKQX	800	1	blank2r.bmp	870	6	leiden	870	1	!	1200	1	blank2r.bmp	1330	0	0	0
013018	15:52:39	1	4	5.0.10.0	d070_B21_B2_pleasA	dB21_valA_070	4	4	300	300	0	0	189	23	0	1	blank2r.bmp	0	1	+	0	7	C3r.bmp	500	1	blank2r.bmp	800	1	GKQX	800	1	blank2r.bmp	870	1	toll	870	1	!	1200	1	blank2r.bmp	1330	0	0	0
013018	15:52:39	1	4	5.0.10.0	d070_B21_B2_unplA	dB21_valA_070	4	5	300	300	0	0	416	18	1	1	blank2r.bmp	0	1	+	0	6	C2r.bmp	500	1	blank2r.bmp	800	1	GKQX	800	1	blank2r.bmp	870	4	elend	870	1	!	1200	1	blank2r.bmp	1330	0	0	0
013018	15:52:39	1	4	5.0.10.0	d070_B21_B1_unplA	dB21_valA_070	4	6	300	300	0	0	308	23	1	1	blank2r.bmp	0	1	+	0	4	B4r.bmp	500	1	blank2r.bmp	800	1	BMVZ	800	1	blank2r.bmp	870	2	neidisch	870	1	!	1200	1	blank2r.bmp	1330	0	0	0
013018	15:52:39	1	4	5.0.10.0	d070_B21_B2_unplA	dB21_valA_070	4	7	300	300	0	0	224	23	0	1	blank2r.bmp	0	1	+	0	1	B1r.bmp	500	1	blank2r.bmp	800	1	GKQX	800	1	blank2r.bmp	870	1	unfair	870	1	!	1200	1	blank2r.bmp	1330	0	0	0
013018	15:52:39	1	4	5.0.10.0	d070_B21_B2_unplA	dB21_valA_070	4	8	300	300	0	0	505	18	1	1	blank2r.bmp	0	1	+	0	3	B3r.bmp	500	1	blank2r.bmp	800	1	GKQX	800	1	blank2r.bmp	870	3	töten	870	1	!	1200	1	blank2r.bmp	1330	0	0	0
013018	15:52:39	1	4	5.0.10.0	d070_B21_B2_unplA	dB21_valA_070	4	9	300	300	0	0	188	23	0	1	blank2r.bmp	0	1	+	0	2	B2r.bmp	500	1	blank2r.bmp	800	1	GKQX	800	1	blank2r.bmp	870	3	töten	870	1	!	1200	1	blank2r.bmp	1330	0	0	0
013018	15:52:39	1	4	5.0.10.0	d070_B21_B2_pleasA	dB21_valA_070	4	10	300	300	0	0	116	23	0	1	blank2r.bmp	0	1	+	0	7	C3r.bmp	500	1	blank2r.bmp	800	1	GKQX	800	1	blank2r.bmp	870	5	friedlich	870	1	!	1200	1	blank2r.bmp	1330	0	0	0
013018	15:52:39	1	4	5.0.10.0	d070_B21_B2_unplA	dB21_valA_070	4	11	300	300	0	0	129	23	0	1	blank2r.bmp	0	1	+	0	4	B4r.bmp	500	1	blank2r.bmp	800	1	GKQX	800	1	blank2r.bmp	870	5	schlecht	870	1	!	1200	1	blank2r.bmp	1330	0	0	0
013018	15:52:39	1	4	5.0.10.0	d070_B21_B1_pleasA	dB21_valA_070	4	12	300	300	0	0	111	23	1	1	blank2r.bmp	0	1	+	0	8	C4r.bmp	500	1	blank2r.bmp	800	1	BMVZ	800	1	blank2r.bmp	870	4	heiter	870	1	!	1200	1	blank2r.bmp	1330	0	0	0
013018	15:52:39	1	4	5.0.10.0	d070_B21_B2_pleasA	dB21_valA_070	4	13	300	300	0	0	10	18	1	1	blank2r.bmp	0	1	+	0	3	B3r.bmp	500	1	blank2r.bmp	800	1	GKQX	800	1	blank2r.bmp	870	6	froh	870	1	!	1200	1	blank2r.bmp	1330	0	0	0
013018	15:52:39	1	4	5.0.10.0	d070_B21_B2_unplA	dB21_valA_070	4	14	300	300	0	0	194	23	0	1	blank2r.bmp	0	1	+	0	1	B1r.bmp	500	1	blank2r.bmp	800	1	GKQX	800	1	blank2r.bmp	870	2	neidisch	870	1	!	1200	1	blank2r.bmp	1330	0	0	0
013018	15:52:39	1	4	5.0.10.0	d070_B21_B1_unplA	dB21_valA_070	4	15	300	300	0	0	9	23	1	1	blank2r.bmp	0	1	+	0	6	C2r.bmp	500	1	blank2r.bmp	800	1	BMVZ	800	1	blank2r.bmp	870	1	unfair	870	1	!	1200	1	blank2r.bmp	1330	0	0	0
013018	15:52:39	1	4	5.0.10.0	d070_B21_B2_pleasA	dB21_valA_070	4	16	300	300	0	0	307	23	0	1	blank2r.bmp	0	1	+	0	5	C1r.bmp	500	1	blank2r.bmp	800	1	GKQX	800	1	blank2r.bmp	870	2	schön	870	1	!	1200	1	blank2r.bmp	1330	0	0	0
013018	15:52:39	1	4	5.0.10.0	d070_B21_B2_unplA	dB21_valA_070	4	17	300	300	0	0	54	18	1	1	blank2r.bmp	0	1	+	0	1	B1r.bmp	500	1	blank2r.bmp	800	1	GKQX	800	1	blank2r.bmp	870	4	elend	870	1	!	1200	1	blank2r.bmp	1330	0	0	0
013018	15:52:39	1	4	5.0.10.0	d070_B21_B2_pleasA	dB21_valA_070	4	18	300	300	0	0	472	23	0	1	blank2r.bmp	0	1	+	0	2	B2r.bmp	500	1	blank2r.bmp	800	1	GKQX	800	1	blank2r.bmp	870	5	friedlich	870	1	!	1200	1	blank2r.bmp	1330	0	0	0
013018	15:52:39	1	4	5.0.10.0	d070_B21_B1_pleasA	dB21_valA_070	4	19	300	300	0	0	58	23	1	1	blank2r.bmp	0	1	+	0	4	B4r.bmp	500	1	blank2r.bmp	800	1	BMVZ	800	1	blank2r.bmp	870	3	freund	870	1	!	1200	1	blank2r.bmp	1330	0	0	0
013018	15:52:39	1	4	5.0.10.0	d070_B21_B1_pleasA	dB21_valA_070	4	20	300	300	0	0	40	23	1	1	blank2r.bmp	0	1	+	0	6	C2r.bmp	500	1	blank2r.bmp	800	1	BMVZ	800	1	blank2r.bmp	870	6	froh	870	1	!	1200	1	blank2r.bmp	1330	0	0	0
013018	15:52:39	1	4	5.0.10.0	d070_B21_B1_unplA	dB21_valA_070	4	21	300	300	0	0	2646	23	1	1	blank2r.bmp	0	1	+	0	7	C3r.bmp	500	1	blank2r.bmp	800	1	BMVZ	800	1	blank2r.bmp	870	6	leiden	870	1	!	1200	1	blank2r.bmp	1330	0	0	0
013018	15:52:39	1	4	5.0.10.0	d070_B21_B1_pleasA	dB21_valA_070	4	22	300	300	0	0	22	23	1	1	blank2r.bmp	0	1	+	0	3	B3r.bmp	500	1	blank2r.bmp	800	1	BMVZ	800	1	blank2r.bmp	870	4	heiter	870	1	!	1200	1	blank2r.bmp	1330	0	0	0
013018	15:52:39	1	4	5.0.10.0	d070_B21_B2_pleasA	dB21_valA_070	4	23	300	300	0	0	203	23	0	1	blank2r.bmp	0	1	+	0	5	C1r.bmp	500	1	blank2r.bmp	800	1	GKQX	800	1	blank2r.bmp	870	1	toll	870	1	!	1200	1	blank2r.bmp	1330	0	0	0
013018	15:52:39	1	4	5.0.10.0	d070_B21_B1_pleasA	dB21_valA_070	4	24	300	300	0	0	51	18	0	1	blank2r.bmp	0	1	+	0	8	C4r.bmp	500	1	blank2r.bmp	800	1	BMVZ	800	1	blank2r.bmp	870	2	schön	870	1	!	1200	1	blank2r.bmp	1330	0	0	0
013018	15:52:39	1	4	5.0.10.0	d070_B21_B2_unplA	dB21_valA_070	4	25	300	300	0	0	18	18	1	1	blank2r.bmp	0	1	+	0	2	B2r.bmp	500	1	blank2r.bmp	800	1	GKQX	800	1	blank2r.bmp	870	1	unfair	870	1	!	1200	1	blank2r.bmp	1330	0	0	0
013018	15:52:39	1	4	5.0.10.0	d070_B21_B2_pleasA	dB21_valA_070	4	26	300	300	0	0	85	23	0	1	blank2r.bmp	0	1	+	0	8	C4r.bmp	500	1	blank2r.bmp	800	1	GKQX	800	1	blank2r.bmp	870	4	heiter	870	1	!	1200	1	blank2r.bmp	1330	0	0	0
013018	15:52:39	1	4	5.0.10.0	d070_B21_B2_unplA	dB21_valA_070	4	27	300	300	0	0	76	23	0	1	blank2r.bmp	0	1	+	0	3	B3r.bmp	500	1	blank2r.bmp	800	1	GKQX	800	1	blank2r.bmp	870	2	neidisch	870	1	!	1200	1	blank2r.bmp	1330	0	0	0
013018	15:52:39	1	4	5.0.10.0	d070_B21_B2_pleasA	dB21_valA_070	4	28	300	300	0	0	2709	23	0	1	blank2r.bmp	0	1	+	0	7	C3r.bmp	500	1	blank2r.bmp	800	1	GKQX	800	1	blank2r.bmp	870	5	friedlich	870	1	!	1200	1	blank2r.bmp	1330	0	0	0
013018	15:52:39	1	4	5.0.10.0	d070_B21_B1_pleasA	dB21_valA_070	4	29	300	300	0	0	73	23	1	1	blank2r.bmp	0	1	+	0	4	B4r.bmp	500	1	blank2r.bmp	800	1	BMVZ	800	1	blank2r.bmp	870	1	toll	870	1	!	1200	1	blank2r.bmp	1330	0	0	0
013018	15:52:39	1	4	5.0.10.0	d070_B21_B2_pleasA	dB21_valA_070	4	30	300	300	0	0	54	23	0	1	blank2r.bmp	0	1	+	0	6	C2r.bmp	500	1	blank2r.bmp	800	1	GKQX	800	1	blank2r.bmp	870	3	freund	870	1	!	1200	1	blank2r.bmp	1330	0	0	0
013018	15:52:39	1	4	5.0.10.0	d070_B21_B1_unplA	dB21_valA_070	4	31	300	300	0	0	22	18	0	1	blank2r.bmp	0	1	+	0	1	B1r.bmp	500	1	blank2r.bmp	800	1	BMVZ	800	1	blank2r.bmp	870	5	schlecht	870	1	!	1200	1	blank2r.bmp	1330	0	0	0
013018	15:52:39	1	4	5.0.10.0	d070_B21_B1_unplA	dB21_valA_070	4	32	300	300	0	0	146	23	1	1	blank2r.bmp	0	1	+	0	5	C1r.bmp	500	1	blank2r.bmp	800	1	BMVZ	800	1	blank2r.bmp	870	6	leiden	870	1	!	1200	1	blank2r.bmp	1330	0	0	0
013018	15:52:39	1	4	5.0.10.0	d070_B21_B1_pleasA	dB21_valA_070	4	33	300	300	0	0	2772	23	1	1	blank2r.bmp	0	1	+	0	7	C3r.bmp	500	1	blank2r.bmp	800	1	BMVZ	800	1	blank2r.bmp	870	6	froh	870	1	!	1200	1	blank2r.bmp	1330	0	0	0
013018	15:52:39	1	4	5.0.10.0	d070_B21_B1_unplA	dB21_valA_070	4	34	300	300	0	0	103	23	1	1	blank2r.bmp	0	1	+	0	5	C1r.bmp	500	1	blank2r.bmp	800	1	BMVZ	800	1	blank2r.bmp	870	3	töten	870	1	!	1200	1	blank2r.bmp	1330	0	0	0
013018	15:52:39	1	4	5.0.10.0	d070_B21_B1_pleasA	dB21_valA_070	4	35	300	300	0	0	135	18	0	1	blank2r.bmp	0	1	+	0	1	B1r.bmp	500	1	blank2r.bmp	800	1	BMVZ	800	1	blank2r.bmp	870	2	schön	870	1	!	1200	1	blank2r.bmp	1330	0	0	0
013018	15:52:39	1	4	5.0.10.0	d070_B21_B1_pleasA	dB21_valA_070	4	36	300	300	0	0	1935	23	1	1	blank2r.bmp	0	1	+	0	3	B3r.bmp	500	1	blank2r.bmp	800	1	BMVZ	800	1	blank2r.bmp	870	5	friedlich	870	1	!	1200	1	blank2r.bmp	1330	0	0	0
013018	15:52:39	1	4	5.0.10.0	d070_B21_B1_unplA	dB21_valA_070	4	37	300	300	0	0	123	23	1	1	blank2r.bmp	0	1	+	0	4	B4r.bmp	500	1	blank2r.bmp	800	1	BMVZ	800	1	blank2r.bmp	870	4	elend	870	1	!	1200	1	blank2r.bmp	1330	0	0	0
013018	15:52:39	1	4	5.0.10.0	d070_B21_B1_unplA	dB21_valA_070	4	38	300	300	0	0	191	18	0	1	blank2r.bmp	0	1	+	0	2	B2r.bmp	500	1	blank2r.bmp	800	1	BMVZ	800	1	blank2r.bmp	870	5	schlecht	870	1	!	1200	1	blank2r.bmp	1330	0	0	0
013018	15:52:39	1	4	5.0.10.0	d070_B21_B1_pleasA	dB21_valA_070	4	39	300	300	0	0	23	23	1	1	blank2r.bmp	0	1	+	0	8	C4r.bmp	500	1	blank2r.bmp	800	1	BMVZ	800	1	blank2r.bmp	870	3	freund	870	1	!	1200	1	blank2r.bmp	1330	0	0	0
013018	15:52:39	1	4	5.0.10.0	d070_B21_B1_unplA	dB21_valA_070	4	40	300	300	0	0	87	23	1	1	blank2r.bmp	0	1	+	0	6	C2r.bmp	500	1	blank2r.bmp	800	1	BMVZ	800	1	blank2r.bmp	870	6	leiden	870	1	!	1200	1	blank2r.bmp	1330	0	0	0
013018	15:52:39	1	4	5.0.10.0	d070_B21_B2_unplA	dB21_valA_070	4	41	300	300	0	0	45	18	1	1	blank2r.bmp	0	1	+	0	2	B2r.bmp	500	1	blank2r.bmp	800	1	GKQX	800	1	blank2r.bmp	870	3	töten	870	1	!	1200	1	blank2r.bmp	1330	0	0	0
013018	15:52:39	1	4	5.0.10.0	d070_B21_B2_pleasA	dB21_valA_070	4	42	300	300	0	0	111	23	0	1	blank2r.bmp	0	1	+	0	6	C2r.bmp	500	1	blank2r.bmp	800	1	GKQX	800	1	blank2r.bmp	870	6	froh	870	1	!	1200	1	blank2r.bmp	1330	0	0	0
013018	15:52:39	1	4	5.0.10.0	d070_B21_B2_pleasA	dB21_valA_070	4	43	300	300	0	0	2319	23	0	1	blank2r.bmp	0	1	+	0	1	B1r.bmp	500	1	blank2r.bmp	800	1	GKQX	800	1	blank2r.bmp	870	2	schön	870	1	!	1200	1	blank2r.bmp	1330	0	0	0
013018	15:52:39	1	4	5.0.10.0	d070_B21_B2_unplA	dB21_valA_070	4	44	300	300	0	0	251	18	1	1	blank2r.bmp	0	1	+	0	7	C3r.bmp	500	1	blank2r.bmp	800	1	GKQX	800	1	blank2r.bmp	870	1	unfair	870	1	!	1200	1	blank2r.bmp	1330	0	0	0
013018	15:52:39	1	4	5.0.10.0	d070_B21_B1_unplA	dB21_valA_070	4	45	300	300	0	0	6	23	1	1	blank2r.bmp	0	1	+	0	8	C4r.bmp	500	1	blank2r.bmp	800	1	BMVZ	800	1	blank2r.bmp	870	4	elend	870	1	!	1200	1	blank2r.bmp	1330	0	0	0
013018	15:52:39	1	4	5.0.10.0	d070_B21_B2_pleasA	dB21_valA_070	4	46	300	300	0	0	67	18	1	1	blank2r.bmp	0	1	+	0	5	C1r.bmp	500	1	blank2r.bmp	800	1	GKQX	800	1	blank2r.bmp	870	1	toll	870	1	!	1200	1	blank2r.bmp	1330	0	0	0
013018	15:52:39	1	4	5.0.10.0	d070_B21_B1_pleasA	dB21_valA_070	4	47	300	300	0	0	34	23	1	1	blank2r.bmp	0	1	+	0	4	B4r.bmp	500	1	blank2r.bmp	800	1	BMVZ	800	1	blank2r.bmp	870	4	heiter	870	1	!	1200	1	blank2r.bmp	1330	0	0	0
013018	15:52:39	1	4	5.0.10.0	d070_B21_B1_unplA	dB21_valA_070	4	48	300	300	0	0	137	23	1	1	blank2r.bmp	0	1	+	0	3	B3r.bmp	500	1	blank2r.bmp	800	1	BMVZ	800	1	blank2r.bmp	870	2	neidisch	870	1	!	1200	1	blank2r.bmp	1330	0	0	0
013018	15:52:39	1	4	5.0.10.0	dL_A21_A2_pleasB	dA21_valB_pract1	6	1	300	300	0	0	2426	18	1	1	blank2r.bmp	0	1	+	0	1	B1r.bmp	500	1	blank2r.bmp	700	1	DHJF	700	4	B4r.bmp	830	1	blank2r.bmp	870	2	mutig	870	1	!	1200	1	blank2r.bmp	1330
013018	15:52:39	1	4	5.0.10.0	dL_A21_A1_pleasB	dA21_valB_pract1	6	2	300	300	0	0	2104	23	1	1	blank2r.bmp	0	1	+	0	3	B3r.bmp	500	1	blank2r.bmp	700	1	NPLW	700	2	B2r.bmp	830	1	blank2r.bmp	870	1	gut	870	1	!	1200	1	blank2r.bmp	1330
013018	15:52:39	1	4	5.0.10.0	dL_A21_A1_unplB	dA21_valB_pract1	6	3	300	300	0	0	144	23	1	1	blank2r.bmp	0	1	+	0	5	C1r.bmp	500	1	blank2r.bmp	700	1	NPLW	700	1	B1r.bmp	830	1	blank2r.bmp	870	4	böse	870	1	!	1200	1	blank2r.bmp	1330
013018	15:52:39	1	4	5.0.10.0	dL_A21_A2_unplB	dA21_valB_pract1	6	4	300	300	0	0	1927	18	1	1	blank2r.bmp	0	1	+	0	2	B2r.bmp	500	1	blank2r.bmp	700	1	DHJF	700	7	C3r.bmp	830	1	blank2r.bmp	870	2	geizig	870	1	!	1200	1	blank2r.bmp	1330
013018	15:52:39	1	4	5.0.10.0	dL_A21_A2_unplB	dA21_valB_pract1	6	5	300	300	0	0	99	18	1	1	blank2r.bmp	0	1	+	0	6	C2r.bmp	500	1	blank2r.bmp	700	1	DHJF	700	8	C4r.bmp	830	1	blank2r.bmp	870	3	ärger	870	1	!	1200	1	blank2r.bmp	1330
013018	15:52:39	1	4	5.0.10.0	dL_A21_A2_pleasB	dA21_valB_pract1	6	6	300	300	0	0	1848	18	1	1	blank2r.bmp	0	1	+	0	4	B4r.bmp	500	1	blank2r.bmp	700	1	DHJF	700	3	B3r.bmp	830	1	blank2r.bmp	870	4	treu	870	1	!	1200	1	blank2r.bmp	1330
013018	15:52:39	1	4	5.0.10.0	dL_A21_A2_pleasB	dA21_valB_pract1	6	7	300	300	0	0	133	18	1	1	blank2r.bmp	0	1	+	0	7	C3r.bmp	500	1	blank2r.bmp	700	1	DHJF	700	6	C2r.bmp	830	1	blank2r.bmp	870	6	kreativ	870	1	!	1200	1	blank2r.bmp	1330
013018	15:52:39	1	4	5.0.10.0	dL_A21_A1_pleasB	dA21_valB_pract1	6	8	300	300	0	0	87	23	1	1	blank2r.bmp	0	1	+	0	8	C4r.bmp	500	1	blank2r.bmp	700	1	NPLW	700	5	C1r.bmp	830	1	blank2r.bmp	870	5	begabt	870	1	!	1200	1	blank2r.bmp	1330
013018	15:52:39	1	4	5.0.10.0	dL_A21_A1_pleasB	dA21_valB_pract1	6	9	300	300	0	0	2109	23	1	1	blank2r.bmp	0	1	+	0	2	B2r.bmp	500	1	blank2r.bmp	700	1	NPLW	700	3	B3r.bmp	830	1	blank2r.bmp	870	3	kuss	870	1	!	1200	1	blank2r.bmp	1330
013018	15:52:39	1	4	5.0.10.0	dL_A21_A2_unplB	dA21_valB_pract1	6	10	300	300	0	0	48	18	1	1	blank2r.bmp	0	1	+	0	5	C1r.bmp	500	1	blank2r.bmp	700	1	DHJF	700	6	C2r.bmp	830	1	blank2r.bmp	870	5	kummer	870	1	!	1200	1	blank2r.bmp	1330
013018	15:52:39	1	4	5.0.10.0	dL_A21_A1_unplB	dA21_valB_pract1	6	11	300	300	0	0	24	23	1	1	blank2r.bmp	0	1	+	0	6	C2r.bmp	500	1	blank2r.bmp	700	1	NPLW	700	2	B2r.bmp	830	1	blank2r.bmp	870	1	grausam	870	1	!	1200	1	blank2r.bmp	1330
013018	15:52:39	1	4	5.0.10.0	dL_A21_A1_unplB	dA21_valB_pract1	6	12	300	300	0	0	36	23	1	1	blank2r.bmp	0	1	+	0	7	C3r.bmp	500	1	blank2r.bmp	700	1	NPLW	700	1	B1r.bmp	830	1	blank2r.bmp	870	6	traurig	870	1	!	1200	1	blank2r.bmp	1330
013018	15:52:39	1	4	5.0.10.0	dM_A21_A2_pleasB	dA21_valB_pract2	7	1	300	300	0	0	1001	18	1	1	blank2r.bmp	0	1	+	0	3	B3r.bmp	500	1	blank2r.bmp	730	1	DHJF	730	5	C1r.bmp	830	1	blank2r.bmp	870	5	begabt	870	1	!	1200	1	blank2r.bmp	1330
013018	15:52:39	1	4	5.0.10.0	dM_A21_A1_pleasB	dA21_valB_pract2	7	2	300	300	0	0	488	23	1	1	blank2r.bmp	0	1	+	0	1	B1r.bmp	500	1	blank2r.bmp	730	1	NPLW	730	4	B4r.bmp	830	1	blank2r.bmp	870	1	gut	870	1	!	1200	1	blank2r.bmp	1330
013018	15:52:39	1	4	5.0.10.0	dM_A21_A1_unplB	dA21_valB_pract2	7	3	300	300	0	0	162	23	1	1	blank2r.bmp	0	1	+	0	8	C4r.bmp	500	1	blank2r.bmp	730	1	NPLW	730	7	C3r.bmp	830	1	blank2r.bmp	870	1	grausam	870	1	!	1200	1	blank2r.bmp	1330
013018	15:52:39	1	4	5.0.10.0	dM_A21_A1_unplB	dA21_valB_pract2	7	4	300	300	0	0	121	23	1	1	blank2r.bmp	0	1	+	0	4	B4r.bmp	500	1	blank2r.bmp	730	1	NPLW	730	8	C4r.bmp	830	1	blank2r.bmp	870	5	kummer	870	1	!	1200	1	blank2r.bmp	1330
013018	15:52:39	1	4	5.0.10.0	dM_A21_A2_unplB	dA21_valB_pract2	7	5	300	300	0	0	28	18	1	1	blank2r.bmp	0	1	+	0	6	C2r.bmp	500	1	blank2r.bmp	730	1	DHJF	730	1	B1r.bmp	830	1	blank2r.bmp	870	4	böse	870	1	!	1200	1	blank2r.bmp	1330
013018	15:52:39	1	4	5.0.10.0	dM_A21_A2_pleasB	dA21_valB_pract2	7	6	300	300	0	0	1572	18	1	1	blank2r.bmp	0	1	+	0	3	B3r.bmp	500	1	blank2r.bmp	730	1	DHJF	730	5	C1r.bmp	830	1	blank2r.bmp	870	4	treu	870	1	!	1200	1	blank2r.bmp	1330
013018	15:52:39	1	4	5.0.10.0	dM_A21_A1_pleasB	dA21_valB_pract2	7	7	300	300	0	0	105	23	1	1	blank2r.bmp	0	1	+	0	2	B2r.bmp	500	1	blank2r.bmp	730	1	NPLW	730	4	B4r.bmp	830	1	blank2r.bmp	870	2	mutig	870	1	!	1200	1	blank2r.bmp	1330
013018	15:52:39	1	4	5.0.10.0	dM_A21_A1_pleasB	dA21_valB_pract2	7	8	300	300	0	0	198	23	1	1	blank2r.bmp	0	1	+	0	7	C3r.bmp	500	1	blank2r.bmp	730	1	NPLW	730	6	C2r.bmp	830	1	blank2r.bmp	870	6	kreativ	870	1	!	1200	1	blank2r.bmp	1330
013018	15:52:39	1	4	5.0.10.0	dM_A21_A1_unplB	dA21_valB_pract2	7	9	300	300	0	0	183	23	1	1	blank2r.bmp	0	1	+	0	8	C4r.bmp	500	1	blank2r.bmp	730	1	NPLW	730	2	B2r.bmp	830	1	blank2r.bmp	870	3	ärger	870	1	!	1200	1	blank2r.bmp	1330
013018	15:52:39	1	4	5.0.10.0	dM_A21_A2_unplB	dA21_valB_pract2	7	10	300	300	0	0	254	18	1	1	blank2r.bmp	0	1	+	0	5	C1r.bmp	500	1	blank2r.bmp	730	1	DHJF	730	3	B3r.bmp	830	1	blank2r.bmp	870	6	traurig	870	1	!	1200	1	blank2r.bmp	1330
013018	15:52:39	1	4	5.0.10.0	dM_A21_A2_pleasB	dA21_valB_pract2	7	11	300	300	0	0	11	18	1	1	blank2r.bmp	0	1	+	0	4	B4r.bmp	500	1	blank2r.bmp	730	1	DHJF	730	8	C4r.bmp	830	1	blank2r.bmp	870	3	kuss	870	1	!	1200	1	blank2r.bmp	1330
013018	15:52:39	1	4	5.0.10.0	dM_A21_A2_unplB	dA21_valB_pract2	7	12	300	300	0	0	149	18	1	1	blank2r.bmp	0	1	+	0	1	B1r.bmp	500	1	blank2r.bmp	730	1	DHJF	730	7	C3r.bmp	830	1	blank2r.bmp	870	2	geizig	870	1	!	1200	1	blank2r.bmp	1330
013018	15:52:39	1	4	5.0.10.0	d080_A21_A1_pleasB	dA21_valB_080	8	1	300	300	0	0	139	18	0	1	blank2r.bmp	0	1	+	0	8	C4r.bmp	500	1	blank2r.bmp	800	1	NPLW	800	1	blank2r.bmp	880	1	gut	880	1	!	1210	1	blank2r.bmp	1340	0	0	0
013018	15:52:39	1	4	5.0.10.0	d080_A21_A1_unplB	dA21_valB_080	8	2	300	300	0	0	1895	23	1	1	blank2r.bmp	0	1	+	0	5	C1r.bmp	500	1	blank2r.bmp	800	1	NPLW	800	1	blank2r.bmp	880	4	böse	880	1	!	1210	1	blank2r.bmp	1340	0	0	0
013018	15:52:39	1	4	5.0.10.0	d080_A21_A1_pleasB	dA21_valB_080	8	3	300	300	0	0	241	23	1	1	blank2r.bmp	0	1	+	0	7	C3r.bmp	500	1	blank2r.bmp	800	1	NPLW	800	1	blank2r.bmp	880	6	kreativ	880	1	!	1210	1	blank2r.bmp	1340	0	0	0
013018	15:52:39	1	4	5.0.10.0	d080_A21_A1_unplB	dA21_valB_080	8	4	300	300	0	0	77	23	1	1	blank2r.bmp	0	1	+	0	2	B2r.bmp	500	1	blank2r.bmp	800	1	NPLW	800	1	blank2r.bmp	880	3	ärger	880	1	!	1210	1	blank2r.bmp	1340	0	0	0
013018	15:52:39	1	4	5.0.10.0	d080_A21_A1_pleasB	dA21_valB_080	8	5	300	300	0	0	20	23	1	1	blank2r.bmp	0	1	+	0	4	B4r.bmp	500	1	blank2r.bmp	800	1	NPLW	800	1	blank2r.bmp	880	4	treu	880	1	!	1210	1	blank2r.bmp	1340	0	0	0
013018	15:52:39	1	4	5.0.10.0	d080_A21_A1_unplB	dA21_valB_080	8	6	300	300	0	0	120	23	1	1	blank2r.bmp	0	1	+	0	6	C2r.bmp	500	1	blank2r.bmp	800	1	NPLW	800	1	blank2r.bmp	880	5	kummer	880	1	!	1210	1	blank2r.bmp	1340	0	0	0
013018	15:52:39	1	4	5.0.10.0	d080_A21_A2_pleasB	dA21_valB_080	8	7	300	300	0	0	66	18	1	1	blank2r.bmp	0	1	+	0	1	B1r.bmp	500	1	blank2r.bmp	800	1	DHJF	800	1	blank2r.bmp	880	3	kuss	880	1	!	1210	1	blank2r.bmp	1340	0	0	0
013018	15:52:39	1	4	5.0.10.0	d080_A21_A2_unplB	dA21_valB_080	8	8	300	300	0	0	174	18	1	1	blank2r.bmp	0	1	+	0	3	B3r.bmp	500	1	blank2r.bmp	800	1	DHJF	800	1	blank2r.bmp	880	6	traurig	880	1	!	1210	1	blank2r.bmp	1340	0	0	0
013018	15:52:39	1	4	5.0.10.0	d080_A21_A1_unplB	dA21_valB_080	8	9	300	300	0	0	1839	23	1	1	blank2r.bmp	0	1	+	0	2	B2r.bmp	500	1	blank2r.bmp	800	1	NPLW	800	1	blank2r.bmp	880	1	grausam	880	1	!	1210	1	blank2r.bmp	1340	0	0	0
013018	15:52:39	1	4	5.0.10.0	d080_A21_A2_unplB	dA21_valB_080	8	10	300	300	0	0	91	18	1	1	blank2r.bmp	0	1	+	0	7	C3r.bmp	500	1	blank2r.bmp	800	1	DHJF	800	1	blank2r.bmp	880	2	geizig	880	1	!	1210	1	blank2r.bmp	1340	0	0	0
013018	15:52:39	1	4	5.0.10.0	d080_A21_A2_pleasB	dA21_valB_080	8	11	300	300	0	0	201	18	1	1	blank2r.bmp	0	1	+	0	1	B1r.bmp	500	1	blank2r.bmp	800	1	DHJF	800	1	blank2r.bmp	880	5	begabt	880	1	!	1210	1	blank2r.bmp	1340	0	0	0
013018	15:52:39	1	4	5.0.10.0	d080_A21_A1_pleasB	dA21_valB_080	8	12	300	300	0	0	186	23	1	1	blank2r.bmp	0	1	+	0	5	C1r.bmp	500	1	blank2r.bmp	800	1	NPLW	800	1	blank2r.bmp	880	2	mutig	880	1	!	1210	1	blank2r.bmp	1340	0	0	0
013018	15:52:39	1	4	5.0.10.0	d080_A21_A2_unplB	dA21_valB_080	8	13	300	300	0	0	45	18	1	1	blank2r.bmp	0	1	+	0	6	C2r.bmp	500	1	blank2r.bmp	800	1	DHJF	800	1	blank2r.bmp	880	5	kummer	880	1	!	1210	1	blank2r.bmp	1340	0	0	0
013018	15:52:39	1	4	5.0.10.0	d080_A21_A2_pleasB	dA21_valB_080	8	14	300	300	0	0	207	18	1	1	blank2r.bmp	0	1	+	0	8	C4r.bmp	500	1	blank2r.bmp	800	1	DHJF	800	1	blank2r.bmp	880	3	kuss	880	1	!	1210	1	blank2r.bmp	1340	0	0	0
013018	15:52:39	1	4	5.0.10.0	d080_A21_A1_unplB	dA21_valB_080	8	15	300	300	0	0	63	23	1	1	blank2r.bmp	0	1	+	0	4	B4r.bmp	500	1	blank2r.bmp	800	1	NPLW	800	1	blank2r.bmp	880	3	ärger	880	1	!	1210	1	blank2r.bmp	1340	0	0	0
013018	15:52:39	1	4	5.0.10.0	d080_A21_A1_pleasB	dA21_valB_080	8	16	300	300	0	0	677	23	1	1	blank2r.bmp	0	1	+	0	3	B3r.bmp	500	1	blank2r.bmp	800	1	NPLW	800	1	blank2r.bmp	880	4	treu	880	1	!	1210	1	blank2r.bmp	1340	0	0	0
013018	15:52:39	1	4	5.0.10.0	d080_A21_A1_pleasB	dA21_valB_080	8	17	300	300	0	0	370	23	1	1	blank2r.bmp	0	1	+	0	3	B3r.bmp	500	1	blank2r.bmp	800	1	NPLW	800	1	blank2r.bmp	880	1	gut	880	1	!	1210	1	blank2r.bmp	1340	0	0	0
013018	15:52:39	1	4	5.0.10.0	d080_A21_A2_pleasB	dA21_valB_080	8	18	300	300	0	0	1085	18	1	1	blank2r.bmp	0	1	+	0	2	B2r.bmp	500	1	blank2r.bmp	800	1	DHJF	800	1	blank2r.bmp	880	2	mutig	880	1	!	1210	1	blank2r.bmp	1340	0	0	0
013018	15:52:39	1	4	5.0.10.0	d080_A21_A1_unplB	dA21_valB_080	8	19	300	300	0	0	76	23	1	1	blank2r.bmp	0	1	+	0	5	C1r.bmp	500	1	blank2r.bmp	800	1	NPLW	800	1	blank2r.bmp	880	6	traurig	880	1	!	1210	1	blank2r.bmp	1340	0	0	0
013018	15:52:39	1	4	5.0.10.0	d080_A21_A1_pleasB	dA21_valB_080	8	20	300	300	0	0	144	23	1	1	blank2r.bmp	0	1	+	0	7	C3r.bmp	500	1	blank2r.bmp	800	1	NPLW	800	1	blank2r.bmp	880	6	kreativ	880	1	!	1210	1	blank2r.bmp	1340	0	0	0
013018	15:52:39	1	4	5.0.10.0	d080_A21_A2_unplB	dA21_valB_080	8	21	300	300	0	0	20	18	1	1	blank2r.bmp	0	1	+	0	4	B4r.bmp	500	1	blank2r.bmp	800	1	DHJF	800	1	blank2r.bmp	880	1	grausam	880	1	!	1210	1	blank2r.bmp	1340	0	0	0
013018	15:52:39	1	4	5.0.10.0	d080_A21_A2_pleasB	dA21_valB_080	8	22	300	300	0	0	1168	18	1	1	blank2r.bmp	0	1	+	0	6	C2r.bmp	500	1	blank2r.bmp	800	1	DHJF	800	1	blank2r.bmp	880	5	begabt	880	1	!	1210	1	blank2r.bmp	1340	0	0	0
013018	15:52:39	1	4	5.0.10.0	d080_A21_A2_pleasB	dA21_valB_080	8	23	300	300	0	0	175	23	0	1	blank2r.bmp	0	1	+	0	1	B1r.bmp	500	1	blank2r.bmp	800	1	DHJF	800	1	blank2r.bmp	880	5	begabt	880	1	!	1210	1	blank2r.bmp	1340	0	0	0
013018	15:52:39	1	4	5.0.10.0	d080_A21_A1_unplB	dA21_valB_080	8	24	300	300	0	0	136	23	1	1	blank2r.bmp	0	1	+	0	8	C4r.bmp	500	1	blank2r.bmp	800	1	NPLW	800	1	blank2r.bmp	880	4	böse	880	1	!	1210	1	blank2r.bmp	1340	0	0	0
013018	15:52:39	1	4	5.0.10.0	d080_A21_A1_pleasB	dA21_valB_080	8	25	300	300	0	0	4	23	1	1	blank2r.bmp	0	1	+	0	5	C1r.bmp	500	1	blank2r.bmp	800	1	NPLW	800	1	blank2r.bmp	880	4	treu	880	1	!	1210	1	blank2r.bmp	1340	0	0	0
013018	15:52:39	1	4	5.0.10.0	d080_A21_A2_pleasB	dA21_valB_080	8	26	300	300	0	0	67	23	0	1	blank2r.bmp	0	1	+	0	1	B1r.bmp	500	1	blank2r.bmp	800	1	DHJF	800	1	blank2r.bmp	880	6	kreativ	880	1	!	1210	1	blank2r.bmp	1340	0	0	0
013018	15:52:39	1	4	5.0.10.0	d080_A21_A2_pleasB	dA21_valB_080	8	27	300	300	0	0	78	18	1	1	blank2r.bmp	0	1	+	0	2	B2r.bmp	500	1	blank2r.bmp	800	1	DHJF	800	1	blank2r.bmp	880	2	mutig	880	1	!	1210	1	blank2r.bmp	1340	0	0	0
013018	15:52:39	1	4	5.0.10.0	d080_A21_A1_unplB	dA21_valB_080	8	28	300	300	0	0	406	18	0	1	blank2r.bmp	0	1	+	0	6	C2r.bmp	500	1	blank2r.bmp	800	1	NPLW	800	1	blank2r.bmp	880	2	geizig	880	1	!	1210	1	blank2r.bmp	1340	0	0	0
013018	15:52:39	1	4	5.0.10.0	d080_A21_A2_pleasB	dA21_valB_080	8	29	300	300	0	0	2093	18	1	1	blank2r.bmp	0	1	+	0	3	B3r.bmp	500	1	blank2r.bmp	800	1	DHJF	800	1	blank2r.bmp	880	1	gut	880	1	!	1210	1	blank2r.bmp	1340	0	0	0
013018	15:52:39	1	4	5.0.10.0	d080_A21_A1_pleasB	dA21_valB_080	8	30	300	300	0	0	35	23	1	1	blank2r.bmp	0	1	+	0	4	B4r.bmp	500	1	blank2r.bmp	800	1	NPLW	800	1	blank2r.bmp	880	3	kuss	880	1	!	1210	1	blank2r.bmp	1340	0	0	0
013018	15:52:39	1	4	5.0.10.0	d080_A21_A1_pleasB	dA21_valB_080	8	31	300	300	0	0	51	23	1	1	blank2r.bmp	0	1	+	0	7	C3r.bmp	500	1	blank2r.bmp	800	1	NPLW	800	1	blank2r.bmp	880	6	kreativ	880	1	!	1210	1	blank2r.bmp	1340	0	0	0
013018	15:52:39	1	4	5.0.10.0	d080_A21_A1_pleasB	dA21_valB_080	8	32	300	300	0	0	43	23	1	1	blank2r.bmp	0	1	+	0	8	C4r.bmp	500	1	blank2r.bmp	800	1	NPLW	800	1	blank2r.bmp	880	4	treu	880	1	!	1210	1	blank2r.bmp	1340	0	0	0
013018	15:52:39	1	4	5.0.10.0	d080_A21_A1_unplB	dA21_valB_080	8	33	300	300	0	0	11	23	1	1	blank2r.bmp	0	1	+	0	2	B2r.bmp	500	1	blank2r.bmp	800	1	NPLW	800	1	blank2r.bmp	880	6	traurig	880	1	!	1210	1	blank2r.bmp	1340	0	0	0
013018	15:52:39	1	4	5.0.10.0	d080_A21_A2_pleasB	dA21_valB_080	8	34	300	300	0	0	19	18	1	1	blank2r.bmp	0	1	+	0	1	B1r.bmp	500	1	blank2r.bmp	800	1	DHJF	800	1	blank2r.bmp	880	1	gut	880	1	!	1210	1	blank2r.bmp	1340	0	0	0
013018	15:52:39	1	4	5.0.10.0	d080_A21_A2_unplB	dA21_valB_080	8	35	300	300	0	0	60	18	1	1	blank2r.bmp	0	1	+	0	3	B3r.bmp	500	1	blank2r.bmp	800	1	DHJF	800	1	blank2r.bmp	880	2	geizig	880	1	!	1210	1	blank2r.bmp	1340	0	0	0
013018	15:52:39	1	4	5.0.10.0	d080_A21_A2_unplB	dA21_valB_080	8	36	300	300	0	0	269	18	1	1	blank2r.bmp	0	1	+	0	7	C3r.bmp	500	1	blank2r.bmp	800	1	DHJF	800	1	blank2r.bmp	880	1	grausam	880	1	!	1210	1	blank2r.bmp	1340	0	0	0
013018	15:52:39	1	4	5.0.10.0	d080_A21_A1_unplB	dA21_valB_080	8	37	300	300	0	0	80	23	1	1	blank2r.bmp	0	1	+	0	5	C1r.bmp	500	1	blank2r.bmp	800	1	NPLW	800	1	blank2r.bmp	880	3	ärger	880	1	!	1210	1	blank2r.bmp	1340	0	0	0
013018	15:52:39	1	4	5.0.10.0	d080_A21_A2_unplB	dA21_valB_080	8	38	300	300	0	0	2733	18	1	1	blank2r.bmp	0	1	+	0	8	C4r.bmp	500	1	blank2r.bmp	800	1	DHJF	800	1	blank2r.bmp	880	4	böse	880	1	!	1210	1	blank2r.bmp	1340	0	0	0
013018	15:52:39	1	4	5.0.10.0	d080_A21_A2_unplB	dA21_valB_080	8	39	300	300	0	0	289	23	0	1	blank2r.bmp	0	1	+	0	6	C2r.bmp	500	1	blank2r.bmp	800	1	DHJF	800	1	blank2r.bmp	880	5	kummer	880	1	!	1210	1	blank2r.bmp	1340	0	0	0
013018	15:52:39	1	4	5.0.10.0	d080_A21_A2_unplB	dA21_valB_080	8	40	300	300	0	0	198	23	0	1	blank2r.bmp	0	1	+	0	4	B4r.bmp	500	1	blank2r.bmp	800	1	DHJF	800	1	blank2r.bmp	880	5	kummer	880	1	!	1210	1	blank2r.bmp	1340	0	0	0
013018	15:52:39	1	4	5.0.10.0	d080_A21_A2_pleasB	dA21_valB_080	8	41	300	300	0	0	1415	18	1	1	blank2r.bmp	0	1	+	0	4	B4r.bmp	500	1	blank2r.bmp	800	1	DHJF	800	1	blank2r.bmp	880	3	kuss	880	1	!	1210	1	blank2r.bmp	1340	0	0	0
013018	15:52:39	1	4	5.0.10.0	d080_A21_A2_pleasB	dA21_valB_080	8	42	300	300	0	0	415	18	1	1	blank2r.bmp	0	1	+	0	7	C3r.bmp	500	1	blank2r.bmp	800	1	DHJF	800	1	blank2r.bmp	880	2	mutig	880	1	!	1210	1	blank2r.bmp	1340	0	0	0
013018	15:52:39	1	4	5.0.10.0	d080_A21_A2_unplB	dA21_valB_080	8	43	300	300	0	0	103	18	1	1	blank2r.bmp	0	1	+	0	6	C2r.bmp	500	1	blank2r.bmp	800	1	DHJF	800	1	blank2r.bmp	880	4	böse	880	1	!	1210	1	blank2r.bmp	1340	0	0	0
013018	15:52:39	1	4	5.0.10.0	d080_A21_A2_unplB	dA21_valB_080	8	44	300	300	0	0	283	18	1	1	blank2r.bmp	0	1	+	0	8	C4r.bmp	500	1	blank2r.bmp	800	1	DHJF	800	1	blank2r.bmp	880	6	traurig	880	1	!	1210	1	blank2r.bmp	1340	0	0	0
013018	15:52:39	1	4	5.0.10.0	d080_A21_A1_unplB	dA21_valB_080	8	45	300	300	0	0	153	23	1	1	blank2r.bmp	0	1	+	0	3	B3r.bmp	500	1	blank2r.bmp	800	1	NPLW	800	1	blank2r.bmp	880	1	grausam	880	1	!	1210	1	blank2r.bmp	1340	0	0	0
013018	15:52:39	1	4	5.0.10.0	d080_A21_A2_unplB	dA21_valB_080	8	46	300	300	0	0	161	23	0	1	blank2r.bmp	0	1	+	0	1	B1r.bmp	500	1	blank2r.bmp	800	1	DHJF	800	1	blank2r.bmp	880	2	geizig	880	1	!	1210	1	blank2r.bmp	1340	0	0	0
013018	15:52:39	1	4	5.0.10.0	d080_A21_A1_unplB	dA21_valB_080	8	47	300	300	0	0	105	23	1	1	blank2r.bmp	0	1	+	0	5	C1r.bmp	500	1	blank2r.bmp	800	1	NPLW	800	1	blank2r.bmp	880	3	ärger	880	1	!	1210	1	blank2r.bmp	1340	0	0	0
013018	15:52:39	1	4	5.0.10.0	d080_A21_A1_pleasB	dA21_valB_080	8	48	300	300	0	0	228	18	0	1	blank2r.bmp	0	1	+	0	2	B2r.bmp	500	1	blank2r.bmp	800	1	NPLW	800	1	blank2r.bmp	880	5	begabt	880	1	!	1210	1	blank2r.bmp	1340	0	0	0
013018	15:52:39	1	4	5.0.10.0	d080_A21_A1_pleasB	dA21_valB_080	9	1	300	300	0	0	1187	23	1	1	blank2r.bmp	0	1	+	0	7	C3r.bmp	500	1	blank2r.bmp	800	1	NPLW	800	1	blank2r.bmp	880	4	treu	880	1	!	1210	1	blank2r.bmp	1340	0	0	0
013018	15:52:39	1	4	5.0.10.0	d080_A21_A2_unplB	dA21_valB_080	9	2	300	300	0	0	255	18	1	1	blank2r.bmp	0	1	+	0	3	B3r.bmp	500	1	blank2r.bmp	800	1	DHJF	800	1	blank2r.bmp	880	3	ärger	880	1	!	1210	1	blank2r.bmp	1340	0	0	0
013018	15:52:39	1	4	5.0.10.0	d080_A21_A2_unplB	dA21_valB_080	9	3	300	300	0	0	497	18	1	1	blank2r.bmp	0	1	+	0	6	C2r.bmp	500	1	blank2r.bmp	800	1	DHJF	800	1	blank2r.bmp	880	4	böse	880	1	!	1210	1	blank2r.bmp	1340	0	0	0
013018	15:52:39	1	4	5.0.10.0	d080_A21_A2_pleasB	dA21_valB_080	9	4	300	300	0	0	381	18	1	1	blank2r.bmp	0	1	+	0	4	B4r.bmp	500	1	blank2r.bmp	800	1	DHJF	800	1	blank2r.bmp	880	5	begabt	880	1	!	1210	1	blank2r.bmp	1340	0	0	0
013018	15:52:39	1	4	5.0.10.0	d080_A21_A1_unplB	dA21_valB_080	9	5	300	300	0	0	374	23	1	1	blank2r.bmp	0	1	+	0	1	B1r.bmp	500	1	blank2r.bmp	800	1	NPLW	800	1	blank2r.bmp	880	5	kummer	880	1	!	1210	1	blank2r.bmp	1340	0	0	0
013018	15:52:39	1	4	5.0.10.0	d080_A21_A1_unplB	dA21_valB_080	9	6	300	300	0	0	515	23	1	1	blank2r.bmp	0	1	+	0	2	B2r.bmp	500	1	blank2r.bmp	800	1	NPLW	800	1	blank2r.bmp	880	2	geizig	880	1	!	1210	1	blank2r.bmp	1340	0	0	0
013018	15:52:39	1	4	5.0.10.0	d080_A21_A1_unplB	dA21_valB_080	9	7	300	300	0	0	134	23	1	1	blank2r.bmp	0	1	+	0	5	C1r.bmp	500	1	blank2r.bmp	800	1	NPLW	800	1	blank2r.bmp	880	1	grausam	880	1	!	1210	1	blank2r.bmp	1340	0	0	0
013018	15:52:39	1	4	5.0.10.0	d080_A21_A2_pleasB	dA21_valB_080	9	8	300	300	0	0	37	18	1	1	blank2r.bmp	0	1	+	0	8	C4r.bmp	500	1	blank2r.bmp	800	1	DHJF	800	1	blank2r.bmp	880	2	mutig	880	1	!	1210	1	blank2r.bmp	1340	0	0	0
013018	15:52:39	1	4	5.0.10.0	d080_A21_A1_pleasB	dA21_valB_080	9	9	300	300	0	0	245	23	1	1	blank2r.bmp	0	1	+	0	8	C4r.bmp	500	1	blank2r.bmp	800	1	NPLW	800	1	blank2r.bmp	880	3	kuss	880	1	!	1210	1	blank2r.bmp	1340	0	0	0
013018	15:52:39	1	4	5.0.10.0	d080_A21_A1_unplB	dA21_valB_080	9	10	300	300	0	0	56	23	1	1	blank2r.bmp	0	1	+	0	1	B1r.bmp	500	1	blank2r.bmp	800	1	NPLW	800	1	blank2r.bmp	880	6	traurig	880	1	!	1210	1	blank2r.bmp	1340	0	0	0
013018	15:52:39	1	4	5.0.10.0	d080_A21_A2_unplB	dA21_valB_080	9	11	300	300	0	0	2389	18	1	1	blank2r.bmp	0	1	+	0	2	B2r.bmp	500	1	blank2r.bmp	800	1	DHJF	800	1	blank2r.bmp	880	5	kummer	880	1	!	1210	1	blank2r.bmp	1340	0	0	0
013018	15:52:39	1	4	5.0.10.0	d080_A21_A2_pleasB	dA21_valB_080	9	12	300	300	0	0	182	23	0	1	blank2r.bmp	0	1	+	0	3	B3r.bmp	500	1	blank2r.bmp	800	1	DHJF	800	1	blank2r.bmp	880	6	kreativ	880	1	!	1210	1	blank2r.bmp	1340	0	0	0
013018	15:52:39	1	4	5.0.10.0	d080_A21_A1_unplB	dA21_valB_080	9	13	300	300	0	0	84	23	1	1	blank2r.bmp	0	1	+	0	5	C1r.bmp	500	1	blank2r.bmp	800	1	NPLW	800	1	blank2r.bmp	880	4	böse	880	1	!	1210	1	blank2r.bmp	1340	0	0	0
013018	15:52:39	1	4	5.0.10.0	d080_A21_A2_pleasB	dA21_valB_080	9	14	300	300	0	0	0	18	1	1	blank2r.bmp	0	1	+	0	4	B4r.bmp	500	1	blank2r.bmp	800	1	DHJF	800	1	blank2r.bmp	880	1	gut	880	1	!	1210	1	blank2r.bmp	1340	0	0	0
013018	15:52:39	1	4	5.0.10.0	d080_A21_A2_unplB	dA21_valB_080	9	15	300	300	0	0	1786	18	1	1	blank2r.bmp	0	1	+	0	7	C3r.bmp	500	1	blank2r.bmp	800	1	DHJF	800	1	blank2r.bmp	880	6	traurig	880	1	!	1210	1	blank2r.bmp	1340	0	0	0
013018	15:52:39	1	4	5.0.10.0	d080_A21_A1_pleasB	dA21_valB_080	9	16	300	300	0	0	39	23	1	1	blank2r.bmp	0	1	+	0	6	C2r.bmp	500	1	blank2r.bmp	800	1	NPLW	800	1	blank2r.bmp	880	2	mutig	880	1	!	1210	1	blank2r.bmp	1340	0	0	0
013018	15:52:39	1	4	5.0.10.0	d080_A21_A1_pleasB	dA21_valB_080	9	17	300	300	0	0	150	23	1	1	blank2r.bmp	0	1	+	0	1	B1r.bmp	500	1	blank2r.bmp	800	1	NPLW	800	1	blank2r.bmp	880	3	kuss	880	1	!	1210	1	blank2r.bmp	1340	0	0	0
013018	15:52:39	1	4	5.0.10.0	d080_A21_A2_unplB	dA21_valB_080	9	18	300	300	0	0	3091	18	1	1	blank2r.bmp	0	1	+	0	5	C1r.bmp	500	1	blank2r.bmp	800	1	DHJF	800	1	blank2r.bmp	880	3	ärger	880	1	!	1210	1	blank2r.bmp	1340	0	0	0
013018	15:52:39	1	4	5.0.10.0	d080_A21_A1_pleasB	dA21_valB_080	9	19	300	300	0	0	2573	23	1	1	blank2r.bmp	0	1	+	0	3	B3r.bmp	500	1	blank2r.bmp	800	1	NPLW	800	1	blank2r.bmp	880	4	treu	880	1	!	1210	1	blank2r.bmp	1340	0	0	0
013018	15:52:39	1	4	5.0.10.0	d080_A21_A2_pleasB	dA21_valB_080	9	20	300	300	0	0	2054	18	1	1	blank2r.bmp	0	1	+	0	2	B2r.bmp	500	1	blank2r.bmp	800	1	DHJF	800	1	blank2r.bmp	880	5	begabt	880	1	!	1210	1	blank2r.bmp	1340	0	0	0
013018	15:52:39	1	4	5.0.10.0	d080_A21_A1_unplB	dA21_valB_080	9	21	300	300	0	0	15	23	1	1	blank2r.bmp	0	1	+	0	4	B4r.bmp	500	1	blank2r.bmp	800	1	NPLW	800	1	blank2r.bmp	880	2	geizig	880	1	!	1210	1	blank2r.bmp	1340	0	0	0
013018	15:52:39	1	4	5.0.10.0	d080_A21_A1_unplB	dA21_valB_080	9	22	300	300	0	0	41	23	1	1	blank2r.bmp	0	1	+	0	8	C4r.bmp	500	1	blank2r.bmp	800	1	NPLW	800	1	blank2r.bmp	880	1	grausam	880	1	!	1210	1	blank2r.bmp	1340	0	0	0
013018	15:52:39	1	4	5.0.10.0	d080_A21_A1_pleasB	dA21_valB_080	9	23	300	300	0	0	212	23	1	1	blank2r.bmp	0	1	+	0	7	C3r.bmp	500	1	blank2r.bmp	800	1	NPLW	800	1	blank2r.bmp	880	1	gut	880	1	!	1210	1	blank2r.bmp	1340	0	0	0
013018	15:52:39	1	4	5.0.10.0	d080_A21_A1_unplB	dA21_valB_080	9	24	300	300	0	0	64	18	0	1	blank2r.bmp	0	1	+	0	6	C2r.bmp	500	1	blank2r.bmp	800	1	NPLW	800	1	blank2r.bmp	880	1	grausam	880	1	!	1210	1	blank2r.bmp	1340	0	0	0
013018	15:52:39	1	4	5.0.10.0	d080_A21_A2_unplB	dA21_valB_080	9	25	300	300	0	0	139	18	1	1	blank2r.bmp	0	1	+	0	2	B2r.bmp	500	1	blank2r.bmp	800	1	DHJF	800	1	blank2r.bmp	880	2	geizig	880	1	!	1210	1	blank2r.bmp	1340	0	0	0
013018	15:52:39	1	4	5.0.10.0	d080_A21_A1_pleasB	dA21_valB_080	9	26	300	300	0	0	95	23	1	1	blank2r.bmp	0	1	+	0	6	C2r.bmp	500	1	blank2r.bmp	800	1	NPLW	800	1	blank2r.bmp	880	6	kreativ	880	1	!	1210	1	blank2r.bmp	1340	0	0	0
013018	15:52:39	1	4	5.0.10.0	d080_A21_A2_pleasB	dA21_valB_080	9	27	300	300	0	0	131	23	0	1	blank2r.bmp	0	1	+	0	3	B3r.bmp	500	1	blank2r.bmp	800	1	DHJF	800	1	blank2r.bmp	880	2	mutig	880	1	!	1210	1	blank2r.bmp	1340	0	0	0
013018	15:52:39	1	4	5.0.10.0	d080_A21_A2_pleasB	dA21_valB_080	9	28	300	300	0	0	24	18	1	1	blank2r.bmp	0	1	+	0	8	C4r.bmp	500	1	blank2r.bmp	800	1	DHJF	800	1	blank2r.bmp	880	5	begabt	880	1	!	1210	1	blank2r.bmp	1340	0	0	0
013018	15:52:39	1	4	5.0.10.0	d080_A21_A1_pleasB	dA21_valB_080	9	29	300	300	0	0	2033	23	1	1	blank2r.bmp	0	1	+	0	1	B1r.bmp	500	1	blank2r.bmp	800	1	NPLW	800	1	blank2r.bmp	880	3	kuss	880	1	!	1210	1	blank2r.bmp	1340	0	0	0
013018	15:52:39	1	4	5.0.10.0	d080_A21_A2_pleasB	dA21_valB_080	9	30	300	300	0	0	1811	18	1	1	blank2r.bmp	0	1	+	0	5	C1r.bmp	500	1	blank2r.bmp	800	1	DHJF	800	1	blank2r.bmp	880	4	treu	880	1	!	1210	1	blank2r.bmp	1340	0	0	0
013018	15:52:39	1	4	5.0.10.0	d080_A21_A1_pleasB	dA21_valB_080	9	31	300	300	0	0	198	23	1	1	blank2r.bmp	0	1	+	0	4	B4r.bmp	500	1	blank2r.bmp	800	1	NPLW	800	1	blank2r.bmp	880	1	gut	880	1	!	1210	1	blank2r.bmp	1340	0	0	0
013018	15:52:39	1	4	5.0.10.0	d080_A21_A2_pleasB	dA21_valB_080	9	32	300	300	0	0	113	18	1	1	blank2r.bmp	0	1	+	0	7	C3r.bmp	500	1	blank2r.bmp	800	1	DHJF	800	1	blank2r.bmp	880	6	kreativ	880	1	!	1210	1	blank2r.bmp	1340	0	0	0
013018	15:52:39	1	4	5.0.10.0	d080_A21_A2_unplB	dA21_valB_080	9	33	300	300	0	0	309	18	1	1	blank2r.bmp	0	1	+	0	5	C1r.bmp	500	1	blank2r.bmp	800	1	DHJF	800	1	blank2r.bmp	880	5	kummer	880	1	!	1210	1	blank2r.bmp	1340	0	0	0
013018	15:52:39	1	4	5.0.10.0	d080_A21_A2_unplB	dA21_valB_080	9	34	300	300	0	0	1090	18	1	1	blank2r.bmp	0	1	+	0	6	C2r.bmp	500	1	blank2r.bmp	800	1	DHJF	800	1	blank2r.bmp	880	6	traurig	880	1	!	1210	1	blank2r.bmp	1340	0	0	0
013018	15:52:39	1	4	5.0.10.0	d080_A21_A1_unplB	dA21_valB_080	9	35	300	300	0	0	557	23	1	1	blank2r.bmp	0	1	+	0	8	C4r.bmp	500	1	blank2r.bmp	800	1	NPLW	800	1	blank2r.bmp	880	4	böse	880	1	!	1210	1	blank2r.bmp	1340	0	0	0
013018	15:52:39	1	4	5.0.10.0	d080_A21_A2_pleasB	dA21_valB_080	9	36	300	300	0	0	170	18	1	1	blank2r.bmp	0	1	+	0	4	B4r.bmp	500	1	blank2r.bmp	800	1	DHJF	800	1	blank2r.bmp	880	2	mutig	880	1	!	1210	1	blank2r.bmp	1340	0	0	0
013018	15:52:39	1	4	5.0.10.0	d080_A21_A2_unplB	dA21_valB_080	9	37	300	300	0	0	102	18	1	1	blank2r.bmp	0	1	+	0	7	C3r.bmp	500	1	blank2r.bmp	800	1	DHJF	800	1	blank2r.bmp	880	3	ärger	880	1	!	1210	1	blank2r.bmp	1340	0	0	0
013018	15:52:39	1	4	5.0.10.0	d080_A21_A2_pleasB	dA21_valB_080	9	38	300	300	0	0	483	23	0	1	blank2r.bmp	0	1	+	0	2	B2r.bmp	500	1	blank2r.bmp	800	1	DHJF	800	1	blank2r.bmp	880	1	gut	880	1	!	1210	1	blank2r.bmp	1340	0	0	0
013018	15:52:39	1	4	5.0.10.0	d080_A21_A2_unplB	dA21_valB_080	9	39	300	300	0	0	2735	18	1	1	blank2r.bmp	0	1	+	0	3	B3r.bmp	500	1	blank2r.bmp	800	1	DHJF	800	1	blank2r.bmp	880	4	böse	880	1	!	1210	1	blank2r.bmp	1340	0	0	0
013018	15:52:39	1	4	5.0.10.0	d080_A21_A2_pleasB	dA21_valB_080	9	40	300	300	0	0	242	18	1	1	blank2r.bmp	0	1	+	0	1	B1r.bmp	500	1	blank2r.bmp	800	1	DHJF	800	1	blank2r.bmp	880	4	treu	880	1	!	1210	1	blank2r.bmp	1340	0	0	0
013018	15:52:39	1	4	5.0.10.0	d080_A21_A1_pleasB	dA21_valB_080	9	41	300	300	0	0	332	23	1	1	blank2r.bmp	0	1	+	0	5	C1r.bmp	500	1	blank2r.bmp	800	1	NPLW	800	1	blank2r.bmp	880	5	begabt	880	1	!	1210	1	blank2r.bmp	1340	0	0	0
013018	15:52:39	1	4	5.0.10.0	d080_A21_A2_unplB	dA21_valB_080	9	42	300	300	0	0	202	23	0	1	blank2r.bmp	0	1	+	0	3	B3r.bmp	500	1	blank2r.bmp	800	1	DHJF	800	1	blank2r.bmp	880	2	geizig	880	1	!	1210	1	blank2r.bmp	1340	0	0	0
013018	15:52:39	1	4	5.0.10.0	d080_A21_A1_unplB	dA21_valB_080	9	43	300	300	0	0	86	23	1	1	blank2r.bmp	0	1	+	0	1	B1r.bmp	500	1	blank2r.bmp	800	1	NPLW	800	1	blank2r.bmp	880	6	traurig	880	1	!	1210	1	blank2r.bmp	1340	0	0	0
013018	15:52:39	1	4	5.0.10.0	d080_A21_A1_unplB	dA21_valB_080	9	44	300	300	0	0	168	23	1	1	blank2r.bmp	0	1	+	0	6	C2r.bmp	500	1	blank2r.bmp	800	1	NPLW	800	1	blank2r.bmp	880	5	kummer	880	1	!	1210	1	blank2r.bmp	1340	0	0	0
013018	15:52:39	1	4	5.0.10.0	d080_A21_A1_pleasB	dA21_valB_080	9	45	300	300	0	0	319	23	1	1	blank2r.bmp	0	1	+	0	4	B4r.bmp	500	1	blank2r.bmp	800	1	NPLW	800	1	blank2r.bmp	880	6	kreativ	880	1	!	1210	1	blank2r.bmp	1340	0	0	0
013018	15:52:39	1	4	5.0.10.0	d080_A21_A2_unplB	dA21_valB_080	9	46	300	300	0	0	66	18	1	1	blank2r.bmp	0	1	+	0	8	C4r.bmp	500	1	blank2r.bmp	800	1	DHJF	800	1	blank2r.bmp	880	3	ärger	880	1	!	1210	1	blank2r.bmp	1340	0	0	0
013018	15:52:39	1	4	5.0.10.0	d080_A21_A1_unplB	dA21_valB_080	9	47	300	300	0	0	100	23	1	1	blank2r.bmp	0	1	+	0	7	C3r.bmp	500	1	blank2r.bmp	800	1	NPLW	800	1	blank2r.bmp	880	1	grausam	880	1	!	1210	1	blank2r.bmp	1340	0	0	0
013018	15:52:39	1	4	5.0.10.0	d080_A21_A1_pleasB	dA21_valB_080	9	48	300	300	0	0	94	23	1	1	blank2r.bmp	0	1	+	0	2	B2r.bmp	500	1	blank2r.bmp	800	1	NPLW	800	1	blank2r.bmp	880	3	kuss	880	1	!	1210	1	blank2r.bmp	1340	0	0	0
013018	15:52:39	1	4	5.0.10.0	endtrial	endblock	10	1	300	300	0	0	127006	21	0	0	0	0	0	0	0	0	0	0	0	0	0	0	0	0	0	0	0	0	0	0	0	0	0	0	0	0	0	0	0
