date	time	group	subject	build	trialcode	blockcode	blocknum	trialnum	pretrialpause	posttrialpause	trialduration	trialtimeout	latency	response	correct	stimulusnumber1	stimulusitem1	stimulusonset1	stimulusnumber2	stimulusitem2	stimulusonset2	stimulusnumber3	stimulusitem3	stimulusonset3	stimulusnumber4	stimulusitem4	stimulusonset4	stimulusnumber5	stimulusitem5	stimulusonset5	stimulusnumber6	stimulusitem6	stimulusonset6	stimulusnumber7	stimulusitem7	stimulusonset7	stimulusnumber8	stimulusitem8	stimulusonset8	stimulusnumber9	stimulusitem9	stimulusonset9	stimulusnumber10	stimulusitem10	stimulusonset10
013118	11:47:59	1	5	5.0.10.0	dL_A12_A1_unplB	dA12_valB_pract1	1	1	300	300	0	0	284	23	0	1	blank2r.bmp	0	1	+	0	3	B3r.bmp	500	1	blank2r.bmp	700	1	NPLW	700	8	C4r.bmp	830	1	blank2r.bmp	870	1	grausam	870	1	!	1200	1	blank2r.bmp	1330
013118	11:47:59	1	5	5.0.10.0	dL_A12_A1_unplB	dA12_valB_pract1	1	2	300	300	0	0	899	23	0	1	blank2r.bmp	0	1	+	0	4	B4r.bmp	500	1	blank2r.bmp	700	1	NPLW	700	1	B1r.bmp	830	1	blank2r.bmp	870	3	ärger	870	1	!	1200	1	blank2r.bmp	1330
013118	11:47:59	1	5	5.0.10.0	dL_A12_A2_pleasB	dA12_valB_pract1	1	3	300	300	0	0	477	23	1	1	blank2r.bmp	0	1	+	0	5	C1r.bmp	500	1	blank2r.bmp	700	1	DHJF	700	3	B3r.bmp	830	1	blank2r.bmp	870	1	gut	870	1	!	1200	1	blank2r.bmp	1330
013118	11:47:59	1	5	5.0.10.0	dL_A12_A2_pleasB	dA12_valB_pract1	1	4	300	300	0	0	582	18	0	1	blank2r.bmp	0	1	+	0	7	C3r.bmp	500	1	blank2r.bmp	700	1	DHJF	700	5	C1r.bmp	830	1	blank2r.bmp	870	6	kreativ	870	1	!	1200	1	blank2r.bmp	1330
013118	11:47:59	1	5	5.0.10.0	dL_A12_A1_pleasB	dA12_valB_pract1	1	5	300	300	0	0	412	18	1	1	blank2r.bmp	0	1	+	0	1	B1r.bmp	500	1	blank2r.bmp	700	1	NPLW	700	7	C3r.bmp	830	1	blank2r.bmp	870	2	mutig	870	1	!	1200	1	blank2r.bmp	1330
013118	11:47:59	1	5	5.0.10.0	dL_A12_A2_pleasB	dA12_valB_pract1	1	6	300	300	0	0	156	18	0	1	blank2r.bmp	0	1	+	0	8	C4r.bmp	500	1	blank2r.bmp	700	1	DHJF	700	4	B4r.bmp	830	1	blank2r.bmp	870	3	kuss	870	1	!	1200	1	blank2r.bmp	1330
013118	11:47:59	1	5	5.0.10.0	dL_A12_A2_unplB	dA12_valB_pract1	1	7	300	300	0	0	421	23	1	1	blank2r.bmp	0	1	+	0	6	C2r.bmp	500	1	blank2r.bmp	700	1	DHJF	700	2	B2r.bmp	830	1	blank2r.bmp	870	2	geizig	870	1	!	1200	1	blank2r.bmp	1330
013118	11:47:59	1	5	5.0.10.0	dL_A12_A2_unplB	dA12_valB_pract1	1	8	300	300	0	0	122	23	1	1	blank2r.bmp	0	1	+	0	2	B2r.bmp	500	1	blank2r.bmp	700	1	DHJF	700	6	C2r.bmp	830	1	blank2r.bmp	870	4	böse	870	1	!	1200	1	blank2r.bmp	1330
013118	11:47:59	1	5	5.0.10.0	dL_A12_A2_unplB	dA12_valB_pract1	1	9	300	300	0	0	5759	23	1	1	blank2r.bmp	0	1	+	0	2	B2r.bmp	500	1	blank2r.bmp	700	1	DHJF	700	4	B4r.bmp	830	1	blank2r.bmp	870	5	kummer	870	1	!	1200	1	blank2r.bmp	1330
013118	11:47:59	1	5	5.0.10.0	dL_A12_A1_unplB	dA12_valB_pract1	1	10	300	300	0	0	156	23	0	1	blank2r.bmp	0	1	+	0	8	C4r.bmp	500	1	blank2r.bmp	700	1	NPLW	700	3	B3r.bmp	830	1	blank2r.bmp	870	6	traurig	870	1	!	1200	1	blank2r.bmp	1330
013118	11:47:59	1	5	5.0.10.0	dL_A12_A1_pleasB	dA12_valB_pract1	1	11	300	300	0	0	76	18	1	1	blank2r.bmp	0	1	+	0	6	C2r.bmp	500	1	blank2r.bmp	700	1	NPLW	700	5	C1r.bmp	830	1	blank2r.bmp	870	5	begabt	870	1	!	1200	1	blank2r.bmp	1330
013118	11:47:59	1	5	5.0.10.0	dL_A12_A1_pleasB	dA12_valB_pract1	1	12	300	300	0	0	115	18	1	1	blank2r.bmp	0	1	+	0	3	B3r.bmp	500	1	blank2r.bmp	700	1	NPLW	700	7	C3r.bmp	830	1	blank2r.bmp	870	4	treu	870	1	!	1200	1	blank2r.bmp	1330
013118	11:47:59	1	5	5.0.10.0	dM_A12_A1_unplB	dA12_valB_pract2	2	1	300	300	0	0	2617	18	1	1	blank2r.bmp	0	1	+	0	1	B1r.bmp	500	1	blank2r.bmp	730	1	NPLW	730	2	B2r.bmp	830	1	blank2r.bmp	870	2	geizig	870	1	!	1200	1	blank2r.bmp	1330
013118	11:47:59	1	5	5.0.10.0	dM_A12_A1_pleasB	dA12_valB_pract2	2	2	300	300	0	0	17	18	1	1	blank2r.bmp	0	1	+	0	5	C1r.bmp	500	1	blank2r.bmp	730	1	NPLW	730	8	C4r.bmp	830	1	blank2r.bmp	870	1	gut	870	1	!	1200	1	blank2r.bmp	1330
013118	11:47:59	1	5	5.0.10.0	dM_A12_A2_pleasB	dA12_valB_pract2	2	3	300	300	0	0	2125	23	1	1	blank2r.bmp	0	1	+	0	7	C3r.bmp	500	1	blank2r.bmp	730	1	DHJF	730	6	C2r.bmp	830	1	blank2r.bmp	870	6	kreativ	870	1	!	1200	1	blank2r.bmp	1330
013118	11:47:59	1	5	5.0.10.0	dM_A12_A1_pleasB	dA12_valB_pract2	2	4	300	300	0	0	304	18	1	1	blank2r.bmp	0	1	+	0	4	B4r.bmp	500	1	blank2r.bmp	730	1	NPLW	730	1	B1r.bmp	830	1	blank2r.bmp	870	2	mutig	870	1	!	1200	1	blank2r.bmp	1330
013118	11:47:59	1	5	5.0.10.0	dM_A12_A2_unplB	dA12_valB_pract2	2	5	300	300	0	0	126	18	0	1	blank2r.bmp	0	1	+	0	4	B4r.bmp	500	1	blank2r.bmp	730	1	DHJF	730	5	C1r.bmp	830	1	blank2r.bmp	870	6	traurig	870	1	!	1200	1	blank2r.bmp	1330
013118	11:47:59	1	5	5.0.10.0	dM_A12_A1_unplB	dA12_valB_pract2	2	6	300	300	0	0	87	18	1	1	blank2r.bmp	0	1	+	0	3	B3r.bmp	500	1	blank2r.bmp	730	1	NPLW	730	2	B2r.bmp	830	1	blank2r.bmp	870	5	kummer	870	1	!	1200	1	blank2r.bmp	1330
013118	11:47:59	1	5	5.0.10.0	dM_A12_A2_pleasB	dA12_valB_pract2	2	7	300	300	0	0	42	23	1	1	blank2r.bmp	0	1	+	0	8	C4r.bmp	500	1	blank2r.bmp	730	1	DHJF	730	1	B1r.bmp	830	1	blank2r.bmp	870	4	treu	870	1	!	1200	1	blank2r.bmp	1330
013118	11:47:59	1	5	5.0.10.0	dM_A12_A2_pleasB	dA12_valB_pract2	2	8	300	300	0	0	1322	23	1	1	blank2r.bmp	0	1	+	0	6	C2r.bmp	500	1	blank2r.bmp	730	1	DHJF	730	8	C4r.bmp	830	1	blank2r.bmp	870	5	begabt	870	1	!	1200	1	blank2r.bmp	1330
013118	11:47:59	1	5	5.0.10.0	dM_A12_A1_unplB	dA12_valB_pract2	2	9	300	300	0	0	225	18	1	1	blank2r.bmp	0	1	+	0	5	C1r.bmp	500	1	blank2r.bmp	730	1	NPLW	730	7	C3r.bmp	830	1	blank2r.bmp	870	1	grausam	870	1	!	1200	1	blank2r.bmp	1330
013118	11:47:59	1	5	5.0.10.0	dM_A12_A2_unplB	dA12_valB_pract2	2	10	300	300	0	0	235	23	1	1	blank2r.bmp	0	1	+	0	7	C3r.bmp	500	1	blank2r.bmp	730	1	DHJF	730	3	B3r.bmp	830	1	blank2r.bmp	870	3	ärger	870	1	!	1200	1	blank2r.bmp	1330
013118	11:47:59	1	5	5.0.10.0	dM_A12_A1_pleasB	dA12_valB_pract2	2	11	300	300	0	0	170	18	1	1	blank2r.bmp	0	1	+	0	1	B1r.bmp	500	1	blank2r.bmp	730	1	NPLW	730	6	C2r.bmp	830	1	blank2r.bmp	870	3	kuss	870	1	!	1200	1	blank2r.bmp	1330
013118	11:47:59	1	5	5.0.10.0	dM_A12_A2_unplB	dA12_valB_pract2	2	12	300	300	0	0	40	23	1	1	blank2r.bmp	0	1	+	0	2	B2r.bmp	500	1	blank2r.bmp	730	1	DHJF	730	4	B4r.bmp	830	1	blank2r.bmp	870	4	böse	870	1	!	1200	1	blank2r.bmp	1330
013118	11:47:59	1	5	5.0.10.0	d070_A12_A1_pleasB	dA12_valB_070	3	1	300	300	0	0	308	18	1	1	blank2r.bmp	0	1	+	0	3	B3r.bmp	500	1	blank2r.bmp	800	1	NPLW	800	1	blank2r.bmp	870	4	treu	870	1	!	1200	1	blank2r.bmp	1330	0	0	0
013118	11:47:59	1	5	5.0.10.0	d070_A12_A1_pleasB	dA12_valB_070	3	2	300	300	0	0	250	18	1	1	blank2r.bmp	0	1	+	0	4	B4r.bmp	500	1	blank2r.bmp	800	1	NPLW	800	1	blank2r.bmp	870	5	begabt	870	1	!	1200	1	blank2r.bmp	1330	0	0	0
013118	11:47:59	1	5	5.0.10.0	d070_A12_A1_unplB	dA12_valB_070	3	3	300	300	0	0	256	23	0	1	blank2r.bmp	0	1	+	0	1	B1r.bmp	500	1	blank2r.bmp	800	1	NPLW	800	1	blank2r.bmp	870	5	kummer	870	1	!	1200	1	blank2r.bmp	1330	0	0	0
013118	11:47:59	1	5	5.0.10.0	d070_A12_A1_pleasB	dA12_valB_070	3	4	300	300	0	0	128	18	1	1	blank2r.bmp	0	1	+	0	7	C3r.bmp	500	1	blank2r.bmp	800	1	NPLW	800	1	blank2r.bmp	870	6	kreativ	870	1	!	1200	1	blank2r.bmp	1330	0	0	0
013118	11:47:59	1	5	5.0.10.0	d070_A12_A1_pleasB	dA12_valB_070	3	5	300	300	0	0	1019	23	0	1	blank2r.bmp	0	1	+	0	2	B2r.bmp	500	1	blank2r.bmp	800	1	NPLW	800	1	blank2r.bmp	870	1	gut	870	1	!	1200	1	blank2r.bmp	1330	0	0	0
013118	11:47:59	1	5	5.0.10.0	d070_A12_A1_pleasB	dA12_valB_070	3	6	300	300	0	0	285	18	1	1	blank2r.bmp	0	1	+	0	5	C1r.bmp	500	1	blank2r.bmp	800	1	NPLW	800	1	blank2r.bmp	870	2	mutig	870	1	!	1200	1	blank2r.bmp	1330	0	0	0
013118	11:47:59	1	5	5.0.10.0	d070_A12_A2_pleasB	dA12_valB_070	3	7	300	300	0	0	331	23	1	1	blank2r.bmp	0	1	+	0	8	C4r.bmp	500	1	blank2r.bmp	800	1	DHJF	800	1	blank2r.bmp	870	3	kuss	870	1	!	1200	1	blank2r.bmp	1330	0	0	0
013118	11:47:59	1	5	5.0.10.0	d070_A12_A1_unplB	dA12_valB_070	3	8	300	300	0	0	1303	23	0	1	blank2r.bmp	0	1	+	0	6	C2r.bmp	500	1	blank2r.bmp	800	1	NPLW	800	1	blank2r.bmp	870	3	ärger	870	1	!	1200	1	blank2r.bmp	1330	0	0	0
013118	11:47:59	1	5	5.0.10.0	d070_A12_A2_unplB	dA12_valB_070	3	9	300	300	0	0	202	18	0	1	blank2r.bmp	0	1	+	0	4	B4r.bmp	500	1	blank2r.bmp	800	1	DHJF	800	1	blank2r.bmp	870	6	traurig	870	1	!	1200	1	blank2r.bmp	1330	0	0	0
013118	11:47:59	1	5	5.0.10.0	d070_A12_A1_unplB	dA12_valB_070	3	10	300	300	0	0	391	23	0	1	blank2r.bmp	0	1	+	0	8	C4r.bmp	500	1	blank2r.bmp	800	1	NPLW	800	1	blank2r.bmp	870	4	böse	870	1	!	1200	1	blank2r.bmp	1330	0	0	0
013118	11:47:59	1	5	5.0.10.0	d070_A12_A2_pleasB	dA12_valB_070	3	11	300	300	0	0	320	18	0	1	blank2r.bmp	0	1	+	0	3	B3r.bmp	500	1	blank2r.bmp	800	1	DHJF	800	1	blank2r.bmp	870	2	mutig	870	1	!	1200	1	blank2r.bmp	1330	0	0	0
013118	11:47:59	1	5	5.0.10.0	d070_A12_A2_pleasB	dA12_valB_070	3	12	300	300	0	0	624	23	1	1	blank2r.bmp	0	1	+	0	5	C1r.bmp	500	1	blank2r.bmp	800	1	DHJF	800	1	blank2r.bmp	870	4	treu	870	1	!	1200	1	blank2r.bmp	1330	0	0	0
013118	11:47:59	1	5	5.0.10.0	d070_A12_A2_pleasB	dA12_valB_070	3	13	300	300	0	0	73	23	1	1	blank2r.bmp	0	1	+	0	1	B1r.bmp	500	1	blank2r.bmp	800	1	DHJF	800	1	blank2r.bmp	870	6	kreativ	870	1	!	1200	1	blank2r.bmp	1330	0	0	0
013118	11:47:59	1	5	5.0.10.0	d070_A12_A2_pleasB	dA12_valB_070	3	14	300	300	0	0	138	18	0	1	blank2r.bmp	0	1	+	0	6	C2r.bmp	500	1	blank2r.bmp	800	1	DHJF	800	1	blank2r.bmp	870	5	begabt	870	1	!	1200	1	blank2r.bmp	1330	0	0	0
013118	11:47:59	1	5	5.0.10.0	d070_A12_A2_unplB	dA12_valB_070	3	15	300	300	0	0	1028	18	0	1	blank2r.bmp	0	1	+	0	7	C3r.bmp	500	1	blank2r.bmp	800	1	DHJF	800	1	blank2r.bmp	870	2	geizig	870	1	!	1200	1	blank2r.bmp	1330	0	0	0
013118	11:47:59	1	5	5.0.10.0	d070_A12_A2_pleasB	dA12_valB_070	3	16	300	300	0	0	524	18	0	1	blank2r.bmp	0	1	+	0	2	B2r.bmp	500	1	blank2r.bmp	800	1	DHJF	800	1	blank2r.bmp	870	1	gut	870	1	!	1200	1	blank2r.bmp	1330	0	0	0
013118	11:47:59	1	5	5.0.10.0	d070_A12_A2_unplB	dA12_valB_070	3	17	300	300	0	0	110	18	0	1	blank2r.bmp	0	1	+	0	7	C3r.bmp	500	1	blank2r.bmp	800	1	DHJF	800	1	blank2r.bmp	870	1	grausam	870	1	!	1200	1	blank2r.bmp	1330	0	0	0
013118	11:47:59	1	5	5.0.10.0	d070_A12_A2_pleasB	dA12_valB_070	3	18	300	300	0	0	8	23	1	1	blank2r.bmp	0	1	+	0	4	B4r.bmp	500	1	blank2r.bmp	800	1	DHJF	800	1	blank2r.bmp	870	3	kuss	870	1	!	1200	1	blank2r.bmp	1330	0	0	0
013118	11:47:59	1	5	5.0.10.0	d070_A12_A2_unplB	dA12_valB_070	3	19	300	300	0	0	239	18	0	1	blank2r.bmp	0	1	+	0	8	C4r.bmp	500	1	blank2r.bmp	800	1	DHJF	800	1	blank2r.bmp	870	5	kummer	870	1	!	1200	1	blank2r.bmp	1330	0	0	0
013118	11:47:59	1	5	5.0.10.0	d070_A12_A1_pleasB	dA12_valB_070	3	20	300	300	0	0	360	18	1	1	blank2r.bmp	0	1	+	0	3	B3r.bmp	500	1	blank2r.bmp	800	1	NPLW	800	1	blank2r.bmp	870	4	treu	870	1	!	1200	1	blank2r.bmp	1330	0	0	0
013118	11:47:59	1	5	5.0.10.0	d070_A12_A1_unplB	dA12_valB_070	3	21	300	300	0	0	59	18	1	1	blank2r.bmp	0	1	+	0	2	B2r.bmp	500	1	blank2r.bmp	800	1	NPLW	800	1	blank2r.bmp	870	6	traurig	870	1	!	1200	1	blank2r.bmp	1330	0	0	0
013118	11:47:59	1	5	5.0.10.0	d070_A12_A1_pleasB	dA12_valB_070	3	22	300	300	0	0	65	23	0	1	blank2r.bmp	0	1	+	0	6	C2r.bmp	500	1	blank2r.bmp	800	1	NPLW	800	1	blank2r.bmp	870	1	gut	870	1	!	1200	1	blank2r.bmp	1330	0	0	0
013118	11:47:59	1	5	5.0.10.0	d070_A12_A2_unplB	dA12_valB_070	3	23	300	300	0	0	104	18	0	1	blank2r.bmp	0	1	+	0	1	B1r.bmp	500	1	blank2r.bmp	800	1	DHJF	800	1	blank2r.bmp	870	4	böse	870	1	!	1200	1	blank2r.bmp	1330	0	0	0
013118	11:47:59	1	5	5.0.10.0	d070_A12_A2_unplB	dA12_valB_070	3	24	300	300	0	0	210	18	0	1	blank2r.bmp	0	1	+	0	5	C1r.bmp	500	1	blank2r.bmp	800	1	DHJF	800	1	blank2r.bmp	870	3	ärger	870	1	!	1200	1	blank2r.bmp	1330	0	0	0
013118	11:47:59	1	5	5.0.10.0	d070_A12_A2_unplB	dA12_valB_070	3	25	300	300	0	0	14	23	1	1	blank2r.bmp	0	1	+	0	3	B3r.bmp	500	1	blank2r.bmp	800	1	DHJF	800	1	blank2r.bmp	870	2	geizig	870	1	!	1200	1	blank2r.bmp	1330	0	0	0
013118	11:47:59	1	5	5.0.10.0	d070_A12_A1_pleasB	dA12_valB_070	3	26	300	300	0	0	274	18	1	1	blank2r.bmp	0	1	+	0	5	C1r.bmp	500	1	blank2r.bmp	800	1	NPLW	800	1	blank2r.bmp	870	5	begabt	870	1	!	1200	1	blank2r.bmp	1330	0	0	0
013118	11:47:59	1	5	5.0.10.0	d070_A12_A2_unplB	dA12_valB_070	3	27	300	300	0	0	3015	23	1	1	blank2r.bmp	0	1	+	0	2	B2r.bmp	500	1	blank2r.bmp	800	1	DHJF	800	1	blank2r.bmp	870	1	grausam	870	1	!	1200	1	blank2r.bmp	1330	0	0	0
013118	11:47:59	1	5	5.0.10.0	d070_A12_A1_unplB	dA12_valB_070	3	28	300	300	0	0	142	18	1	1	blank2r.bmp	0	1	+	0	7	C3r.bmp	500	1	blank2r.bmp	800	1	NPLW	800	1	blank2r.bmp	870	4	böse	870	1	!	1200	1	blank2r.bmp	1330	0	0	0
013118	11:47:59	1	5	5.0.10.0	d070_A12_A1_unplB	dA12_valB_070	3	29	300	300	0	0	325	18	1	1	blank2r.bmp	0	1	+	0	6	C2r.bmp	500	1	blank2r.bmp	800	1	NPLW	800	1	blank2r.bmp	870	1	grausam	870	1	!	1200	1	blank2r.bmp	1330	0	0	0
013118	11:47:59	1	5	5.0.10.0	d070_A12_A2_unplB	dA12_valB_070	3	30	300	300	0	0	119	18	0	1	blank2r.bmp	0	1	+	0	4	B4r.bmp	500	1	blank2r.bmp	800	1	DHJF	800	1	blank2r.bmp	870	3	ärger	870	1	!	1200	1	blank2r.bmp	1330	0	0	0
013118	11:47:59	1	5	5.0.10.0	d070_A12_A2_pleasB	dA12_valB_070	3	31	300	300	0	0	119	18	0	1	blank2r.bmp	0	1	+	0	8	C4r.bmp	500	1	blank2r.bmp	800	1	DHJF	800	1	blank2r.bmp	870	2	mutig	870	1	!	1200	1	blank2r.bmp	1330	0	0	0
013118	11:47:59	1	5	5.0.10.0	d070_A12_A1_unplB	dA12_valB_070	3	32	300	300	0	0	196	18	1	1	blank2r.bmp	0	1	+	0	1	B1r.bmp	500	1	blank2r.bmp	800	1	NPLW	800	1	blank2r.bmp	870	2	geizig	870	1	!	1200	1	blank2r.bmp	1330	0	0	0
013118	11:47:59	1	5	5.0.10.0	d070_A12_A1_pleasB	dA12_valB_070	3	33	300	300	0	0	341	23	0	1	blank2r.bmp	0	1	+	0	4	B4r.bmp	500	1	blank2r.bmp	800	1	NPLW	800	1	blank2r.bmp	870	3	kuss	870	1	!	1200	1	blank2r.bmp	1330	0	0	0
013118	11:47:59	1	5	5.0.10.0	d070_A12_A2_unplB	dA12_valB_070	3	34	300	300	0	0	263	18	0	1	blank2r.bmp	0	1	+	0	6	C2r.bmp	500	1	blank2r.bmp	800	1	DHJF	800	1	blank2r.bmp	870	6	traurig	870	1	!	1200	1	blank2r.bmp	1330	0	0	0
013118	11:47:59	1	5	5.0.10.0	d070_A12_A2_pleasB	dA12_valB_070	3	35	300	300	0	0	634	18	0	1	blank2r.bmp	0	1	+	0	3	B3r.bmp	500	1	blank2r.bmp	800	1	DHJF	800	1	blank2r.bmp	870	6	kreativ	870	1	!	1200	1	blank2r.bmp	1330	0	0	0
013118	11:47:59	1	5	5.0.10.0	d070_A12_A1_unplB	dA12_valB_070	3	36	300	300	0	0	159	18	1	1	blank2r.bmp	0	1	+	0	2	B2r.bmp	500	1	blank2r.bmp	800	1	NPLW	800	1	blank2r.bmp	870	5	kummer	870	1	!	1200	1	blank2r.bmp	1330	0	0	0
013118	11:47:59	1	5	5.0.10.0	d070_A12_A1_unplB	dA12_valB_070	3	37	300	300	0	0	135	18	1	1	blank2r.bmp	0	1	+	0	5	C1r.bmp	500	1	blank2r.bmp	800	1	NPLW	800	1	blank2r.bmp	870	2	geizig	870	1	!	1200	1	blank2r.bmp	1330	0	0	0
013118	11:47:59	1	5	5.0.10.0	d070_A12_A1_unplB	dA12_valB_070	3	38	300	300	0	0	276	18	1	1	blank2r.bmp	0	1	+	0	1	B1r.bmp	500	1	blank2r.bmp	800	1	NPLW	800	1	blank2r.bmp	870	6	traurig	870	1	!	1200	1	blank2r.bmp	1330	0	0	0
013118	11:47:59	1	5	5.0.10.0	d070_A12_A1_unplB	dA12_valB_070	3	39	300	300	0	0	151	18	1	1	blank2r.bmp	0	1	+	0	7	C3r.bmp	500	1	blank2r.bmp	800	1	NPLW	800	1	blank2r.bmp	870	3	ärger	870	1	!	1200	1	blank2r.bmp	1330	0	0	0
013118	11:47:59	1	5	5.0.10.0	d070_A12_A2_pleasB	dA12_valB_070	3	40	300	300	0	0	1336	23	1	1	blank2r.bmp	0	1	+	0	8	C4r.bmp	500	1	blank2r.bmp	800	1	DHJF	800	1	blank2r.bmp	870	4	treu	870	1	!	1200	1	blank2r.bmp	1330	0	0	0
013118	11:47:59	1	5	5.0.10.0	d070_A12_A2_unplB	dA12_valB_070	3	41	300	300	0	0	328	23	1	1	blank2r.bmp	0	1	+	0	6	C2r.bmp	500	1	blank2r.bmp	800	1	DHJF	800	1	blank2r.bmp	870	4	böse	870	1	!	1200	1	blank2r.bmp	1330	0	0	0
013118	11:47:59	1	5	5.0.10.0	d070_A12_A2_unplB	dA12_valB_070	3	42	300	300	0	0	292	18	0	1	blank2r.bmp	0	1	+	0	1	B1r.bmp	500	1	blank2r.bmp	800	1	DHJF	800	1	blank2r.bmp	870	1	grausam	870	1	!	1200	1	blank2r.bmp	1330	0	0	0
013118	11:47:59	1	5	5.0.10.0	d070_A12_A2_pleasB	dA12_valB_070	3	43	300	300	0	0	294	23	1	1	blank2r.bmp	0	1	+	0	4	B4r.bmp	500	1	blank2r.bmp	800	1	DHJF	800	1	blank2r.bmp	870	3	kuss	870	1	!	1200	1	blank2r.bmp	1330	0	0	0
013118	11:47:59	1	5	5.0.10.0	d070_A12_A1_pleasB	dA12_valB_070	3	44	300	300	0	0	186	23	0	1	blank2r.bmp	0	1	+	0	7	C3r.bmp	500	1	blank2r.bmp	800	1	NPLW	800	1	blank2r.bmp	870	5	begabt	870	1	!	1200	1	blank2r.bmp	1330	0	0	0
013118	11:47:59	1	5	5.0.10.0	d070_A12_A1_pleasB	dA12_valB_070	3	45	300	300	0	0	601	23	0	1	blank2r.bmp	0	1	+	0	2	B2r.bmp	500	1	blank2r.bmp	800	1	NPLW	800	1	blank2r.bmp	870	1	gut	870	1	!	1200	1	blank2r.bmp	1330	0	0	0
013118	11:47:59	1	5	5.0.10.0	d070_A12_A1_unplB	dA12_valB_070	3	46	300	300	0	0	152	18	1	1	blank2r.bmp	0	1	+	0	3	B3r.bmp	500	1	blank2r.bmp	800	1	NPLW	800	1	blank2r.bmp	870	5	kummer	870	1	!	1200	1	blank2r.bmp	1330	0	0	0
013118	11:47:59	1	5	5.0.10.0	d070_A12_A2_pleasB	dA12_valB_070	3	47	300	300	0	0	26	18	0	1	blank2r.bmp	0	1	+	0	5	C1r.bmp	500	1	blank2r.bmp	800	1	DHJF	800	1	blank2r.bmp	870	2	mutig	870	1	!	1200	1	blank2r.bmp	1330	0	0	0
013118	11:47:59	1	5	5.0.10.0	d070_A12_A1_pleasB	dA12_valB_070	3	48	300	300	0	0	58	18	1	1	blank2r.bmp	0	1	+	0	8	C4r.bmp	500	1	blank2r.bmp	800	1	NPLW	800	1	blank2r.bmp	870	6	kreativ	870	1	!	1200	1	blank2r.bmp	1330	0	0	0
013118	11:47:59	1	5	5.0.10.0	d070_A12_A2_unplB	dA12_valB_070	4	1	300	300	0	0	179	18	0	1	blank2r.bmp	0	1	+	0	8	C4r.bmp	500	1	blank2r.bmp	800	1	DHJF	800	1	blank2r.bmp	870	5	kummer	870	1	!	1200	1	blank2r.bmp	1330	0	0	0
013118	11:47:59	1	5	5.0.10.0	d070_A12_A2_unplB	dA12_valB_070	4	2	300	300	0	0	148	18	0	1	blank2r.bmp	0	1	+	0	6	C2r.bmp	500	1	blank2r.bmp	800	1	DHJF	800	1	blank2r.bmp	870	3	ärger	870	1	!	1200	1	blank2r.bmp	1330	0	0	0
013118	11:47:59	1	5	5.0.10.0	d070_A12_A1_pleasB	dA12_valB_070	4	3	300	300	0	0	223	23	0	1	blank2r.bmp	0	1	+	0	3	B3r.bmp	500	1	blank2r.bmp	800	1	NPLW	800	1	blank2r.bmp	870	2	mutig	870	1	!	1200	1	blank2r.bmp	1330	0	0	0
013118	11:47:59	1	5	5.0.10.0	d070_A12_A1_unplB	dA12_valB_070	4	4	300	300	0	0	154	18	1	1	blank2r.bmp	0	1	+	0	4	B4r.bmp	500	1	blank2r.bmp	800	1	NPLW	800	1	blank2r.bmp	870	4	böse	870	1	!	1200	1	blank2r.bmp	1330	0	0	0
013118	11:47:59	1	5	5.0.10.0	d070_A12_A2_pleasB	dA12_valB_070	4	5	300	300	0	0	205	23	1	1	blank2r.bmp	0	1	+	0	7	C3r.bmp	500	1	blank2r.bmp	800	1	DHJF	800	1	blank2r.bmp	870	4	treu	870	1	!	1200	1	blank2r.bmp	1330	0	0	0
013118	11:47:59	1	5	5.0.10.0	d070_A12_A2_pleasB	dA12_valB_070	4	6	300	300	0	0	106	18	0	1	blank2r.bmp	0	1	+	0	5	C1r.bmp	500	1	blank2r.bmp	800	1	DHJF	800	1	blank2r.bmp	870	3	kuss	870	1	!	1200	1	blank2r.bmp	1330	0	0	0
013118	11:47:59	1	5	5.0.10.0	d070_A12_A1_unplB	dA12_valB_070	4	7	300	300	0	0	155	18	1	1	blank2r.bmp	0	1	+	0	1	B1r.bmp	500	1	blank2r.bmp	800	1	NPLW	800	1	blank2r.bmp	870	1	grausam	870	1	!	1200	1	blank2r.bmp	1330	0	0	0
013118	11:47:59	1	5	5.0.10.0	d070_A12_A1_unplB	dA12_valB_070	4	8	300	300	0	0	945	18	1	1	blank2r.bmp	0	1	+	0	2	B2r.bmp	500	1	blank2r.bmp	800	1	NPLW	800	1	blank2r.bmp	870	2	geizig	870	1	!	1200	1	blank2r.bmp	1330	0	0	0
013118	11:47:59	1	5	5.0.10.0	d070_A12_A1_unplB	dA12_valB_070	4	9	300	300	0	0	132	18	1	1	blank2r.bmp	0	1	+	0	2	B2r.bmp	500	1	blank2r.bmp	800	1	NPLW	800	1	blank2r.bmp	870	6	traurig	870	1	!	1200	1	blank2r.bmp	1330	0	0	0
013118	11:47:59	1	5	5.0.10.0	d070_A12_A2_pleasB	dA12_valB_070	4	10	300	300	0	0	105	23	1	1	blank2r.bmp	0	1	+	0	6	C2r.bmp	500	1	blank2r.bmp	800	1	DHJF	800	1	blank2r.bmp	870	6	kreativ	870	1	!	1200	1	blank2r.bmp	1330	0	0	0
013118	11:47:59	1	5	5.0.10.0	d070_A12_A2_pleasB	dA12_valB_070	4	11	300	300	0	0	185	23	1	1	blank2r.bmp	0	1	+	0	4	B4r.bmp	500	1	blank2r.bmp	800	1	DHJF	800	1	blank2r.bmp	870	5	begabt	870	1	!	1200	1	blank2r.bmp	1330	0	0	0
013118	11:47:59	1	5	5.0.10.0	d070_A12_A1_pleasB	dA12_valB_070	4	12	300	300	0	0	410	23	0	1	blank2r.bmp	0	1	+	0	1	B1r.bmp	500	1	blank2r.bmp	800	1	NPLW	800	1	blank2r.bmp	870	1	gut	870	1	!	1200	1	blank2r.bmp	1330	0	0	0
013118	11:47:59	1	5	5.0.10.0	d070_A12_A2_unplB	dA12_valB_070	4	13	300	300	0	0	143	18	0	1	blank2r.bmp	0	1	+	0	8	C4r.bmp	500	1	blank2r.bmp	800	1	DHJF	800	1	blank2r.bmp	870	6	traurig	870	1	!	1200	1	blank2r.bmp	1330	0	0	0
013118	11:47:59	1	5	5.0.10.0	d070_A12_A2_unplB	dA12_valB_070	4	14	300	300	0	0	220	18	0	1	blank2r.bmp	0	1	+	0	5	C1r.bmp	500	1	blank2r.bmp	800	1	DHJF	800	1	blank2r.bmp	870	1	grausam	870	1	!	1200	1	blank2r.bmp	1330	0	0	0
013118	11:47:59	1	5	5.0.10.0	d070_A12_A2_pleasB	dA12_valB_070	4	15	300	300	0	0	243	23	1	1	blank2r.bmp	0	1	+	0	7	C3r.bmp	500	1	blank2r.bmp	800	1	DHJF	800	1	blank2r.bmp	870	5	begabt	870	1	!	1200	1	blank2r.bmp	1330	0	0	0
013118	11:47:59	1	5	5.0.10.0	d070_A12_A1_pleasB	dA12_valB_070	4	16	300	300	0	0	174	23	0	1	blank2r.bmp	0	1	+	0	3	B3r.bmp	500	1	blank2r.bmp	800	1	NPLW	800	1	blank2r.bmp	870	1	gut	870	1	!	1200	1	blank2r.bmp	1330	0	0	0
013118	11:47:59	1	5	5.0.10.0	d070_A12_A1_pleasB	dA12_valB_070	4	17	300	300	0	0	502	23	0	1	blank2r.bmp	0	1	+	0	7	C3r.bmp	500	1	blank2r.bmp	800	1	NPLW	800	1	blank2r.bmp	870	2	mutig	870	1	!	1200	1	blank2r.bmp	1330	0	0	0
013118	11:47:59	1	5	5.0.10.0	d070_A12_A2_unplB	dA12_valB_070	4	18	300	300	0	0	231	18	0	1	blank2r.bmp	0	1	+	0	2	B2r.bmp	500	1	blank2r.bmp	800	1	DHJF	800	1	blank2r.bmp	870	4	böse	870	1	!	1200	1	blank2r.bmp	1330	0	0	0
013118	11:47:59	1	5	5.0.10.0	d070_A12_A1_pleasB	dA12_valB_070	4	19	300	300	0	0	589	23	0	1	blank2r.bmp	0	1	+	0	5	C1r.bmp	500	1	blank2r.bmp	800	1	NPLW	800	1	blank2r.bmp	870	6	kreativ	870	1	!	1200	1	blank2r.bmp	1330	0	0	0
013118	11:47:59	1	5	5.0.10.0	d070_A12_A2_unplB	dA12_valB_070	4	20	300	300	0	0	207	18	0	1	blank2r.bmp	0	1	+	0	1	B1r.bmp	500	1	blank2r.bmp	800	1	DHJF	800	1	blank2r.bmp	870	3	ärger	870	1	!	1200	1	blank2r.bmp	1330	0	0	0
013118	11:47:59	1	5	5.0.10.0	d070_A12_A1_unplB	dA12_valB_070	4	21	300	300	0	0	1354	23	0	1	blank2r.bmp	0	1	+	0	8	C4r.bmp	500	1	blank2r.bmp	800	1	NPLW	800	1	blank2r.bmp	870	2	geizig	870	1	!	1200	1	blank2r.bmp	1330	0	0	0
013118	11:47:59	1	5	5.0.10.0	d070_A12_A2_unplB	dA12_valB_070	4	22	300	300	0	0	573	23	1	1	blank2r.bmp	0	1	+	0	3	B3r.bmp	500	1	blank2r.bmp	800	1	DHJF	800	1	blank2r.bmp	870	5	kummer	870	1	!	1200	1	blank2r.bmp	1330	0	0	0
013118	11:47:59	1	5	5.0.10.0	d070_A12_A1_unplB	dA12_valB_070	4	23	300	300	0	0	136	18	1	1	blank2r.bmp	0	1	+	0	6	C2r.bmp	500	1	blank2r.bmp	800	1	NPLW	800	1	blank2r.bmp	870	3	ärger	870	1	!	1200	1	blank2r.bmp	1330	0	0	0
013118	11:47:59	1	5	5.0.10.0	d070_A12_A1_pleasB	dA12_valB_070	4	24	300	300	0	0	233	23	0	1	blank2r.bmp	0	1	+	0	4	B4r.bmp	500	1	blank2r.bmp	800	1	NPLW	800	1	blank2r.bmp	870	3	kuss	870	1	!	1200	1	blank2r.bmp	1330	0	0	0
013118	11:47:59	1	5	5.0.10.0	d070_A12_A2_unplB	dA12_valB_070	4	25	300	300	0	0	115	18	0	1	blank2r.bmp	0	1	+	0	8	C4r.bmp	500	1	blank2r.bmp	800	1	DHJF	800	1	blank2r.bmp	870	4	böse	870	1	!	1200	1	blank2r.bmp	1330	0	0	0
013118	11:47:59	1	5	5.0.10.0	d070_A12_A1_pleasB	dA12_valB_070	4	26	300	300	0	0	77	23	0	1	blank2r.bmp	0	1	+	0	6	C2r.bmp	500	1	blank2r.bmp	800	1	NPLW	800	1	blank2r.bmp	870	4	treu	870	1	!	1200	1	blank2r.bmp	1330	0	0	0
013118	11:47:59	1	5	5.0.10.0	d070_A12_A1_pleasB	dA12_valB_070	4	27	300	300	0	0	588	23	0	1	blank2r.bmp	0	1	+	0	5	C1r.bmp	500	1	blank2r.bmp	800	1	NPLW	800	1	blank2r.bmp	870	2	mutig	870	1	!	1200	1	blank2r.bmp	1330	0	0	0
013118	11:47:59	1	5	5.0.10.0	d070_A12_A2_unplB	dA12_valB_070	4	28	300	300	0	0	81	18	0	1	blank2r.bmp	0	1	+	0	1	B1r.bmp	500	1	blank2r.bmp	800	1	DHJF	800	1	blank2r.bmp	870	6	traurig	870	1	!	1200	1	blank2r.bmp	1330	0	0	0
013118	11:47:59	1	5	5.0.10.0	d070_A12_A1_pleasB	dA12_valB_070	4	29	300	300	0	0	270	23	0	1	blank2r.bmp	0	1	+	0	4	B4r.bmp	500	1	blank2r.bmp	800	1	NPLW	800	1	blank2r.bmp	870	5	begabt	870	1	!	1200	1	blank2r.bmp	1330	0	0	0
013118	11:47:59	1	5	5.0.10.0	d070_A12_A2_pleasB	dA12_valB_070	4	30	300	300	0	0	162	23	1	1	blank2r.bmp	0	1	+	0	7	C3r.bmp	500	1	blank2r.bmp	800	1	DHJF	800	1	blank2r.bmp	870	6	kreativ	870	1	!	1200	1	blank2r.bmp	1330	0	0	0
013118	11:47:59	1	5	5.0.10.0	d070_A12_A2_pleasB	dA12_valB_070	4	31	300	300	0	0	231	23	1	1	blank2r.bmp	0	1	+	0	2	B2r.bmp	500	1	blank2r.bmp	800	1	DHJF	800	1	blank2r.bmp	870	3	kuss	870	1	!	1200	1	blank2r.bmp	1330	0	0	0
013118	11:47:59	1	5	5.0.10.0	d070_A12_A1_unplB	dA12_valB_070	4	32	300	300	0	0	84	18	1	1	blank2r.bmp	0	1	+	0	3	B3r.bmp	500	1	blank2r.bmp	800	1	NPLW	800	1	blank2r.bmp	870	1	grausam	870	1	!	1200	1	blank2r.bmp	1330	0	0	0
013118	11:47:59	1	5	5.0.10.0	d070_A12_A1_unplB	dA12_valB_070	4	33	300	300	0	0	78	18	1	1	blank2r.bmp	0	1	+	0	6	C2r.bmp	500	1	blank2r.bmp	800	1	NPLW	800	1	blank2r.bmp	870	5	kummer	870	1	!	1200	1	blank2r.bmp	1330	0	0	0
013118	11:47:59	1	5	5.0.10.0	d070_A12_A1_unplB	dA12_valB_070	4	34	300	300	0	0	3110	18	1	1	blank2r.bmp	0	1	+	0	4	B4r.bmp	500	1	blank2r.bmp	800	1	NPLW	800	1	blank2r.bmp	870	2	geizig	870	1	!	1200	1	blank2r.bmp	1330	0	0	0
013118	11:47:59	1	5	5.0.10.0	d070_A12_A2_pleasB	dA12_valB_070	4	35	300	300	0	0	51	18	0	1	blank2r.bmp	0	1	+	0	2	B2r.bmp	500	1	blank2r.bmp	800	1	DHJF	800	1	blank2r.bmp	870	1	gut	870	1	!	1200	1	blank2r.bmp	1330	0	0	0
013118	11:47:59	1	5	5.0.10.0	d070_A12_A1_pleasB	dA12_valB_070	4	36	300	300	0	0	252	23	0	1	blank2r.bmp	0	1	+	0	3	B3r.bmp	500	1	blank2r.bmp	800	1	NPLW	800	1	blank2r.bmp	870	4	treu	870	1	!	1200	1	blank2r.bmp	1330	0	0	0
013118	11:47:59	1	5	5.0.10.0	d070_A12_A2_pleasB	dA12_valB_070	4	37	300	300	0	0	17	23	1	1	blank2r.bmp	0	1	+	0	8	C4r.bmp	500	1	blank2r.bmp	800	1	DHJF	800	1	blank2r.bmp	870	2	mutig	870	1	!	1200	1	blank2r.bmp	1330	0	0	0
013118	11:47:59	1	5	5.0.10.0	d070_A12_A2_unplB	dA12_valB_070	4	38	300	300	0	0	112	18	0	1	blank2r.bmp	0	1	+	0	5	C1r.bmp	500	1	blank2r.bmp	800	1	DHJF	800	1	blank2r.bmp	870	6	traurig	870	1	!	1200	1	blank2r.bmp	1330	0	0	0
013118	11:47:59	1	5	5.0.10.0	d070_A12_A2_pleasB	dA12_valB_070	4	39	300	300	0	0	97	23	1	1	blank2r.bmp	0	1	+	0	1	B1r.bmp	500	1	blank2r.bmp	800	1	DHJF	800	1	blank2r.bmp	870	6	kreativ	870	1	!	1200	1	blank2r.bmp	1330	0	0	0
013118	11:47:59	1	5	5.0.10.0	d070_A12_A2_pleasB	dA12_valB_070	4	40	300	300	0	0	94	18	0	1	blank2r.bmp	0	1	+	0	7	C3r.bmp	500	1	blank2r.bmp	800	1	DHJF	800	1	blank2r.bmp	870	1	gut	870	1	!	1200	1	blank2r.bmp	1330	0	0	0
013118	11:47:59	1	5	5.0.10.0	d070_A12_A1_unplB	dA12_valB_070	4	41	300	300	0	0	227	18	1	1	blank2r.bmp	0	1	+	0	8	C4r.bmp	500	1	blank2r.bmp	800	1	NPLW	800	1	blank2r.bmp	870	1	grausam	870	1	!	1200	1	blank2r.bmp	1330	0	0	0
013118	11:47:59	1	5	5.0.10.0	d070_A12_A1_unplB	dA12_valB_070	4	42	300	300	0	0	217	18	1	1	blank2r.bmp	0	1	+	0	3	B3r.bmp	500	1	blank2r.bmp	800	1	NPLW	800	1	blank2r.bmp	870	2	geizig	870	1	!	1200	1	blank2r.bmp	1330	0	0	0
013118	11:47:59	1	5	5.0.10.0	d070_A12_A2_pleasB	dA12_valB_070	4	43	300	300	0	0	193	23	1	1	blank2r.bmp	0	1	+	0	2	B2r.bmp	500	1	blank2r.bmp	800	1	DHJF	800	1	blank2r.bmp	870	5	begabt	870	1	!	1200	1	blank2r.bmp	1330	0	0	0
013118	11:47:59	1	5	5.0.10.0	d070_A12_A2_unplB	dA12_valB_070	4	44	300	300	0	0	376	18	0	1	blank2r.bmp	0	1	+	0	5	C1r.bmp	500	1	blank2r.bmp	800	1	DHJF	800	1	blank2r.bmp	870	4	böse	870	1	!	1200	1	blank2r.bmp	1330	0	0	0
013118	11:47:59	1	5	5.0.10.0	d070_A12_A1_pleasB	dA12_valB_070	4	45	300	300	0	0	242	18	1	1	blank2r.bmp	0	1	+	0	6	C2r.bmp	500	1	blank2r.bmp	800	1	NPLW	800	1	blank2r.bmp	870	3	kuss	870	1	!	1200	1	blank2r.bmp	1330	0	0	0
013118	11:47:59	1	5	5.0.10.0	d070_A12_A1_pleasB	dA12_valB_070	4	46	300	300	0	0	65	18	1	1	blank2r.bmp	0	1	+	0	1	B1r.bmp	500	1	blank2r.bmp	800	1	NPLW	800	1	blank2r.bmp	870	4	treu	870	1	!	1200	1	blank2r.bmp	1330	0	0	0
013118	11:47:59	1	5	5.0.10.0	d070_A12_A2_unplB	dA12_valB_070	4	47	300	300	0	0	48	18	0	1	blank2r.bmp	0	1	+	0	4	B4r.bmp	500	1	blank2r.bmp	800	1	DHJF	800	1	blank2r.bmp	870	3	ärger	870	1	!	1200	1	blank2r.bmp	1330	0	0	0
013118	11:47:59	1	5	5.0.10.0	d070_A12_A1_unplB	dA12_valB_070	4	48	300	300	0	0	73	18	1	1	blank2r.bmp	0	1	+	0	7	C3r.bmp	500	1	blank2r.bmp	800	1	NPLW	800	1	blank2r.bmp	870	5	kummer	870	1	!	1200	1	blank2r.bmp	1330	0	0	0
013118	11:47:59	1	5	5.0.10.0	dL_B12_B1_unplA	dB12_valA_pract1	6	1	300	300	0	0	2624	18	1	1	blank2r.bmp	0	1	+	0	1	B1r.bmp	500	1	blank2r.bmp	700	1	BMVZ	700	7	C3r.bmp	830	1	blank2r.bmp	870	3	töten	870	1	!	1200	1	blank2r.bmp	1330
013118	11:47:59	1	5	5.0.10.0	dL_B12_B1_unplA	dB12_valA_pract1	6	2	300	300	0	0	246	18	1	1	blank2r.bmp	0	1	+	0	8	C4r.bmp	500	1	blank2r.bmp	700	1	BMVZ	700	2	B2r.bmp	830	1	blank2r.bmp	870	6	leiden	870	1	!	1200	1	blank2r.bmp	1330
013118	11:47:59	1	5	5.0.10.0	dL_B12_B1_pleasA	dB12_valA_pract1	6	3	300	300	0	0	2887	18	1	1	blank2r.bmp	0	1	+	0	7	C3r.bmp	500	1	blank2r.bmp	700	1	BMVZ	700	8	C4r.bmp	830	1	blank2r.bmp	870	3	freund	870	1	!	1200	1	blank2r.bmp	1330
013118	11:47:59	1	5	5.0.10.0	dL_B12_B2_pleasA	dB12_valA_pract1	6	4	300	300	0	0	212	23	1	1	blank2r.bmp	0	1	+	0	3	B3r.bmp	500	1	blank2r.bmp	700	1	GKQX	700	1	B1r.bmp	830	1	blank2r.bmp	870	2	schön	870	1	!	1200	1	blank2r.bmp	1330
013118	11:47:59	1	5	5.0.10.0	dL_B12_B2_pleasA	dB12_valA_pract1	6	5	300	300	0	0	89	23	1	1	blank2r.bmp	0	1	+	0	4	B4r.bmp	500	1	blank2r.bmp	700	1	GKQX	700	3	B3r.bmp	830	1	blank2r.bmp	870	5	friedlich	870	1	!	1200	1	blank2r.bmp	1330
013118	11:47:59	1	5	5.0.10.0	dL_B12_B1_unplA	dB12_valA_pract1	6	6	300	300	0	0	32	18	1	1	blank2r.bmp	0	1	+	0	6	C2r.bmp	500	1	blank2r.bmp	700	1	BMVZ	700	5	C1r.bmp	830	1	blank2r.bmp	870	1	unfair	870	1	!	1200	1	blank2r.bmp	1330
013118	11:47:59	1	5	5.0.10.0	dL_B12_B1_pleasA	dB12_valA_pract1	6	7	300	300	0	0	179	18	1	1	blank2r.bmp	0	1	+	0	5	C1r.bmp	500	1	blank2r.bmp	700	1	BMVZ	700	4	B4r.bmp	830	1	blank2r.bmp	870	4	heiter	870	1	!	1200	1	blank2r.bmp	1330
013118	11:47:59	1	5	5.0.10.0	dL_B12_B2_unplA	dB12_valA_pract1	6	8	300	300	0	0	51	23	1	1	blank2r.bmp	0	1	+	0	2	B2r.bmp	500	1	blank2r.bmp	700	1	GKQX	700	6	C2r.bmp	830	1	blank2r.bmp	870	4	elend	870	1	!	1200	1	blank2r.bmp	1330
013118	11:47:59	1	5	5.0.10.0	dL_B12_B2_pleasA	dB12_valA_pract1	6	9	300	300	0	0	113	23	1	1	blank2r.bmp	0	1	+	0	2	B2r.bmp	500	1	blank2r.bmp	700	1	GKQX	700	7	C3r.bmp	830	1	blank2r.bmp	870	6	froh	870	1	!	1200	1	blank2r.bmp	1330
013118	11:47:59	1	5	5.0.10.0	dL_B12_B2_unplA	dB12_valA_pract1	6	10	300	300	0	0	3528	23	1	1	blank2r.bmp	0	1	+	0	3	B3r.bmp	500	1	blank2r.bmp	700	1	GKQX	700	2	B2r.bmp	830	1	blank2r.bmp	870	2	neidisch	870	1	!	1200	1	blank2r.bmp	1330
013118	11:47:59	1	5	5.0.10.0	dL_B12_B2_unplA	dB12_valA_pract1	6	11	300	300	0	0	125	23	1	1	blank2r.bmp	0	1	+	0	1	B1r.bmp	500	1	blank2r.bmp	700	1	GKQX	700	5	C1r.bmp	830	1	blank2r.bmp	870	5	schlecht	870	1	!	1200	1	blank2r.bmp	1330
013118	11:47:59	1	5	5.0.10.0	dL_B12_B1_pleasA	dB12_valA_pract1	6	12	300	300	0	0	142	18	1	1	blank2r.bmp	0	1	+	0	8	C4r.bmp	500	1	blank2r.bmp	700	1	BMVZ	700	1	B1r.bmp	830	1	blank2r.bmp	870	1	toll	870	1	!	1200	1	blank2r.bmp	1330
013118	11:47:59	1	5	5.0.10.0	dM_B12_B1_unplA	dB12_valA_pract2	7	1	300	300	0	0	1931	18	1	1	blank2r.bmp	0	1	+	0	6	C2r.bmp	500	1	blank2r.bmp	730	1	BMVZ	730	3	B3r.bmp	830	1	blank2r.bmp	870	3	töten	870	1	!	1200	1	blank2r.bmp	1330
013118	11:47:59	1	5	5.0.10.0	dM_B12_B2_unplA	dB12_valA_pract2	7	2	300	300	0	0	69	23	1	1	blank2r.bmp	0	1	+	0	4	B4r.bmp	500	1	blank2r.bmp	730	1	GKQX	730	8	C4r.bmp	830	1	blank2r.bmp	870	4	elend	870	1	!	1200	1	blank2r.bmp	1330
013118	11:47:59	1	5	5.0.10.0	dM_B12_B2_pleasA	dB12_valA_pract2	7	3	300	300	0	0	5	23	1	1	blank2r.bmp	0	1	+	0	7	C3r.bmp	500	1	blank2r.bmp	730	1	GKQX	730	6	C2r.bmp	830	1	blank2r.bmp	870	5	friedlich	870	1	!	1200	1	blank2r.bmp	1330
013118	11:47:59	1	5	5.0.10.0	dM_B12_B1_pleasA	dB12_valA_pract2	7	4	300	300	0	0	1625	18	1	1	blank2r.bmp	0	1	+	0	5	C1r.bmp	500	1	blank2r.bmp	730	1	BMVZ	730	4	B4r.bmp	830	1	blank2r.bmp	870	4	heiter	870	1	!	1200	1	blank2r.bmp	1330
013118	11:47:59	1	5	5.0.10.0	dM_B12_B1_pleasA	dB12_valA_pract2	7	5	300	300	0	0	105	18	1	1	blank2r.bmp	0	1	+	0	4	B4r.bmp	500	1	blank2r.bmp	730	1	BMVZ	730	7	C3r.bmp	830	1	blank2r.bmp	870	3	freund	870	1	!	1200	1	blank2r.bmp	1330
013118	11:47:59	1	5	5.0.10.0	dM_B12_B2_unplA	dB12_valA_pract2	7	6	300	300	0	0	75	23	1	1	blank2r.bmp	0	1	+	0	2	B2r.bmp	500	1	blank2r.bmp	730	1	GKQX	730	5	C1r.bmp	830	1	blank2r.bmp	870	5	schlecht	870	1	!	1200	1	blank2r.bmp	1330
013118	11:47:59	1	5	5.0.10.0	dM_B12_B1_unplA	dB12_valA_pract2	7	7	300	300	0	0	76	18	1	1	blank2r.bmp	0	1	+	0	5	C1r.bmp	500	1	blank2r.bmp	730	1	BMVZ	730	4	B4r.bmp	830	1	blank2r.bmp	870	6	leiden	870	1	!	1200	1	blank2r.bmp	1330
013118	11:47:59	1	5	5.0.10.0	dM_B12_B2_pleasA	dB12_valA_pract2	7	8	300	300	0	0	1188	23	1	1	blank2r.bmp	0	1	+	0	7	C3r.bmp	500	1	blank2r.bmp	730	1	GKQX	730	2	B2r.bmp	830	1	blank2r.bmp	870	1	toll	870	1	!	1200	1	blank2r.bmp	1330
013118	11:47:59	1	5	5.0.10.0	dM_B12_B2_pleasA	dB12_valA_pract2	7	9	300	300	0	0	255	23	1	1	blank2r.bmp	0	1	+	0	8	C4r.bmp	500	1	blank2r.bmp	730	1	GKQX	730	3	B3r.bmp	830	1	blank2r.bmp	870	2	schön	870	1	!	1200	1	blank2r.bmp	1330
013118	11:47:59	1	5	5.0.10.0	dM_B12_B1_unplA	dB12_valA_pract2	7	10	300	300	0	0	184	18	1	1	blank2r.bmp	0	1	+	0	3	B3r.bmp	500	1	blank2r.bmp	730	1	BMVZ	730	8	C4r.bmp	830	1	blank2r.bmp	870	1	unfair	870	1	!	1200	1	blank2r.bmp	1330
013118	11:47:59	1	5	5.0.10.0	dM_B12_B1_pleasA	dB12_valA_pract2	7	11	300	300	0	0	123	18	1	1	blank2r.bmp	0	1	+	0	1	B1r.bmp	500	1	blank2r.bmp	730	1	BMVZ	730	6	C2r.bmp	830	1	blank2r.bmp	870	6	froh	870	1	!	1200	1	blank2r.bmp	1330
013118	11:47:59	1	5	5.0.10.0	dM_B12_B2_unplA	dB12_valA_pract2	7	12	300	300	0	0	52	23	1	1	blank2r.bmp	0	1	+	0	6	C2r.bmp	500	1	blank2r.bmp	730	1	GKQX	730	1	B1r.bmp	830	1	blank2r.bmp	870	2	neidisch	870	1	!	1200	1	blank2r.bmp	1330
013118	11:47:59	1	5	5.0.10.0	d080_B12_B1_pleasA	dB12_valA_080	8	1	300	300	0	0	216	18	1	1	blank2r.bmp	0	1	+	0	2	B2r.bmp	500	1	blank2r.bmp	800	1	BMVZ	800	1	blank2r.bmp	880	4	heiter	880	1	!	1210	1	blank2r.bmp	1340	0	0	0
013118	11:47:59	1	5	5.0.10.0	d080_B12_B1_unplA	dB12_valA_080	8	2	300	300	0	0	135	18	1	1	blank2r.bmp	0	1	+	0	8	C4r.bmp	500	1	blank2r.bmp	800	1	BMVZ	800	1	blank2r.bmp	880	3	töten	880	1	!	1210	1	blank2r.bmp	1340	0	0	0
013118	11:47:59	1	5	5.0.10.0	d080_B12_B1_unplA	dB12_valA_080	8	3	300	300	0	0	99	23	0	1	blank2r.bmp	0	1	+	0	5	C1r.bmp	500	1	blank2r.bmp	800	1	BMVZ	800	1	blank2r.bmp	880	4	elend	880	1	!	1210	1	blank2r.bmp	1340	0	0	0
013118	11:47:59	1	5	5.0.10.0	d080_B12_B2_pleasA	dB12_valA_080	8	4	300	300	0	0	170	23	1	1	blank2r.bmp	0	1	+	0	3	B3r.bmp	500	1	blank2r.bmp	800	1	GKQX	800	1	blank2r.bmp	880	3	freund	880	1	!	1210	1	blank2r.bmp	1340	0	0	0
013118	11:47:59	1	5	5.0.10.0	d080_B12_B2_unplA	dB12_valA_080	8	5	300	300	0	0	283	23	1	1	blank2r.bmp	0	1	+	0	6	C2r.bmp	500	1	blank2r.bmp	800	1	GKQX	800	1	blank2r.bmp	880	2	neidisch	880	1	!	1210	1	blank2r.bmp	1340	0	0	0
013118	11:47:59	1	5	5.0.10.0	d080_B12_B2_unplA	dB12_valA_080	8	6	300	300	0	0	204	23	1	1	blank2r.bmp	0	1	+	0	7	C3r.bmp	500	1	blank2r.bmp	800	1	GKQX	800	1	blank2r.bmp	880	6	leiden	880	1	!	1210	1	blank2r.bmp	1340	0	0	0
013118	11:47:59	1	5	5.0.10.0	d080_B12_B1_unplA	dB12_valA_080	8	7	300	300	0	0	189	18	1	1	blank2r.bmp	0	1	+	0	4	B4r.bmp	500	1	blank2r.bmp	800	1	BMVZ	800	1	blank2r.bmp	880	5	schlecht	880	1	!	1210	1	blank2r.bmp	1340	0	0	0
013118	11:47:59	1	5	5.0.10.0	d080_B12_B2_unplA	dB12_valA_080	8	8	300	300	0	0	173	23	1	1	blank2r.bmp	0	1	+	0	1	B1r.bmp	500	1	blank2r.bmp	800	1	GKQX	800	1	blank2r.bmp	880	1	unfair	880	1	!	1210	1	blank2r.bmp	1340	0	0	0
013118	11:47:59	1	5	5.0.10.0	d080_B12_B1_pleasA	dB12_valA_080	8	9	300	300	0	0	122	18	1	1	blank2r.bmp	0	1	+	0	7	C3r.bmp	500	1	blank2r.bmp	800	1	BMVZ	800	1	blank2r.bmp	880	5	friedlich	880	1	!	1210	1	blank2r.bmp	1340	0	0	0
013118	11:47:59	1	5	5.0.10.0	d080_B12_B2_pleasA	dB12_valA_080	8	10	300	300	0	0	184	23	1	1	blank2r.bmp	0	1	+	0	8	C4r.bmp	500	1	blank2r.bmp	800	1	GKQX	800	1	blank2r.bmp	880	1	toll	880	1	!	1210	1	blank2r.bmp	1340	0	0	0
013118	11:47:59	1	5	5.0.10.0	d080_B12_B2_pleasA	dB12_valA_080	8	11	300	300	0	0	156	23	1	1	blank2r.bmp	0	1	+	0	2	B2r.bmp	500	1	blank2r.bmp	800	1	GKQX	800	1	blank2r.bmp	880	6	froh	880	1	!	1210	1	blank2r.bmp	1340	0	0	0
013118	11:47:59	1	5	5.0.10.0	d080_B12_B1_pleasA	dB12_valA_080	8	12	300	300	0	0	482	18	1	1	blank2r.bmp	0	1	+	0	6	C2r.bmp	500	1	blank2r.bmp	800	1	BMVZ	800	1	blank2r.bmp	880	2	schön	880	1	!	1210	1	blank2r.bmp	1340	0	0	0
013118	11:47:59	1	5	5.0.10.0	d080_B12_B2_pleasA	dB12_valA_080	8	13	300	300	0	0	658	23	1	1	blank2r.bmp	0	1	+	0	1	B1r.bmp	500	1	blank2r.bmp	800	1	GKQX	800	1	blank2r.bmp	880	2	schön	880	1	!	1210	1	blank2r.bmp	1340	0	0	0
013118	11:47:59	1	5	5.0.10.0	d080_B12_B2_unplA	dB12_valA_080	8	14	300	300	0	0	35	23	1	1	blank2r.bmp	0	1	+	0	5	C1r.bmp	500	1	blank2r.bmp	800	1	GKQX	800	1	blank2r.bmp	880	5	schlecht	880	1	!	1210	1	blank2r.bmp	1340	0	0	0
013118	11:47:59	1	5	5.0.10.0	d080_B12_B1_unplA	dB12_valA_080	8	15	300	300	0	0	243	18	1	1	blank2r.bmp	0	1	+	0	4	B4r.bmp	500	1	blank2r.bmp	800	1	BMVZ	800	1	blank2r.bmp	880	4	elend	880	1	!	1210	1	blank2r.bmp	1340	0	0	0
013118	11:47:59	1	5	5.0.10.0	d080_B12_B2_pleasA	dB12_valA_080	8	16	300	300	0	0	128	23	1	1	blank2r.bmp	0	1	+	0	3	B3r.bmp	500	1	blank2r.bmp	800	1	GKQX	800	1	blank2r.bmp	880	4	heiter	880	1	!	1210	1	blank2r.bmp	1340	0	0	0
013118	11:47:59	1	5	5.0.10.0	d080_B12_B2_pleasA	dB12_valA_080	8	17	300	300	0	0	81	23	1	1	blank2r.bmp	0	1	+	0	7	C3r.bmp	500	1	blank2r.bmp	800	1	GKQX	800	1	blank2r.bmp	880	1	toll	880	1	!	1210	1	blank2r.bmp	1340	0	0	0
013118	11:47:59	1	5	5.0.10.0	d080_B12_B2_pleasA	dB12_valA_080	8	18	300	300	0	0	128	23	1	1	blank2r.bmp	0	1	+	0	8	C4r.bmp	500	1	blank2r.bmp	800	1	GKQX	800	1	blank2r.bmp	880	3	freund	880	1	!	1210	1	blank2r.bmp	1340	0	0	0
013118	11:47:59	1	5	5.0.10.0	d080_B12_B1_unplA	dB12_valA_080	8	19	300	300	0	0	312	23	0	1	blank2r.bmp	0	1	+	0	3	B3r.bmp	500	1	blank2r.bmp	800	1	BMVZ	800	1	blank2r.bmp	880	1	unfair	880	1	!	1210	1	blank2r.bmp	1340	0	0	0
013118	11:47:59	1	5	5.0.10.0	d080_B12_B1_unplA	dB12_valA_080	8	20	300	300	0	0	1160	18	1	1	blank2r.bmp	0	1	+	0	2	B2r.bmp	500	1	blank2r.bmp	800	1	BMVZ	800	1	blank2r.bmp	880	6	leiden	880	1	!	1210	1	blank2r.bmp	1340	0	0	0
013118	11:47:59	1	5	5.0.10.0	d080_B12_B1_pleasA	dB12_valA_080	8	21	300	300	0	0	127	18	1	1	blank2r.bmp	0	1	+	0	1	B1r.bmp	500	1	blank2r.bmp	800	1	BMVZ	800	1	blank2r.bmp	880	5	friedlich	880	1	!	1210	1	blank2r.bmp	1340	0	0	0
013118	11:47:59	1	5	5.0.10.0	d080_B12_B1_unplA	dB12_valA_080	8	22	300	300	0	0	96	18	1	1	blank2r.bmp	0	1	+	0	4	B4r.bmp	500	1	blank2r.bmp	800	1	BMVZ	800	1	blank2r.bmp	880	3	töten	880	1	!	1210	1	blank2r.bmp	1340	0	0	0
013118	11:47:59	1	5	5.0.10.0	d080_B12_B2_unplA	dB12_valA_080	8	23	300	300	0	0	98	23	1	1	blank2r.bmp	0	1	+	0	5	C1r.bmp	500	1	blank2r.bmp	800	1	GKQX	800	1	blank2r.bmp	880	2	neidisch	880	1	!	1210	1	blank2r.bmp	1340	0	0	0
013118	11:47:59	1	5	5.0.10.0	d080_B12_B2_pleasA	dB12_valA_080	8	24	300	300	0	0	241	23	1	1	blank2r.bmp	0	1	+	0	6	C2r.bmp	500	1	blank2r.bmp	800	1	GKQX	800	1	blank2r.bmp	880	6	froh	880	1	!	1210	1	blank2r.bmp	1340	0	0	0
013118	11:47:59	1	5	5.0.10.0	d080_B12_B1_pleasA	dB12_valA_080	8	25	300	300	0	0	216	18	1	1	blank2r.bmp	0	1	+	0	1	B1r.bmp	500	1	blank2r.bmp	800	1	BMVZ	800	1	blank2r.bmp	880	5	friedlich	880	1	!	1210	1	blank2r.bmp	1340	0	0	0
013118	11:47:59	1	5	5.0.10.0	d080_B12_B2_unplA	dB12_valA_080	8	26	300	300	0	0	158	23	1	1	blank2r.bmp	0	1	+	0	3	B3r.bmp	500	1	blank2r.bmp	800	1	GKQX	800	1	blank2r.bmp	880	3	töten	880	1	!	1210	1	blank2r.bmp	1340	0	0	0
013118	11:47:59	1	5	5.0.10.0	d080_B12_B2_unplA	dB12_valA_080	8	27	300	300	0	0	139	23	1	1	blank2r.bmp	0	1	+	0	6	C2r.bmp	500	1	blank2r.bmp	800	1	GKQX	800	1	blank2r.bmp	880	1	unfair	880	1	!	1210	1	blank2r.bmp	1340	0	0	0
013118	11:47:59	1	5	5.0.10.0	d080_B12_B2_pleasA	dB12_valA_080	8	28	300	300	0	0	111	23	1	1	blank2r.bmp	0	1	+	0	2	B2r.bmp	500	1	blank2r.bmp	800	1	GKQX	800	1	blank2r.bmp	880	2	schön	880	1	!	1210	1	blank2r.bmp	1340	0	0	0
013118	11:47:59	1	5	5.0.10.0	d080_B12_B2_unplA	dB12_valA_080	8	29	300	300	0	0	95	23	1	1	blank2r.bmp	0	1	+	0	7	C3r.bmp	500	1	blank2r.bmp	800	1	GKQX	800	1	blank2r.bmp	880	5	schlecht	880	1	!	1210	1	blank2r.bmp	1340	0	0	0
013118	11:47:59	1	5	5.0.10.0	d080_B12_B2_unplA	dB12_valA_080	8	30	300	300	0	0	97	18	0	1	blank2r.bmp	0	1	+	0	8	C4r.bmp	500	1	blank2r.bmp	800	1	GKQX	800	1	blank2r.bmp	880	2	neidisch	880	1	!	1210	1	blank2r.bmp	1340	0	0	0
013118	11:47:59	1	5	5.0.10.0	d080_B12_B1_pleasA	dB12_valA_080	8	31	300	300	0	0	39	18	1	1	blank2r.bmp	0	1	+	0	4	B4r.bmp	500	1	blank2r.bmp	800	1	BMVZ	800	1	blank2r.bmp	880	1	toll	880	1	!	1210	1	blank2r.bmp	1340	0	0	0
013118	11:47:59	1	5	5.0.10.0	d080_B12_B1_pleasA	dB12_valA_080	8	32	300	300	0	0	108	18	1	1	blank2r.bmp	0	1	+	0	5	C1r.bmp	500	1	blank2r.bmp	800	1	BMVZ	800	1	blank2r.bmp	880	4	heiter	880	1	!	1210	1	blank2r.bmp	1340	0	0	0
013118	11:47:59	1	5	5.0.10.0	d080_B12_B1_pleasA	dB12_valA_080	8	33	300	300	0	0	216	18	1	1	blank2r.bmp	0	1	+	0	4	B4r.bmp	500	1	blank2r.bmp	800	1	BMVZ	800	1	blank2r.bmp	880	3	freund	880	1	!	1210	1	blank2r.bmp	1340	0	0	0
013118	11:47:59	1	5	5.0.10.0	d080_B12_B1_unplA	dB12_valA_080	8	34	300	300	0	0	169	18	1	1	blank2r.bmp	0	1	+	0	1	B1r.bmp	500	1	blank2r.bmp	800	1	BMVZ	800	1	blank2r.bmp	880	4	elend	880	1	!	1210	1	blank2r.bmp	1340	0	0	0
013118	11:47:59	1	5	5.0.10.0	d080_B12_B2_pleasA	dB12_valA_080	8	35	300	300	0	0	119	23	1	1	blank2r.bmp	0	1	+	0	3	B3r.bmp	500	1	blank2r.bmp	800	1	GKQX	800	1	blank2r.bmp	880	6	froh	880	1	!	1210	1	blank2r.bmp	1340	0	0	0
013118	11:47:59	1	5	5.0.10.0	d080_B12_B1_pleasA	dB12_valA_080	8	36	300	300	0	0	174	18	1	1	blank2r.bmp	0	1	+	0	6	C2r.bmp	500	1	blank2r.bmp	800	1	BMVZ	800	1	blank2r.bmp	880	3	freund	880	1	!	1210	1	blank2r.bmp	1340	0	0	0
013118	11:47:59	1	5	5.0.10.0	d080_B12_B1_unplA	dB12_valA_080	8	37	300	300	0	0	133	18	1	1	blank2r.bmp	0	1	+	0	7	C3r.bmp	500	1	blank2r.bmp	800	1	BMVZ	800	1	blank2r.bmp	880	6	leiden	880	1	!	1210	1	blank2r.bmp	1340	0	0	0
013118	11:47:59	1	5	5.0.10.0	d080_B12_B2_unplA	dB12_valA_080	8	38	300	300	0	0	39	23	1	1	blank2r.bmp	0	1	+	0	2	B2r.bmp	500	1	blank2r.bmp	800	1	GKQX	800	1	blank2r.bmp	880	2	neidisch	880	1	!	1210	1	blank2r.bmp	1340	0	0	0
013118	11:47:59	1	5	5.0.10.0	d080_B12_B1_pleasA	dB12_valA_080	8	39	300	300	0	0	154	18	1	1	blank2r.bmp	0	1	+	0	5	C1r.bmp	500	1	blank2r.bmp	800	1	BMVZ	800	1	blank2r.bmp	880	1	toll	880	1	!	1210	1	blank2r.bmp	1340	0	0	0
013118	11:47:59	1	5	5.0.10.0	d080_B12_B2_unplA	dB12_valA_080	8	40	300	300	0	0	1528	23	1	1	blank2r.bmp	0	1	+	0	8	C4r.bmp	500	1	blank2r.bmp	800	1	GKQX	800	1	blank2r.bmp	880	1	unfair	880	1	!	1210	1	blank2r.bmp	1340	0	0	0
013118	11:47:59	1	5	5.0.10.0	d080_B12_B1_unplA	dB12_valA_080	8	41	300	300	0	0	173	18	1	1	blank2r.bmp	0	1	+	0	7	C3r.bmp	500	1	blank2r.bmp	800	1	BMVZ	800	1	blank2r.bmp	880	4	elend	880	1	!	1210	1	blank2r.bmp	1340	0	0	0
013118	11:47:59	1	5	5.0.10.0	d080_B12_B1_unplA	dB12_valA_080	8	42	300	300	0	0	186	18	1	1	blank2r.bmp	0	1	+	0	6	C2r.bmp	500	1	blank2r.bmp	800	1	BMVZ	800	1	blank2r.bmp	880	5	schlecht	880	1	!	1210	1	blank2r.bmp	1340	0	0	0
013118	11:47:59	1	5	5.0.10.0	d080_B12_B2_pleasA	dB12_valA_080	8	43	300	300	0	0	152	23	1	1	blank2r.bmp	0	1	+	0	8	C4r.bmp	500	1	blank2r.bmp	800	1	GKQX	800	1	blank2r.bmp	880	2	schön	880	1	!	1210	1	blank2r.bmp	1340	0	0	0
013118	11:47:59	1	5	5.0.10.0	d080_B12_B1_pleasA	dB12_valA_080	8	44	300	300	0	0	345	18	1	1	blank2r.bmp	0	1	+	0	1	B1r.bmp	500	1	blank2r.bmp	800	1	BMVZ	800	1	blank2r.bmp	880	5	friedlich	880	1	!	1210	1	blank2r.bmp	1340	0	0	0
013118	11:47:59	1	5	5.0.10.0	d080_B12_B1_pleasA	dB12_valA_080	8	45	300	300	0	0	214	18	1	1	blank2r.bmp	0	1	+	0	4	B4r.bmp	500	1	blank2r.bmp	800	1	BMVZ	800	1	blank2r.bmp	880	6	froh	880	1	!	1210	1	blank2r.bmp	1340	0	0	0
013118	11:47:59	1	5	5.0.10.0	d080_B12_B1_unplA	dB12_valA_080	8	46	300	300	0	0	148	18	1	1	blank2r.bmp	0	1	+	0	5	C1r.bmp	500	1	blank2r.bmp	800	1	BMVZ	800	1	blank2r.bmp	880	6	leiden	880	1	!	1210	1	blank2r.bmp	1340	0	0	0
013118	11:47:59	1	5	5.0.10.0	d080_B12_B2_pleasA	dB12_valA_080	8	47	300	300	0	0	226	23	1	1	blank2r.bmp	0	1	+	0	2	B2r.bmp	500	1	blank2r.bmp	800	1	GKQX	800	1	blank2r.bmp	880	4	heiter	880	1	!	1210	1	blank2r.bmp	1340	0	0	0
013118	11:47:59	1	5	5.0.10.0	d080_B12_B2_unplA	dB12_valA_080	8	48	300	300	0	0	209	23	1	1	blank2r.bmp	0	1	+	0	3	B3r.bmp	500	1	blank2r.bmp	800	1	GKQX	800	1	blank2r.bmp	880	3	töten	880	1	!	1210	1	blank2r.bmp	1340	0	0	0
013118	11:47:59	1	5	5.0.10.0	d080_B12_B1_pleasA	dB12_valA_080	9	1	300	300	0	0	131	18	1	1	blank2r.bmp	0	1	+	0	7	C3r.bmp	500	1	blank2r.bmp	800	1	BMVZ	800	1	blank2r.bmp	880	2	schön	880	1	!	1210	1	blank2r.bmp	1340	0	0	0
013118	11:47:59	1	5	5.0.10.0	d080_B12_B2_pleasA	dB12_valA_080	9	2	300	300	0	0	109	23	1	1	blank2r.bmp	0	1	+	0	3	B3r.bmp	500	1	blank2r.bmp	800	1	GKQX	800	1	blank2r.bmp	880	1	toll	880	1	!	1210	1	blank2r.bmp	1340	0	0	0
013118	11:47:59	1	5	5.0.10.0	d080_B12_B2_pleasA	dB12_valA_080	9	3	300	300	0	0	154	23	1	1	blank2r.bmp	0	1	+	0	4	B4r.bmp	500	1	blank2r.bmp	800	1	GKQX	800	1	blank2r.bmp	880	3	freund	880	1	!	1210	1	blank2r.bmp	1340	0	0	0
013118	11:47:59	1	5	5.0.10.0	d080_B12_B2_unplA	dB12_valA_080	9	4	300	300	0	0	65	23	1	1	blank2r.bmp	0	1	+	0	1	B1r.bmp	500	1	blank2r.bmp	800	1	GKQX	800	1	blank2r.bmp	880	2	neidisch	880	1	!	1210	1	blank2r.bmp	1340	0	0	0
013118	11:47:59	1	5	5.0.10.0	d080_B12_B1_pleasA	dB12_valA_080	9	5	300	300	0	0	95	18	1	1	blank2r.bmp	0	1	+	0	2	B2r.bmp	500	1	blank2r.bmp	800	1	BMVZ	800	1	blank2r.bmp	880	6	froh	880	1	!	1210	1	blank2r.bmp	1340	0	0	0
013118	11:47:59	1	5	5.0.10.0	d080_B12_B1_pleasA	dB12_valA_080	9	6	300	300	0	0	46	18	1	1	blank2r.bmp	0	1	+	0	8	C4r.bmp	500	1	blank2r.bmp	800	1	BMVZ	800	1	blank2r.bmp	880	4	heiter	880	1	!	1210	1	blank2r.bmp	1340	0	0	0
013118	11:47:59	1	5	5.0.10.0	d080_B12_B2_unplA	dB12_valA_080	9	7	300	300	0	0	70	23	1	1	blank2r.bmp	0	1	+	0	5	C1r.bmp	500	1	blank2r.bmp	800	1	GKQX	800	1	blank2r.bmp	880	1	unfair	880	1	!	1210	1	blank2r.bmp	1340	0	0	0
013118	11:47:59	1	5	5.0.10.0	d080_B12_B1_pleasA	dB12_valA_080	9	8	300	300	0	0	184	18	1	1	blank2r.bmp	0	1	+	0	6	C2r.bmp	500	1	blank2r.bmp	800	1	BMVZ	800	1	blank2r.bmp	880	5	friedlich	880	1	!	1210	1	blank2r.bmp	1340	0	0	0
013118	11:47:59	1	5	5.0.10.0	d080_B12_B1_unplA	dB12_valA_080	9	9	300	300	0	0	90	23	0	1	blank2r.bmp	0	1	+	0	3	B3r.bmp	500	1	blank2r.bmp	800	1	BMVZ	800	1	blank2r.bmp	880	6	leiden	880	1	!	1210	1	blank2r.bmp	1340	0	0	0
013118	11:47:59	1	5	5.0.10.0	d080_B12_B1_unplA	dB12_valA_080	9	10	300	300	0	0	1250	23	0	1	blank2r.bmp	0	1	+	0	7	C3r.bmp	500	1	blank2r.bmp	800	1	BMVZ	800	1	blank2r.bmp	880	4	elend	880	1	!	1210	1	blank2r.bmp	1340	0	0	0
013118	11:47:59	1	5	5.0.10.0	d080_B12_B2_pleasA	dB12_valA_080	9	11	300	300	0	0	170	23	1	1	blank2r.bmp	0	1	+	0	6	C2r.bmp	500	1	blank2r.bmp	800	1	GKQX	800	1	blank2r.bmp	880	6	froh	880	1	!	1210	1	blank2r.bmp	1340	0	0	0
013118	11:47:59	1	5	5.0.10.0	d080_B12_B1_unplA	dB12_valA_080	9	12	300	300	0	0	167	18	1	1	blank2r.bmp	0	1	+	0	5	C1r.bmp	500	1	blank2r.bmp	800	1	BMVZ	800	1	blank2r.bmp	880	3	töten	880	1	!	1210	1	blank2r.bmp	1340	0	0	0
013118	11:47:59	1	5	5.0.10.0	d080_B12_B2_pleasA	dB12_valA_080	9	13	300	300	0	0	178	23	1	1	blank2r.bmp	0	1	+	0	1	B1r.bmp	500	1	blank2r.bmp	800	1	GKQX	800	1	blank2r.bmp	880	1	toll	880	1	!	1210	1	blank2r.bmp	1340	0	0	0
013118	11:47:59	1	5	5.0.10.0	d080_B12_B2_unplA	dB12_valA_080	9	14	300	300	0	0	167	23	1	1	blank2r.bmp	0	1	+	0	4	B4r.bmp	500	1	blank2r.bmp	800	1	GKQX	800	1	blank2r.bmp	880	5	schlecht	880	1	!	1210	1	blank2r.bmp	1340	0	0	0
013118	11:47:59	1	5	5.0.10.0	d080_B12_B2_unplA	dB12_valA_080	9	15	300	300	0	0	117	23	1	1	blank2r.bmp	0	1	+	0	8	C4r.bmp	500	1	blank2r.bmp	800	1	GKQX	800	1	blank2r.bmp	880	6	leiden	880	1	!	1210	1	blank2r.bmp	1340	0	0	0
013118	11:47:59	1	5	5.0.10.0	d080_B12_B1_unplA	dB12_valA_080	9	16	300	300	0	0	60	18	1	1	blank2r.bmp	0	1	+	0	2	B2r.bmp	500	1	blank2r.bmp	800	1	BMVZ	800	1	blank2r.bmp	880	5	schlecht	880	1	!	1210	1	blank2r.bmp	1340	0	0	0
013118	11:47:59	1	5	5.0.10.0	d080_B12_B2_unplA	dB12_valA_080	9	17	300	300	0	0	101	23	1	1	blank2r.bmp	0	1	+	0	1	B1r.bmp	500	1	blank2r.bmp	800	1	GKQX	800	1	blank2r.bmp	880	3	töten	880	1	!	1210	1	blank2r.bmp	1340	0	0	0
013118	11:47:59	1	5	5.0.10.0	d080_B12_B1_pleasA	dB12_valA_080	9	18	300	300	0	0	3	18	1	1	blank2r.bmp	0	1	+	0	4	B4r.bmp	500	1	blank2r.bmp	800	1	BMVZ	800	1	blank2r.bmp	880	3	freund	880	1	!	1210	1	blank2r.bmp	1340	0	0	0
013118	11:47:59	1	5	5.0.10.0	d080_B12_B1_unplA	dB12_valA_080	9	19	300	300	0	0	693	18	1	1	blank2r.bmp	0	1	+	0	5	C1r.bmp	500	1	blank2r.bmp	800	1	BMVZ	800	1	blank2r.bmp	880	4	elend	880	1	!	1210	1	blank2r.bmp	1340	0	0	0
013118	11:47:59	1	5	5.0.10.0	d080_B12_B1_unplA	dB12_valA_080	9	20	300	300	0	0	275	23	0	1	blank2r.bmp	0	1	+	0	6	C2r.bmp	500	1	blank2r.bmp	800	1	BMVZ	800	1	blank2r.bmp	880	2	neidisch	880	1	!	1210	1	blank2r.bmp	1340	0	0	0
013118	11:47:59	1	5	5.0.10.0	d080_B12_B2_unplA	dB12_valA_080	9	21	300	300	0	0	57	23	1	1	blank2r.bmp	0	1	+	0	3	B3r.bmp	500	1	blank2r.bmp	800	1	GKQX	800	1	blank2r.bmp	880	1	unfair	880	1	!	1210	1	blank2r.bmp	1340	0	0	0
013118	11:47:59	1	5	5.0.10.0	d080_B12_B1_pleasA	dB12_valA_080	9	22	300	300	0	0	94	18	1	1	blank2r.bmp	0	1	+	0	2	B2r.bmp	500	1	blank2r.bmp	800	1	BMVZ	800	1	blank2r.bmp	880	5	friedlich	880	1	!	1210	1	blank2r.bmp	1340	0	0	0
013118	11:47:59	1	5	5.0.10.0	d080_B12_B2_pleasA	dB12_valA_080	9	23	300	300	0	0	149	23	1	1	blank2r.bmp	0	1	+	0	7	C3r.bmp	500	1	blank2r.bmp	800	1	GKQX	800	1	blank2r.bmp	880	4	heiter	880	1	!	1210	1	blank2r.bmp	1340	0	0	0
013118	11:47:59	1	5	5.0.10.0	d080_B12_B1_unplA	dB12_valA_080	9	24	300	300	0	0	125	18	1	1	blank2r.bmp	0	1	+	0	8	C4r.bmp	500	1	blank2r.bmp	800	1	BMVZ	800	1	blank2r.bmp	880	3	töten	880	1	!	1210	1	blank2r.bmp	1340	0	0	0
013118	11:47:59	1	5	5.0.10.0	d080_B12_B1_unplA	dB12_valA_080	9	25	300	300	0	0	807	23	0	1	blank2r.bmp	0	1	+	0	6	C2r.bmp	500	1	blank2r.bmp	800	1	BMVZ	800	1	blank2r.bmp	880	1	unfair	880	1	!	1210	1	blank2r.bmp	1340	0	0	0
013118	11:47:59	1	5	5.0.10.0	d080_B12_B1_unplA	dB12_valA_080	9	26	300	300	0	0	31	18	1	1	blank2r.bmp	0	1	+	0	2	B2r.bmp	500	1	blank2r.bmp	800	1	BMVZ	800	1	blank2r.bmp	880	4	elend	880	1	!	1210	1	blank2r.bmp	1340	0	0	0
013118	11:47:59	1	5	5.0.10.0	d080_B12_B1_unplA	dB12_valA_080	9	27	300	300	0	0	326	18	1	1	blank2r.bmp	0	1	+	0	5	C1r.bmp	500	1	blank2r.bmp	800	1	BMVZ	800	1	blank2r.bmp	880	5	schlecht	880	1	!	1210	1	blank2r.bmp	1340	0	0	0
013118	11:47:59	1	5	5.0.10.0	d080_B12_B2_unplA	dB12_valA_080	9	28	300	300	0	0	1749	23	1	1	blank2r.bmp	0	1	+	0	1	B1r.bmp	500	1	blank2r.bmp	800	1	GKQX	800	1	blank2r.bmp	880	2	neidisch	880	1	!	1210	1	blank2r.bmp	1340	0	0	0
013118	11:47:59	1	5	5.0.10.0	d080_B12_B1_unplA	dB12_valA_080	9	29	300	300	0	0	180	18	1	1	blank2r.bmp	0	1	+	0	4	B4r.bmp	500	1	blank2r.bmp	800	1	BMVZ	800	1	blank2r.bmp	880	6	leiden	880	1	!	1210	1	blank2r.bmp	1340	0	0	0
013118	11:47:59	1	5	5.0.10.0	d080_B12_B2_pleasA	dB12_valA_080	9	30	300	300	0	0	208	23	1	1	blank2r.bmp	0	1	+	0	7	C3r.bmp	500	1	blank2r.bmp	800	1	GKQX	800	1	blank2r.bmp	880	2	schön	880	1	!	1210	1	blank2r.bmp	1340	0	0	0
013118	11:47:59	1	5	5.0.10.0	d080_B12_B1_unplA	dB12_valA_080	9	31	300	300	0	0	170	18	1	1	blank2r.bmp	0	1	+	0	8	C4r.bmp	500	1	blank2r.bmp	800	1	BMVZ	800	1	blank2r.bmp	880	2	neidisch	880	1	!	1210	1	blank2r.bmp	1340	0	0	0
013118	11:47:59	1	5	5.0.10.0	d080_B12_B2_unplA	dB12_valA_080	9	32	300	300	0	0	114	23	1	1	blank2r.bmp	0	1	+	0	3	B3r.bmp	500	1	blank2r.bmp	800	1	GKQX	800	1	blank2r.bmp	880	4	elend	880	1	!	1210	1	blank2r.bmp	1340	0	0	0
013118	11:47:59	1	5	5.0.10.0	d080_B12_B1_pleasA	dB12_valA_080	9	33	300	300	0	0	100	18	1	1	blank2r.bmp	0	1	+	0	7	C3r.bmp	500	1	blank2r.bmp	800	1	BMVZ	800	1	blank2r.bmp	880	5	friedlich	880	1	!	1210	1	blank2r.bmp	1340	0	0	0
013118	11:47:59	1	5	5.0.10.0	d080_B12_B1_pleasA	dB12_valA_080	9	34	300	300	0	0	54	18	1	1	blank2r.bmp	0	1	+	0	2	B2r.bmp	500	1	blank2r.bmp	800	1	BMVZ	800	1	blank2r.bmp	880	2	schön	880	1	!	1210	1	blank2r.bmp	1340	0	0	0
013118	11:47:59	1	5	5.0.10.0	d080_B12_B2_unplA	dB12_valA_080	9	35	300	300	0	0	96	23	1	1	blank2r.bmp	0	1	+	0	1	B1r.bmp	500	1	blank2r.bmp	800	1	GKQX	800	1	blank2r.bmp	880	6	leiden	880	1	!	1210	1	blank2r.bmp	1340	0	0	0
013118	11:47:59	1	5	5.0.10.0	d080_B12_B1_pleasA	dB12_valA_080	9	36	300	300	0	0	1721	18	1	1	blank2r.bmp	0	1	+	0	4	B4r.bmp	500	1	blank2r.bmp	800	1	BMVZ	800	1	blank2r.bmp	880	4	heiter	880	1	!	1210	1	blank2r.bmp	1340	0	0	0
013118	11:47:59	1	5	5.0.10.0	d080_B12_B2_pleasA	dB12_valA_080	9	37	300	300	0	0	27	23	1	1	blank2r.bmp	0	1	+	0	3	B3r.bmp	500	1	blank2r.bmp	800	1	GKQX	800	1	blank2r.bmp	880	3	freund	880	1	!	1210	1	blank2r.bmp	1340	0	0	0
013118	11:47:59	1	5	5.0.10.0	d080_B12_B2_unplA	dB12_valA_080	9	38	300	300	0	0	200	23	1	1	blank2r.bmp	0	1	+	0	5	C1r.bmp	500	1	blank2r.bmp	800	1	GKQX	800	1	blank2r.bmp	880	5	schlecht	880	1	!	1210	1	blank2r.bmp	1340	0	0	0
013118	11:47:59	1	5	5.0.10.0	d080_B12_B1_pleasA	dB12_valA_080	9	39	300	300	0	0	1111	18	1	1	blank2r.bmp	0	1	+	0	6	C2r.bmp	500	1	blank2r.bmp	800	1	BMVZ	800	1	blank2r.bmp	880	6	froh	880	1	!	1210	1	blank2r.bmp	1340	0	0	0
013118	11:47:59	1	5	5.0.10.0	d080_B12_B2_pleasA	dB12_valA_080	9	40	300	300	0	0	279	23	1	1	blank2r.bmp	0	1	+	0	8	C4r.bmp	500	1	blank2r.bmp	800	1	GKQX	800	1	blank2r.bmp	880	1	toll	880	1	!	1210	1	blank2r.bmp	1340	0	0	0
013118	11:47:59	1	5	5.0.10.0	d080_B12_B1_pleasA	dB12_valA_080	9	41	300	300	0	0	145	18	1	1	blank2r.bmp	0	1	+	0	1	B1r.bmp	500	1	blank2r.bmp	800	1	BMVZ	800	1	blank2r.bmp	880	2	schön	880	1	!	1210	1	blank2r.bmp	1340	0	0	0
013118	11:47:59	1	5	5.0.10.0	d080_B12_B2_pleasA	dB12_valA_080	9	42	300	300	0	0	183	23	1	1	blank2r.bmp	0	1	+	0	4	B4r.bmp	500	1	blank2r.bmp	800	1	GKQX	800	1	blank2r.bmp	880	1	toll	880	1	!	1210	1	blank2r.bmp	1340	0	0	0
013118	11:47:59	1	5	5.0.10.0	d080_B12_B1_pleasA	dB12_valA_080	9	43	300	300	0	0	102	18	1	1	blank2r.bmp	0	1	+	0	6	C2r.bmp	500	1	blank2r.bmp	800	1	BMVZ	800	1	blank2r.bmp	880	3	freund	880	1	!	1210	1	blank2r.bmp	1340	0	0	0
013118	11:47:59	1	5	5.0.10.0	d080_B12_B2_pleasA	dB12_valA_080	9	44	300	300	0	0	46	23	1	1	blank2r.bmp	0	1	+	0	7	C3r.bmp	500	1	blank2r.bmp	800	1	GKQX	800	1	blank2r.bmp	880	4	heiter	880	1	!	1210	1	blank2r.bmp	1340	0	0	0
013118	11:47:59	1	5	5.0.10.0	d080_B12_B2_pleasA	dB12_valA_080	9	45	300	300	0	0	137	23	1	1	blank2r.bmp	0	1	+	0	3	B3r.bmp	500	1	blank2r.bmp	800	1	GKQX	800	1	blank2r.bmp	880	6	froh	880	1	!	1210	1	blank2r.bmp	1340	0	0	0
013118	11:47:59	1	5	5.0.10.0	d080_B12_B2_pleasA	dB12_valA_080	9	46	300	300	0	0	145	23	1	1	blank2r.bmp	0	1	+	0	8	C4r.bmp	500	1	blank2r.bmp	800	1	GKQX	800	1	blank2r.bmp	880	5	friedlich	880	1	!	1210	1	blank2r.bmp	1340	0	0	0
013118	11:47:59	1	5	5.0.10.0	d080_B12_B2_unplA	dB12_valA_080	9	47	300	300	0	0	149	23	1	1	blank2r.bmp	0	1	+	0	2	B2r.bmp	500	1	blank2r.bmp	800	1	GKQX	800	1	blank2r.bmp	880	1	unfair	880	1	!	1210	1	blank2r.bmp	1340	0	0	0
013118	11:47:59	1	5	5.0.10.0	d080_B12_B2_unplA	dB12_valA_080	9	48	300	300	0	0	72	23	1	1	blank2r.bmp	0	1	+	0	5	C1r.bmp	500	1	blank2r.bmp	800	1	GKQX	800	1	blank2r.bmp	880	3	töten	880	1	!	1210	1	blank2r.bmp	1340	0	0	0
013118	11:47:59	1	5	5.0.10.0	endtrial	endblock	10	1	300	300	0	0	63043	21	0	0	0	0	0	0	0	0	0	0	0	0	0	0	0	0	0	0	0	0	0	0	0	0	0	0	0	0	0	0	0
