date	time	group	subject	build	trialcode	blockcode	blocknum	trialnum	pretrialpause	posttrialpause	trialduration	trialtimeout	latency	response	correct	stimulusnumber1	stimulusitem1	stimulusonset1	stimulusnumber2	stimulusitem2	stimulusonset2	stimulusnumber3	stimulusitem3	stimulusonset3	stimulusnumber4	stimulusitem4	stimulusonset4	stimulusnumber5	stimulusitem5	stimulusonset5	stimulusnumber6	stimulusitem6	stimulusonset6	stimulusnumber7	stimulusitem7	stimulusonset7	stimulusnumber8	stimulusitem8	stimulusonset8	stimulusnumber9	stimulusitem9	stimulusonset9	stimulusnumber10	stimulusitem10	stimulusonset10
020618	15:32:41	1	22	5.0.10.0	dL_A21_A2_pleasB	dA21_valB_pract1	1	1	300	300	0	0	9767	18	1	1	blank2r.bmp	0	1	+	0	5	C1r.bmp	500	1	blank2r.bmp	700	1	DHJF	700	8	C4r.bmp	830	1	blank2r.bmp	870	6	kreativ	870	1	!	1200	1	blank2r.bmp	1330
020618	15:32:41	1	22	5.0.10.0	dL_A21_A2_pleasB	dA21_valB_pract1	1	2	300	300	0	0	1299	18	1	1	blank2r.bmp	0	1	+	0	3	B3r.bmp	500	1	blank2r.bmp	700	1	DHJF	700	2	B2r.bmp	830	1	blank2r.bmp	870	4	treu	870	1	!	1200	1	blank2r.bmp	1330
020618	15:32:41	1	22	5.0.10.0	dL_A21_A2_unplB	dA21_valB_pract1	1	3	300	300	0	0	1310	18	1	1	blank2r.bmp	0	1	+	0	4	B4r.bmp	500	1	blank2r.bmp	700	1	DHJF	700	5	C1r.bmp	830	1	blank2r.bmp	870	3	ärger	870	1	!	1200	1	blank2r.bmp	1330
020618	15:32:41	1	22	5.0.10.0	dL_A21_A1_unplB	dA21_valB_pract1	1	4	300	300	0	0	1157	23	1	1	blank2r.bmp	0	1	+	0	7	C3r.bmp	500	1	blank2r.bmp	700	1	NPLW	700	4	B4r.bmp	830	1	blank2r.bmp	870	5	kummer	870	1	!	1200	1	blank2r.bmp	1330
020618	15:32:41	1	22	5.0.10.0	dL_A21_A1_unplB	dA21_valB_pract1	1	5	300	300	0	0	5316	23	1	1	blank2r.bmp	0	1	+	0	8	C4r.bmp	500	1	blank2r.bmp	700	1	NPLW	700	7	C3r.bmp	830	1	blank2r.bmp	870	2	geizig	870	1	!	1200	1	blank2r.bmp	1330
020618	15:32:41	1	22	5.0.10.0	dL_A21_A2_unplB	dA21_valB_pract1	1	6	300	300	0	0	161	18	1	1	blank2r.bmp	0	1	+	0	6	C2r.bmp	500	1	blank2r.bmp	700	1	DHJF	700	1	B1r.bmp	830	1	blank2r.bmp	870	4	böse	870	1	!	1200	1	blank2r.bmp	1330
020618	15:32:41	1	22	5.0.10.0	dL_A21_A1_pleasB	dA21_valB_pract1	1	7	300	300	0	0	104	23	1	1	blank2r.bmp	0	1	+	0	1	B1r.bmp	500	1	blank2r.bmp	700	1	NPLW	700	3	B3r.bmp	830	1	blank2r.bmp	870	5	begabt	870	1	!	1200	1	blank2r.bmp	1330
020618	15:32:41	1	22	5.0.10.0	dL_A21_A2_unplB	dA21_valB_pract1	1	8	300	300	0	0	183	18	1	1	blank2r.bmp	0	1	+	0	2	B2r.bmp	500	1	blank2r.bmp	700	1	DHJF	700	6	C2r.bmp	830	1	blank2r.bmp	870	1	grausam	870	1	!	1200	1	blank2r.bmp	1330
020618	15:32:41	1	22	5.0.10.0	dL_A21_A1_pleasB	dA21_valB_pract1	1	9	300	300	0	0	67	23	1	1	blank2r.bmp	0	1	+	0	3	B3r.bmp	500	1	blank2r.bmp	700	1	NPLW	700	5	C1r.bmp	830	1	blank2r.bmp	870	3	kuss	870	1	!	1200	1	blank2r.bmp	1330
020618	15:32:41	1	22	5.0.10.0	dL_A21_A1_pleasB	dA21_valB_pract1	1	10	300	300	0	0	1911	23	1	1	blank2r.bmp	0	1	+	0	7	C3r.bmp	500	1	blank2r.bmp	700	1	NPLW	700	1	B1r.bmp	830	1	blank2r.bmp	870	1	gut	870	1	!	1200	1	blank2r.bmp	1330
020618	15:32:41	1	22	5.0.10.0	dL_A21_A2_pleasB	dA21_valB_pract1	1	11	300	300	0	0	1068	23	0	1	blank2r.bmp	0	1	+	0	5	C1r.bmp	500	1	blank2r.bmp	700	1	DHJF	700	4	B4r.bmp	830	1	blank2r.bmp	870	2	mutig	870	1	!	1200	1	blank2r.bmp	1330
020618	15:32:41	1	22	5.0.10.0	dL_A21_A1_unplB	dA21_valB_pract1	1	12	300	300	0	0	1321	23	1	1	blank2r.bmp	0	1	+	0	6	C2r.bmp	500	1	blank2r.bmp	700	1	NPLW	700	7	C3r.bmp	830	1	blank2r.bmp	870	6	traurig	870	1	!	1200	1	blank2r.bmp	1330
020618	15:32:41	1	22	5.0.10.0	dM_A21_A2_pleasB	dA21_valB_pract2	2	1	300	300	0	0	2037	18	1	1	blank2r.bmp	0	1	+	0	8	C4r.bmp	500	1	blank2r.bmp	730	1	DHJF	730	6	C2r.bmp	830	1	blank2r.bmp	870	1	gut	870	1	!	1200	1	blank2r.bmp	1330
020618	15:32:41	1	22	5.0.10.0	dM_A21_A1_unplB	dA21_valB_pract2	2	2	300	300	0	0	665	23	1	1	blank2r.bmp	0	1	+	0	4	B4r.bmp	500	1	blank2r.bmp	730	1	NPLW	730	3	B3r.bmp	830	1	blank2r.bmp	870	1	grausam	870	1	!	1200	1	blank2r.bmp	1330
020618	15:32:41	1	22	5.0.10.0	dM_A21_A2_unplB	dA21_valB_pract2	2	3	300	300	0	0	243	18	1	1	blank2r.bmp	0	1	+	0	2	B2r.bmp	500	1	blank2r.bmp	730	1	DHJF	730	8	C4r.bmp	830	1	blank2r.bmp	870	2	geizig	870	1	!	1200	1	blank2r.bmp	1330
020618	15:32:41	1	22	5.0.10.0	dM_A21_A1_pleasB	dA21_valB_pract2	2	4	300	300	0	0	206	23	1	1	blank2r.bmp	0	1	+	0	1	B1r.bmp	500	1	blank2r.bmp	730	1	NPLW	730	2	B2r.bmp	830	1	blank2r.bmp	870	4	treu	870	1	!	1200	1	blank2r.bmp	1330
020618	15:32:41	1	22	5.0.10.0	dM_A21_A2_pleasB	dA21_valB_pract2	2	5	300	300	0	0	591	23	0	1	blank2r.bmp	0	1	+	0	4	B4r.bmp	500	1	blank2r.bmp	730	1	DHJF	730	2	B2r.bmp	830	1	blank2r.bmp	870	5	begabt	870	1	!	1200	1	blank2r.bmp	1330
020618	15:32:41	1	22	5.0.10.0	dM_A21_A1_unplB	dA21_valB_pract2	2	6	300	300	0	0	464	23	1	1	blank2r.bmp	0	1	+	0	5	C1r.bmp	500	1	blank2r.bmp	730	1	NPLW	730	4	B4r.bmp	830	1	blank2r.bmp	870	3	ärger	870	1	!	1200	1	blank2r.bmp	1330
020618	15:32:41	1	22	5.0.10.0	dM_A21_A2_pleasB	dA21_valB_pract2	2	7	300	300	0	0	474	18	1	1	blank2r.bmp	0	1	+	0	7	C3r.bmp	500	1	blank2r.bmp	730	1	DHJF	730	1	B1r.bmp	830	1	blank2r.bmp	870	6	kreativ	870	1	!	1200	1	blank2r.bmp	1330
020618	15:32:41	1	22	5.0.10.0	dM_A21_A2_unplB	dA21_valB_pract2	2	8	300	300	0	0	488	18	1	1	blank2r.bmp	0	1	+	0	6	C2r.bmp	500	1	blank2r.bmp	730	1	DHJF	730	8	C4r.bmp	830	1	blank2r.bmp	870	6	traurig	870	1	!	1200	1	blank2r.bmp	1330
020618	15:32:41	1	22	5.0.10.0	dM_A21_A1_pleasB	dA21_valB_pract2	2	9	300	300	0	0	243	23	1	1	blank2r.bmp	0	1	+	0	1	B1r.bmp	500	1	blank2r.bmp	730	1	NPLW	730	7	C3r.bmp	830	1	blank2r.bmp	870	3	kuss	870	1	!	1200	1	blank2r.bmp	1330
020618	15:32:41	1	22	5.0.10.0	dM_A21_A2_unplB	dA21_valB_pract2	2	10	300	300	0	0	206	18	1	1	blank2r.bmp	0	1	+	0	2	B2r.bmp	500	1	blank2r.bmp	730	1	DHJF	730	3	B3r.bmp	830	1	blank2r.bmp	870	5	kummer	870	1	!	1200	1	blank2r.bmp	1330
020618	15:32:41	1	22	5.0.10.0	dM_A21_A1_unplB	dA21_valB_pract2	2	11	300	300	0	0	1529	23	1	1	blank2r.bmp	0	1	+	0	3	B3r.bmp	500	1	blank2r.bmp	730	1	NPLW	730	5	C1r.bmp	830	1	blank2r.bmp	870	4	böse	870	1	!	1200	1	blank2r.bmp	1330
020618	15:32:41	1	22	5.0.10.0	dM_A21_A1_pleasB	dA21_valB_pract2	2	12	300	300	0	0	736	23	1	1	blank2r.bmp	0	1	+	0	8	C4r.bmp	500	1	blank2r.bmp	730	1	NPLW	730	6	C2r.bmp	830	1	blank2r.bmp	870	2	mutig	870	1	!	1200	1	blank2r.bmp	1330
020618	15:32:41	1	22	5.0.10.0	d070_A21_A2_pleasB	dA21_valB_070	3	1	300	300	0	0	2587	23	0	1	blank2r.bmp	0	1	+	0	6	C2r.bmp	500	1	blank2r.bmp	800	1	DHJF	800	1	blank2r.bmp	870	5	begabt	870	1	!	1200	1	blank2r.bmp	1330	0	0	0
020618	15:32:41	1	22	5.0.10.0	d070_A21_A1_pleasB	dA21_valB_070	3	2	300	300	0	0	377	18	0	1	blank2r.bmp	0	1	+	0	2	B2r.bmp	500	1	blank2r.bmp	800	1	NPLW	800	1	blank2r.bmp	870	2	mutig	870	1	!	1200	1	blank2r.bmp	1330	0	0	0
020618	15:32:41	1	22	5.0.10.0	d070_A21_A1_pleasB	dA21_valB_070	3	3	300	300	0	0	202	23	1	1	blank2r.bmp	0	1	+	0	7	C3r.bmp	500	1	blank2r.bmp	800	1	NPLW	800	1	blank2r.bmp	870	4	treu	870	1	!	1200	1	blank2r.bmp	1330	0	0	0
020618	15:32:41	1	22	5.0.10.0	d070_A21_A1_unplB	dA21_valB_070	3	4	300	300	0	0	357	23	1	1	blank2r.bmp	0	1	+	0	1	B1r.bmp	500	1	blank2r.bmp	800	1	NPLW	800	1	blank2r.bmp	870	5	kummer	870	1	!	1200	1	blank2r.bmp	1330	0	0	0
020618	15:32:41	1	22	5.0.10.0	d070_A21_A1_unplB	dA21_valB_070	3	5	300	300	0	0	600	18	0	1	blank2r.bmp	0	1	+	0	5	C1r.bmp	500	1	blank2r.bmp	800	1	NPLW	800	1	blank2r.bmp	870	4	böse	870	1	!	1200	1	blank2r.bmp	1330	0	0	0
020618	15:32:41	1	22	5.0.10.0	d070_A21_A2_unplB	dA21_valB_070	3	6	300	300	0	0	294	18	1	1	blank2r.bmp	0	1	+	0	8	C4r.bmp	500	1	blank2r.bmp	800	1	DHJF	800	1	blank2r.bmp	870	1	grausam	870	1	!	1200	1	blank2r.bmp	1330	0	0	0
020618	15:32:41	1	22	5.0.10.0	d070_A21_A2_unplB	dA21_valB_070	3	7	300	300	0	0	584	23	0	1	blank2r.bmp	0	1	+	0	3	B3r.bmp	500	1	blank2r.bmp	800	1	DHJF	800	1	blank2r.bmp	870	2	geizig	870	1	!	1200	1	blank2r.bmp	1330	0	0	0
020618	15:32:41	1	22	5.0.10.0	d070_A21_A1_unplB	dA21_valB_070	3	8	300	300	0	0	675	18	0	1	blank2r.bmp	0	1	+	0	4	B4r.bmp	500	1	blank2r.bmp	800	1	NPLW	800	1	blank2r.bmp	870	6	traurig	870	1	!	1200	1	blank2r.bmp	1330	0	0	0
020618	15:32:41	1	22	5.0.10.0	d070_A21_A2_unplB	dA21_valB_070	3	9	300	300	0	0	820	18	1	1	blank2r.bmp	0	1	+	0	5	C1r.bmp	500	1	blank2r.bmp	800	1	DHJF	800	1	blank2r.bmp	870	3	ärger	870	1	!	1200	1	blank2r.bmp	1330	0	0	0
020618	15:32:41	1	22	5.0.10.0	d070_A21_A2_unplB	dA21_valB_070	3	10	300	300	0	0	506	23	0	1	blank2r.bmp	0	1	+	0	3	B3r.bmp	500	1	blank2r.bmp	800	1	DHJF	800	1	blank2r.bmp	870	3	ärger	870	1	!	1200	1	blank2r.bmp	1330	0	0	0
020618	15:32:41	1	22	5.0.10.0	d070_A21_A1_pleasB	dA21_valB_070	3	11	300	300	0	0	294	23	1	1	blank2r.bmp	0	1	+	0	8	C4r.bmp	500	1	blank2r.bmp	800	1	NPLW	800	1	blank2r.bmp	870	3	kuss	870	1	!	1200	1	blank2r.bmp	1330	0	0	0
020618	15:32:41	1	22	5.0.10.0	d070_A21_A1_unplB	dA21_valB_070	3	12	300	300	0	0	374	18	0	1	blank2r.bmp	0	1	+	0	1	B1r.bmp	500	1	blank2r.bmp	800	1	NPLW	800	1	blank2r.bmp	870	2	geizig	870	1	!	1200	1	blank2r.bmp	1330	0	0	0
020618	15:32:41	1	22	5.0.10.0	d070_A21_A1_pleasB	dA21_valB_070	3	13	300	300	0	0	616	23	1	1	blank2r.bmp	0	1	+	0	7	C3r.bmp	500	1	blank2r.bmp	800	1	NPLW	800	1	blank2r.bmp	870	1	gut	870	1	!	1200	1	blank2r.bmp	1330	0	0	0
020618	15:32:41	1	22	5.0.10.0	d070_A21_A2_pleasB	dA21_valB_070	3	14	300	300	0	0	254	23	0	1	blank2r.bmp	0	1	+	0	4	B4r.bmp	500	1	blank2r.bmp	800	1	DHJF	800	1	blank2r.bmp	870	6	kreativ	870	1	!	1200	1	blank2r.bmp	1330	0	0	0
020618	15:32:41	1	22	5.0.10.0	d070_A21_A2_pleasB	dA21_valB_070	3	15	300	300	0	0	187	18	1	1	blank2r.bmp	0	1	+	0	6	C2r.bmp	500	1	blank2r.bmp	800	1	DHJF	800	1	blank2r.bmp	870	4	treu	870	1	!	1200	1	blank2r.bmp	1330	0	0	0
020618	15:32:41	1	22	5.0.10.0	d070_A21_A1_unplB	dA21_valB_070	3	16	300	300	0	0	112	18	0	1	blank2r.bmp	0	1	+	0	2	B2r.bmp	500	1	blank2r.bmp	800	1	NPLW	800	1	blank2r.bmp	870	4	böse	870	1	!	1200	1	blank2r.bmp	1330	0	0	0
020618	15:32:41	1	22	5.0.10.0	d070_A21_A1_pleasB	dA21_valB_070	3	17	300	300	0	0	262	18	0	1	blank2r.bmp	0	1	+	0	2	B2r.bmp	500	1	blank2r.bmp	800	1	NPLW	800	1	blank2r.bmp	870	3	kuss	870	1	!	1200	1	blank2r.bmp	1330	0	0	0
020618	15:32:41	1	22	5.0.10.0	d070_A21_A2_unplB	dA21_valB_070	3	18	300	300	0	0	263	23	0	1	blank2r.bmp	0	1	+	0	7	C3r.bmp	500	1	blank2r.bmp	800	1	DHJF	800	1	blank2r.bmp	870	5	kummer	870	1	!	1200	1	blank2r.bmp	1330	0	0	0
020618	15:32:41	1	22	5.0.10.0	d070_A21_A1_unplB	dA21_valB_070	3	19	300	300	0	0	738	23	1	1	blank2r.bmp	0	1	+	0	4	B4r.bmp	500	1	blank2r.bmp	800	1	NPLW	800	1	blank2r.bmp	870	1	grausam	870	1	!	1200	1	blank2r.bmp	1330	0	0	0
020618	15:32:41	1	22	5.0.10.0	d070_A21_A2_unplB	dA21_valB_070	3	20	300	300	0	0	805	18	1	1	blank2r.bmp	0	1	+	0	5	C1r.bmp	500	1	blank2r.bmp	800	1	DHJF	800	1	blank2r.bmp	870	6	traurig	870	1	!	1200	1	blank2r.bmp	1330	0	0	0
020618	15:32:41	1	22	5.0.10.0	d070_A21_A2_pleasB	dA21_valB_070	3	21	300	300	0	0	415	23	0	1	blank2r.bmp	0	1	+	0	1	B1r.bmp	500	1	blank2r.bmp	800	1	DHJF	800	1	blank2r.bmp	870	1	gut	870	1	!	1200	1	blank2r.bmp	1330	0	0	0
020618	15:32:41	1	22	5.0.10.0	d070_A21_A2_pleasB	dA21_valB_070	3	22	300	300	0	0	688	23	0	1	blank2r.bmp	0	1	+	0	6	C2r.bmp	500	1	blank2r.bmp	800	1	DHJF	800	1	blank2r.bmp	870	6	kreativ	870	1	!	1200	1	blank2r.bmp	1330	0	0	0
020618	15:32:41	1	22	5.0.10.0	d070_A21_A2_pleasB	dA21_valB_070	3	23	300	300	0	0	338	23	0	1	blank2r.bmp	0	1	+	0	3	B3r.bmp	500	1	blank2r.bmp	800	1	DHJF	800	1	blank2r.bmp	870	2	mutig	870	1	!	1200	1	blank2r.bmp	1330	0	0	0
020618	15:32:41	1	22	5.0.10.0	d070_A21_A1_pleasB	dA21_valB_070	3	24	300	300	0	0	957	23	1	1	blank2r.bmp	0	1	+	0	8	C4r.bmp	500	1	blank2r.bmp	800	1	NPLW	800	1	blank2r.bmp	870	5	begabt	870	1	!	1200	1	blank2r.bmp	1330	0	0	0
020618	15:32:41	1	22	5.0.10.0	d070_A21_A2_unplB	dA21_valB_070	3	25	300	300	0	0	836	23	0	1	blank2r.bmp	0	1	+	0	4	B4r.bmp	500	1	blank2r.bmp	800	1	DHJF	800	1	blank2r.bmp	870	5	kummer	870	1	!	1200	1	blank2r.bmp	1330	0	0	0
020618	15:32:41	1	22	5.0.10.0	d070_A21_A2_unplB	dA21_valB_070	3	26	300	300	0	0	541	23	0	1	blank2r.bmp	0	1	+	0	8	C4r.bmp	500	1	blank2r.bmp	800	1	DHJF	800	1	blank2r.bmp	870	1	grausam	870	1	!	1200	1	blank2r.bmp	1330	0	0	0
020618	15:32:41	1	22	5.0.10.0	d070_A21_A1_pleasB	dA21_valB_070	3	27	300	300	0	0	602	18	0	1	blank2r.bmp	0	1	+	0	5	C1r.bmp	500	1	blank2r.bmp	800	1	NPLW	800	1	blank2r.bmp	870	3	kuss	870	1	!	1200	1	blank2r.bmp	1330	0	0	0
020618	15:32:41	1	22	5.0.10.0	d070_A21_A1_unplB	dA21_valB_070	3	28	300	300	0	0	680	18	0	1	blank2r.bmp	0	1	+	0	6	C2r.bmp	500	1	blank2r.bmp	800	1	NPLW	800	1	blank2r.bmp	870	6	traurig	870	1	!	1200	1	blank2r.bmp	1330	0	0	0
020618	15:32:41	1	22	5.0.10.0	d070_A21_A1_pleasB	dA21_valB_070	3	29	300	300	0	0	472	23	1	1	blank2r.bmp	0	1	+	0	1	B1r.bmp	500	1	blank2r.bmp	800	1	NPLW	800	1	blank2r.bmp	870	2	mutig	870	1	!	1200	1	blank2r.bmp	1330	0	0	0
020618	15:32:41	1	22	5.0.10.0	d070_A21_A2_pleasB	dA21_valB_070	3	30	300	300	0	0	476	23	0	1	blank2r.bmp	0	1	+	0	3	B3r.bmp	500	1	blank2r.bmp	800	1	DHJF	800	1	blank2r.bmp	870	1	gut	870	1	!	1200	1	blank2r.bmp	1330	0	0	0
020618	15:32:41	1	22	5.0.10.0	d070_A21_A1_pleasB	dA21_valB_070	3	31	300	300	0	0	910	18	0	1	blank2r.bmp	0	1	+	0	7	C3r.bmp	500	1	blank2r.bmp	800	1	NPLW	800	1	blank2r.bmp	870	5	begabt	870	1	!	1200	1	blank2r.bmp	1330	0	0	0
020618	15:32:41	1	22	5.0.10.0	d070_A21_A2_unplB	dA21_valB_070	3	32	300	300	0	0	368	23	0	1	blank2r.bmp	0	1	+	0	2	B2r.bmp	500	1	blank2r.bmp	800	1	DHJF	800	1	blank2r.bmp	870	4	böse	870	1	!	1200	1	blank2r.bmp	1330	0	0	0
020618	15:32:41	1	22	5.0.10.0	d070_A21_A2_pleasB	dA21_valB_070	3	33	300	300	0	0	568	23	0	1	blank2r.bmp	0	1	+	0	4	B4r.bmp	500	1	blank2r.bmp	800	1	DHJF	800	1	blank2r.bmp	870	4	treu	870	1	!	1200	1	blank2r.bmp	1330	0	0	0
020618	15:32:41	1	22	5.0.10.0	d070_A21_A2_pleasB	dA21_valB_070	3	34	300	300	0	0	461	23	0	1	blank2r.bmp	0	1	+	0	6	C2r.bmp	500	1	blank2r.bmp	800	1	DHJF	800	1	blank2r.bmp	870	6	kreativ	870	1	!	1200	1	blank2r.bmp	1330	0	0	0
020618	15:32:41	1	22	5.0.10.0	d070_A21_A2_pleasB	dA21_valB_070	3	35	300	300	0	0	924	18	1	1	blank2r.bmp	0	1	+	0	8	C4r.bmp	500	1	blank2r.bmp	800	1	DHJF	800	1	blank2r.bmp	870	5	begabt	870	1	!	1200	1	blank2r.bmp	1330	0	0	0
020618	15:32:41	1	22	5.0.10.0	d070_A21_A1_unplB	dA21_valB_070	3	36	300	300	0	0	953	23	1	1	blank2r.bmp	0	1	+	0	1	B1r.bmp	500	1	blank2r.bmp	800	1	NPLW	800	1	blank2r.bmp	870	3	ärger	870	1	!	1200	1	blank2r.bmp	1330	0	0	0
020618	15:32:41	1	22	5.0.10.0	d070_A21_A1_pleasB	dA21_valB_070	3	37	300	300	0	0	949	18	0	1	blank2r.bmp	0	1	+	0	2	B2r.bmp	500	1	blank2r.bmp	800	1	NPLW	800	1	blank2r.bmp	870	2	mutig	870	1	!	1200	1	blank2r.bmp	1330	0	0	0
020618	15:32:41	1	22	5.0.10.0	d070_A21_A2_pleasB	dA21_valB_070	3	38	300	300	0	0	957	18	1	1	blank2r.bmp	0	1	+	0	3	B3r.bmp	500	1	blank2r.bmp	800	1	DHJF	800	1	blank2r.bmp	870	4	treu	870	1	!	1200	1	blank2r.bmp	1330	0	0	0
020618	15:32:41	1	22	5.0.10.0	d070_A21_A1_unplB	dA21_valB_070	3	39	300	300	0	0	533	23	1	1	blank2r.bmp	0	1	+	0	5	C1r.bmp	500	1	blank2r.bmp	800	1	NPLW	800	1	blank2r.bmp	870	2	geizig	870	1	!	1200	1	blank2r.bmp	1330	0	0	0
020618	15:32:41	1	22	5.0.10.0	d070_A21_A1_unplB	dA21_valB_070	3	40	300	300	0	0	286	23	1	1	blank2r.bmp	0	1	+	0	7	C3r.bmp	500	1	blank2r.bmp	800	1	NPLW	800	1	blank2r.bmp	870	6	traurig	870	1	!	1200	1	blank2r.bmp	1330	0	0	0
020618	15:32:41	1	22	5.0.10.0	d070_A21_A1_unplB	dA21_valB_070	3	41	300	300	0	0	750	23	1	1	blank2r.bmp	0	1	+	0	2	B2r.bmp	500	1	blank2r.bmp	800	1	NPLW	800	1	blank2r.bmp	870	5	kummer	870	1	!	1200	1	blank2r.bmp	1330	0	0	0
020618	15:32:41	1	22	5.0.10.0	d070_A21_A1_pleasB	dA21_valB_070	3	42	300	300	0	0	504	23	1	1	blank2r.bmp	0	1	+	0	6	C2r.bmp	500	1	blank2r.bmp	800	1	NPLW	800	1	blank2r.bmp	870	1	gut	870	1	!	1200	1	blank2r.bmp	1330	0	0	0
020618	15:32:41	1	22	5.0.10.0	d070_A21_A2_unplB	dA21_valB_070	3	43	300	300	0	0	854	23	0	1	blank2r.bmp	0	1	+	0	1	B1r.bmp	500	1	blank2r.bmp	800	1	DHJF	800	1	blank2r.bmp	870	3	ärger	870	1	!	1200	1	blank2r.bmp	1330	0	0	0
020618	15:32:41	1	22	5.0.10.0	d070_A21_A1_unplB	dA21_valB_070	3	44	300	300	0	0	401	18	0	1	blank2r.bmp	0	1	+	0	4	B4r.bmp	500	1	blank2r.bmp	800	1	NPLW	800	1	blank2r.bmp	870	2	geizig	870	1	!	1200	1	blank2r.bmp	1330	0	0	0
020618	15:32:41	1	22	5.0.10.0	d070_A21_A2_unplB	dA21_valB_070	3	45	300	300	0	0	379	23	0	1	blank2r.bmp	0	1	+	0	3	B3r.bmp	500	1	blank2r.bmp	800	1	DHJF	800	1	blank2r.bmp	870	1	grausam	870	1	!	1200	1	blank2r.bmp	1330	0	0	0
020618	15:32:41	1	22	5.0.10.0	d070_A21_A1_pleasB	dA21_valB_070	3	46	300	300	0	0	335	18	0	1	blank2r.bmp	0	1	+	0	8	C4r.bmp	500	1	blank2r.bmp	800	1	NPLW	800	1	blank2r.bmp	870	6	kreativ	870	1	!	1200	1	blank2r.bmp	1330	0	0	0
020618	15:32:41	1	22	5.0.10.0	d070_A21_A2_pleasB	dA21_valB_070	3	47	300	300	0	0	179	18	1	1	blank2r.bmp	0	1	+	0	5	C1r.bmp	500	1	blank2r.bmp	800	1	DHJF	800	1	blank2r.bmp	870	3	kuss	870	1	!	1200	1	blank2r.bmp	1330	0	0	0
020618	15:32:41	1	22	5.0.10.0	d070_A21_A2_unplB	dA21_valB_070	3	48	300	300	0	0	440	18	1	1	blank2r.bmp	0	1	+	0	7	C3r.bmp	500	1	blank2r.bmp	800	1	DHJF	800	1	blank2r.bmp	870	4	böse	870	1	!	1200	1	blank2r.bmp	1330	0	0	0
020618	15:32:41	1	22	5.0.10.0	d070_A21_A2_unplB	dA21_valB_070	4	1	300	300	0	0	1506	18	1	1	blank2r.bmp	0	1	+	0	5	C1r.bmp	500	1	blank2r.bmp	800	1	DHJF	800	1	blank2r.bmp	870	6	traurig	870	1	!	1200	1	blank2r.bmp	1330	0	0	0
020618	15:32:41	1	22	5.0.10.0	d070_A21_A2_pleasB	dA21_valB_070	4	2	300	300	0	0	615	18	1	1	blank2r.bmp	0	1	+	0	8	C4r.bmp	500	1	blank2r.bmp	800	1	DHJF	800	1	blank2r.bmp	870	5	begabt	870	1	!	1200	1	blank2r.bmp	1330	0	0	0
020618	15:32:41	1	22	5.0.10.0	d070_A21_A1_pleasB	dA21_valB_070	4	3	300	300	0	0	262	23	1	1	blank2r.bmp	0	1	+	0	1	B1r.bmp	500	1	blank2r.bmp	800	1	NPLW	800	1	blank2r.bmp	870	6	kreativ	870	1	!	1200	1	blank2r.bmp	1330	0	0	0
020618	15:32:41	1	22	5.0.10.0	d070_A21_A1_pleasB	dA21_valB_070	4	4	300	300	0	0	593	23	1	1	blank2r.bmp	0	1	+	0	4	B4r.bmp	500	1	blank2r.bmp	800	1	NPLW	800	1	blank2r.bmp	870	2	mutig	870	1	!	1200	1	blank2r.bmp	1330	0	0	0
020618	15:32:41	1	22	5.0.10.0	d070_A21_A1_pleasB	dA21_valB_070	4	5	300	300	0	0	519	23	1	1	blank2r.bmp	0	1	+	0	6	C2r.bmp	500	1	blank2r.bmp	800	1	NPLW	800	1	blank2r.bmp	870	3	kuss	870	1	!	1200	1	blank2r.bmp	1330	0	0	0
020618	15:32:41	1	22	5.0.10.0	d070_A21_A1_unplB	dA21_valB_070	4	6	300	300	0	0	85	23	1	1	blank2r.bmp	0	1	+	0	3	B3r.bmp	500	1	blank2r.bmp	800	1	NPLW	800	1	blank2r.bmp	870	3	ärger	870	1	!	1200	1	blank2r.bmp	1330	0	0	0
020618	15:32:41	1	22	5.0.10.0	d070_A21_A2_pleasB	dA21_valB_070	4	7	300	300	0	0	215	23	0	1	blank2r.bmp	0	1	+	0	7	C3r.bmp	500	1	blank2r.bmp	800	1	DHJF	800	1	blank2r.bmp	870	1	gut	870	1	!	1200	1	blank2r.bmp	1330	0	0	0
020618	15:32:41	1	22	5.0.10.0	d070_A21_A1_unplB	dA21_valB_070	4	8	300	300	0	0	122	18	0	1	blank2r.bmp	0	1	+	0	2	B2r.bmp	500	1	blank2r.bmp	800	1	NPLW	800	1	blank2r.bmp	870	5	kummer	870	1	!	1200	1	blank2r.bmp	1330	0	0	0
020618	15:32:41	1	22	5.0.10.0	d070_A21_A2_pleasB	dA21_valB_070	4	9	300	300	0	0	1263	23	0	1	blank2r.bmp	0	1	+	0	3	B3r.bmp	500	1	blank2r.bmp	800	1	DHJF	800	1	blank2r.bmp	870	4	treu	870	1	!	1200	1	blank2r.bmp	1330	0	0	0
020618	15:32:41	1	22	5.0.10.0	d070_A21_A2_unplB	dA21_valB_070	4	10	300	300	0	0	558	23	0	1	blank2r.bmp	0	1	+	0	1	B1r.bmp	500	1	blank2r.bmp	800	1	DHJF	800	1	blank2r.bmp	870	2	geizig	870	1	!	1200	1	blank2r.bmp	1330	0	0	0
020618	15:32:41	1	22	5.0.10.0	d070_A21_A1_pleasB	dA21_valB_070	4	11	300	300	0	0	450	18	0	1	blank2r.bmp	0	1	+	0	8	C4r.bmp	500	1	blank2r.bmp	800	1	NPLW	800	1	blank2r.bmp	870	1	gut	870	1	!	1200	1	blank2r.bmp	1330	0	0	0
020618	15:32:41	1	22	5.0.10.0	d070_A21_A1_unplB	dA21_valB_070	4	12	300	300	0	0	313	23	1	1	blank2r.bmp	0	1	+	0	4	B4r.bmp	500	1	blank2r.bmp	800	1	NPLW	800	1	blank2r.bmp	870	1	grausam	870	1	!	1200	1	blank2r.bmp	1330	0	0	0
020618	15:32:41	1	22	5.0.10.0	d070_A21_A1_pleasB	dA21_valB_070	4	13	300	300	0	0	263	18	0	1	blank2r.bmp	0	1	+	0	7	C3r.bmp	500	1	blank2r.bmp	800	1	NPLW	800	1	blank2r.bmp	870	4	treu	870	1	!	1200	1	blank2r.bmp	1330	0	0	0
020618	15:32:41	1	22	5.0.10.0	d070_A21_A2_unplB	dA21_valB_070	4	14	300	300	0	0	302	23	0	1	blank2r.bmp	0	1	+	0	6	C2r.bmp	500	1	blank2r.bmp	800	1	DHJF	800	1	blank2r.bmp	870	4	böse	870	1	!	1200	1	blank2r.bmp	1330	0	0	0
020618	15:32:41	1	22	5.0.10.0	d070_A21_A2_pleasB	dA21_valB_070	4	15	300	300	0	0	435	18	1	1	blank2r.bmp	0	1	+	0	2	B2r.bmp	500	1	blank2r.bmp	800	1	DHJF	800	1	blank2r.bmp	870	2	mutig	870	1	!	1200	1	blank2r.bmp	1330	0	0	0
020618	15:32:41	1	22	5.0.10.0	d070_A21_A2_unplB	dA21_valB_070	4	16	300	300	0	0	230	23	0	1	blank2r.bmp	0	1	+	0	5	C1r.bmp	500	1	blank2r.bmp	800	1	DHJF	800	1	blank2r.bmp	870	5	kummer	870	1	!	1200	1	blank2r.bmp	1330	0	0	0
020618	15:32:41	1	22	5.0.10.0	d070_A21_A1_unplB	dA21_valB_070	4	17	300	300	0	0	152	23	1	1	blank2r.bmp	0	1	+	0	1	B1r.bmp	500	1	blank2r.bmp	800	1	NPLW	800	1	blank2r.bmp	870	1	grausam	870	1	!	1200	1	blank2r.bmp	1330	0	0	0
020618	15:32:41	1	22	5.0.10.0	d070_A21_A1_unplB	dA21_valB_070	4	18	300	300	0	0	139	23	1	1	blank2r.bmp	0	1	+	0	4	B4r.bmp	500	1	blank2r.bmp	800	1	NPLW	800	1	blank2r.bmp	870	3	ärger	870	1	!	1200	1	blank2r.bmp	1330	0	0	0
020618	15:32:41	1	22	5.0.10.0	d070_A21_A2_pleasB	dA21_valB_070	4	19	300	300	0	0	72	18	1	1	blank2r.bmp	0	1	+	0	5	C1r.bmp	500	1	blank2r.bmp	800	1	DHJF	800	1	blank2r.bmp	870	6	kreativ	870	1	!	1200	1	blank2r.bmp	1330	0	0	0
020618	15:32:41	1	22	5.0.10.0	d070_A21_A2_unplB	dA21_valB_070	4	20	300	300	0	0	252	23	0	1	blank2r.bmp	0	1	+	0	2	B2r.bmp	500	1	blank2r.bmp	800	1	DHJF	800	1	blank2r.bmp	870	4	böse	870	1	!	1200	1	blank2r.bmp	1330	0	0	0
020618	15:32:41	1	22	5.0.10.0	d070_A21_A2_pleasB	dA21_valB_070	4	21	300	300	0	0	317	18	1	1	blank2r.bmp	0	1	+	0	7	C3r.bmp	500	1	blank2r.bmp	800	1	DHJF	800	1	blank2r.bmp	870	5	begabt	870	1	!	1200	1	blank2r.bmp	1330	0	0	0
020618	15:32:41	1	22	5.0.10.0	d070_A21_A1_pleasB	dA21_valB_070	4	22	300	300	0	0	533	18	0	1	blank2r.bmp	0	1	+	0	8	C4r.bmp	500	1	blank2r.bmp	800	1	NPLW	800	1	blank2r.bmp	870	3	kuss	870	1	!	1200	1	blank2r.bmp	1330	0	0	0
020618	15:32:41	1	22	5.0.10.0	d070_A21_A1_pleasB	dA21_valB_070	4	23	300	300	0	0	392	18	0	1	blank2r.bmp	0	1	+	0	6	C2r.bmp	500	1	blank2r.bmp	800	1	NPLW	800	1	blank2r.bmp	870	2	mutig	870	1	!	1200	1	blank2r.bmp	1330	0	0	0
020618	15:32:41	1	22	5.0.10.0	d070_A21_A2_unplB	dA21_valB_070	4	24	300	300	0	0	278	23	0	1	blank2r.bmp	0	1	+	0	3	B3r.bmp	500	1	blank2r.bmp	800	1	DHJF	800	1	blank2r.bmp	870	6	traurig	870	1	!	1200	1	blank2r.bmp	1330	0	0	0
020618	15:32:41	1	22	5.0.10.0	d070_A21_A1_pleasB	dA21_valB_070	4	25	300	300	0	0	37	23	1	1	blank2r.bmp	0	1	+	0	3	B3r.bmp	500	1	blank2r.bmp	800	1	NPLW	800	1	blank2r.bmp	870	3	kuss	870	1	!	1200	1	blank2r.bmp	1330	0	0	0
020618	15:32:41	1	22	5.0.10.0	d070_A21_A1_unplB	dA21_valB_070	4	26	300	300	0	0	940	23	1	1	blank2r.bmp	0	1	+	0	4	B4r.bmp	500	1	blank2r.bmp	800	1	NPLW	800	1	blank2r.bmp	870	2	geizig	870	1	!	1200	1	blank2r.bmp	1330	0	0	0
020618	15:32:41	1	22	5.0.10.0	d070_A21_A1_unplB	dA21_valB_070	4	27	300	300	0	0	310	18	0	1	blank2r.bmp	0	1	+	0	7	C3r.bmp	500	1	blank2r.bmp	800	1	NPLW	800	1	blank2r.bmp	870	2	geizig	870	1	!	1200	1	blank2r.bmp	1330	0	0	0
020618	15:32:41	1	22	5.0.10.0	d070_A21_A2_pleasB	dA21_valB_070	4	28	300	300	0	0	483	18	1	1	blank2r.bmp	0	1	+	0	8	C4r.bmp	500	1	blank2r.bmp	800	1	DHJF	800	1	blank2r.bmp	870	4	treu	870	1	!	1200	1	blank2r.bmp	1330	0	0	0
020618	15:32:41	1	22	5.0.10.0	d070_A21_A1_unplB	dA21_valB_070	4	29	300	300	0	0	621	23	1	1	blank2r.bmp	0	1	+	0	1	B1r.bmp	500	1	blank2r.bmp	800	1	NPLW	800	1	blank2r.bmp	870	3	ärger	870	1	!	1200	1	blank2r.bmp	1330	0	0	0
020618	15:32:41	1	22	5.0.10.0	d070_A21_A1_unplB	dA21_valB_070	4	30	300	300	0	0	305	18	0	1	blank2r.bmp	0	1	+	0	2	B2r.bmp	500	1	blank2r.bmp	800	1	NPLW	800	1	blank2r.bmp	870	6	traurig	870	1	!	1200	1	blank2r.bmp	1330	0	0	0
020618	15:32:41	1	22	5.0.10.0	d070_A21_A2_unplB	dA21_valB_070	4	31	300	300	0	0	368	23	0	1	blank2r.bmp	0	1	+	0	6	C2r.bmp	500	1	blank2r.bmp	800	1	DHJF	800	1	blank2r.bmp	870	1	grausam	870	1	!	1200	1	blank2r.bmp	1330	0	0	0
020618	15:32:41	1	22	5.0.10.0	d070_A21_A1_pleasB	dA21_valB_070	4	32	300	300	0	0	132	18	0	1	blank2r.bmp	0	1	+	0	5	C1r.bmp	500	1	blank2r.bmp	800	1	NPLW	800	1	blank2r.bmp	870	6	kreativ	870	1	!	1200	1	blank2r.bmp	1330	0	0	0
020618	15:32:41	1	22	5.0.10.0	d070_A21_A1_pleasB	dA21_valB_070	4	33	300	300	0	0	229	23	1	1	blank2r.bmp	0	1	+	0	1	B1r.bmp	500	1	blank2r.bmp	800	1	NPLW	800	1	blank2r.bmp	870	5	begabt	870	1	!	1200	1	blank2r.bmp	1330	0	0	0
020618	15:32:41	1	22	5.0.10.0	d070_A21_A2_unplB	dA21_valB_070	4	34	300	300	0	0	225	23	0	1	blank2r.bmp	0	1	+	0	5	C1r.bmp	500	1	blank2r.bmp	800	1	DHJF	800	1	blank2r.bmp	870	5	kummer	870	1	!	1200	1	blank2r.bmp	1330	0	0	0
020618	15:32:41	1	22	5.0.10.0	d070_A21_A1_unplB	dA21_valB_070	4	35	300	300	0	0	286	23	1	1	blank2r.bmp	0	1	+	0	3	B3r.bmp	500	1	blank2r.bmp	800	1	NPLW	800	1	blank2r.bmp	870	4	böse	870	1	!	1200	1	blank2r.bmp	1330	0	0	0
020618	15:32:41	1	22	5.0.10.0	d070_A21_A2_pleasB	dA21_valB_070	4	36	300	300	0	0	239	18	1	1	blank2r.bmp	0	1	+	0	2	B2r.bmp	500	1	blank2r.bmp	800	1	DHJF	800	1	blank2r.bmp	870	1	gut	870	1	!	1200	1	blank2r.bmp	1330	0	0	0
020618	15:32:41	1	22	5.0.10.0	d070_A21_A2_unplB	dA21_valB_070	4	37	300	300	0	0	432	18	1	1	blank2r.bmp	0	1	+	0	8	C4r.bmp	500	1	blank2r.bmp	800	1	DHJF	800	1	blank2r.bmp	870	3	ärger	870	1	!	1200	1	blank2r.bmp	1330	0	0	0
020618	15:32:41	1	22	5.0.10.0	d070_A21_A2_unplB	dA21_valB_070	4	38	300	300	0	0	427	18	1	1	blank2r.bmp	0	1	+	0	7	C3r.bmp	500	1	blank2r.bmp	800	1	DHJF	800	1	blank2r.bmp	870	6	traurig	870	1	!	1200	1	blank2r.bmp	1330	0	0	0
020618	15:32:41	1	22	5.0.10.0	d070_A21_A1_unplB	dA21_valB_070	4	39	300	300	0	0	208	23	1	1	blank2r.bmp	0	1	+	0	4	B4r.bmp	500	1	blank2r.bmp	800	1	NPLW	800	1	blank2r.bmp	870	2	geizig	870	1	!	1200	1	blank2r.bmp	1330	0	0	0
020618	15:32:41	1	22	5.0.10.0	d070_A21_A2_unplB	dA21_valB_070	4	40	300	300	0	0	125	23	0	1	blank2r.bmp	0	1	+	0	6	C2r.bmp	500	1	blank2r.bmp	800	1	DHJF	800	1	blank2r.bmp	870	5	kummer	870	1	!	1200	1	blank2r.bmp	1330	0	0	0
020618	15:32:41	1	22	5.0.10.0	d070_A21_A2_pleasB	dA21_valB_070	4	41	300	300	0	0	118	18	1	1	blank2r.bmp	0	1	+	0	2	B2r.bmp	500	1	blank2r.bmp	800	1	DHJF	800	1	blank2r.bmp	870	4	treu	870	1	!	1200	1	blank2r.bmp	1330	0	0	0
020618	15:32:41	1	22	5.0.10.0	d070_A21_A1_unplB	dA21_valB_070	4	42	300	300	0	0	10	18	0	1	blank2r.bmp	0	1	+	0	5	C1r.bmp	500	1	blank2r.bmp	800	1	NPLW	800	1	blank2r.bmp	870	4	böse	870	1	!	1200	1	blank2r.bmp	1330	0	0	0
020618	15:32:41	1	22	5.0.10.0	d070_A21_A1_pleasB	dA21_valB_070	4	43	300	300	0	0	314	18	0	1	blank2r.bmp	0	1	+	0	6	C2r.bmp	500	1	blank2r.bmp	800	1	NPLW	800	1	blank2r.bmp	870	3	kuss	870	1	!	1200	1	blank2r.bmp	1330	0	0	0
020618	15:32:41	1	22	5.0.10.0	d070_A21_A2_pleasB	dA21_valB_070	4	44	300	300	0	0	147	23	0	1	blank2r.bmp	0	1	+	0	3	B3r.bmp	500	1	blank2r.bmp	800	1	DHJF	800	1	blank2r.bmp	870	2	mutig	870	1	!	1200	1	blank2r.bmp	1330	0	0	0
020618	15:32:41	1	22	5.0.10.0	d070_A21_A1_pleasB	dA21_valB_070	4	45	300	300	0	0	289	23	1	1	blank2r.bmp	0	1	+	0	1	B1r.bmp	500	1	blank2r.bmp	800	1	NPLW	800	1	blank2r.bmp	870	1	gut	870	1	!	1200	1	blank2r.bmp	1330	0	0	0
020618	15:32:41	1	22	5.0.10.0	d070_A21_A2_pleasB	dA21_valB_070	4	46	300	300	0	0	113	23	0	1	blank2r.bmp	0	1	+	0	4	B4r.bmp	500	1	blank2r.bmp	800	1	DHJF	800	1	blank2r.bmp	870	5	begabt	870	1	!	1200	1	blank2r.bmp	1330	0	0	0
020618	15:32:41	1	22	5.0.10.0	d070_A21_A2_pleasB	dA21_valB_070	4	47	300	300	0	0	124	18	1	1	blank2r.bmp	0	1	+	0	8	C4r.bmp	500	1	blank2r.bmp	800	1	DHJF	800	1	blank2r.bmp	870	6	kreativ	870	1	!	1200	1	blank2r.bmp	1330	0	0	0
020618	15:32:41	1	22	5.0.10.0	d070_A21_A2_unplB	dA21_valB_070	4	48	300	300	0	0	2872	18	1	1	blank2r.bmp	0	1	+	0	7	C3r.bmp	500	1	blank2r.bmp	800	1	DHJF	800	1	blank2r.bmp	870	1	grausam	870	1	!	1200	1	blank2r.bmp	1330	0	0	0
020618	15:32:41	1	22	5.0.10.0	dL_B21_B2_unplA	dB21_valA_pract1	6	1	300	300	0	0	158	18	1	1	blank2r.bmp	0	1	+	0	8	C4r.bmp	500	1	blank2r.bmp	700	1	GKQX	700	7	C3r.bmp	830	1	blank2r.bmp	870	6	leiden	870	1	!	1200	1	blank2r.bmp	1330
020618	15:32:41	1	22	5.0.10.0	dL_B21_B1_pleasA	dB21_valA_pract1	6	2	300	300	0	0	1540	23	1	1	blank2r.bmp	0	1	+	0	6	C2r.bmp	500	1	blank2r.bmp	700	1	BMVZ	700	2	B2r.bmp	830	1	blank2r.bmp	870	5	friedlich	870	1	!	1200	1	blank2r.bmp	1330
020618	15:32:41	1	22	5.0.10.0	dL_B21_B2_pleasA	dB21_valA_pract1	6	3	300	300	0	0	767	18	1	1	blank2r.bmp	0	1	+	0	2	B2r.bmp	500	1	blank2r.bmp	700	1	GKQX	700	1	B1r.bmp	830	1	blank2r.bmp	870	2	schön	870	1	!	1200	1	blank2r.bmp	1330
020618	15:32:41	1	22	5.0.10.0	dL_B21_B2_unplA	dB21_valA_pract1	6	4	300	300	0	0	429	18	1	1	blank2r.bmp	0	1	+	0	5	C1r.bmp	500	1	blank2r.bmp	700	1	GKQX	700	3	B3r.bmp	830	1	blank2r.bmp	870	5	schlecht	870	1	!	1200	1	blank2r.bmp	1330
020618	15:32:41	1	22	5.0.10.0	dL_B21_B1_pleasA	dB21_valA_pract1	6	5	300	300	0	0	469	23	1	1	blank2r.bmp	0	1	+	0	3	B3r.bmp	500	1	blank2r.bmp	700	1	BMVZ	700	6	C2r.bmp	830	1	blank2r.bmp	870	6	froh	870	1	!	1200	1	blank2r.bmp	1330
020618	15:32:41	1	22	5.0.10.0	dL_B21_B2_pleasA	dB21_valA_pract1	6	6	300	300	0	0	339	23	0	1	blank2r.bmp	0	1	+	0	7	C3r.bmp	500	1	blank2r.bmp	700	1	GKQX	700	4	B4r.bmp	830	1	blank2r.bmp	870	4	heiter	870	1	!	1200	1	blank2r.bmp	1330
020618	15:32:41	1	22	5.0.10.0	dL_B21_B1_pleasA	dB21_valA_pract1	6	7	300	300	0	0	314	23	1	1	blank2r.bmp	0	1	+	0	4	B4r.bmp	500	1	blank2r.bmp	700	1	BMVZ	700	5	C1r.bmp	830	1	blank2r.bmp	870	3	freund	870	1	!	1200	1	blank2r.bmp	1330
020618	15:32:41	1	22	5.0.10.0	dL_B21_B1_unplA	dB21_valA_pract1	6	8	300	300	0	0	168	23	1	1	blank2r.bmp	0	1	+	0	1	B1r.bmp	500	1	blank2r.bmp	700	1	BMVZ	700	8	C4r.bmp	830	1	blank2r.bmp	870	4	elend	870	1	!	1200	1	blank2r.bmp	1330
020618	15:32:41	1	22	5.0.10.0	dL_B21_B1_unplA	dB21_valA_pract1	6	9	300	300	0	0	109	18	0	1	blank2r.bmp	0	1	+	0	7	C3r.bmp	500	1	blank2r.bmp	700	1	BMVZ	700	5	C1r.bmp	830	1	blank2r.bmp	870	1	unfair	870	1	!	1200	1	blank2r.bmp	1330
020618	15:32:41	1	22	5.0.10.0	dL_B21_B1_unplA	dB21_valA_pract1	6	10	300	300	0	0	1033	18	0	1	blank2r.bmp	0	1	+	0	5	C1r.bmp	500	1	blank2r.bmp	700	1	BMVZ	700	2	B2r.bmp	830	1	blank2r.bmp	870	2	neidisch	870	1	!	1200	1	blank2r.bmp	1330
020618	15:32:41	1	22	5.0.10.0	dL_B21_B2_unplA	dB21_valA_pract1	6	11	300	300	0	0	1142	23	0	1	blank2r.bmp	0	1	+	0	1	B1r.bmp	500	1	blank2r.bmp	700	1	GKQX	700	6	C2r.bmp	830	1	blank2r.bmp	870	3	töten	870	1	!	1200	1	blank2r.bmp	1330
020618	15:32:41	1	22	5.0.10.0	dL_B21_B2_pleasA	dB21_valA_pract1	6	12	300	300	0	0	1207	23	0	1	blank2r.bmp	0	1	+	0	4	B4r.bmp	500	1	blank2r.bmp	700	1	GKQX	700	8	C4r.bmp	830	1	blank2r.bmp	870	1	toll	870	1	!	1200	1	blank2r.bmp	1330
020618	15:32:41	1	22	5.0.10.0	dM_B21_B1_unplA	dB21_valA_pract2	7	1	300	300	0	0	4	18	0	1	blank2r.bmp	0	1	+	0	8	C4r.bmp	500	1	blank2r.bmp	730	1	BMVZ	730	3	B3r.bmp	830	1	blank2r.bmp	870	5	schlecht	870	1	!	1200	1	blank2r.bmp	1330
020618	15:32:41	1	22	5.0.10.0	dM_B21_B1_pleasA	dB21_valA_pract2	7	2	300	300	0	0	92	23	1	1	blank2r.bmp	0	1	+	0	6	C2r.bmp	500	1	blank2r.bmp	730	1	BMVZ	730	7	C3r.bmp	830	1	blank2r.bmp	870	6	froh	870	1	!	1200	1	blank2r.bmp	1330
020618	15:32:41	1	22	5.0.10.0	dM_B21_B2_pleasA	dB21_valA_pract2	7	3	300	300	0	0	1131	23	0	1	blank2r.bmp	0	1	+	0	2	B2r.bmp	500	1	blank2r.bmp	730	1	GKQX	730	1	B1r.bmp	830	1	blank2r.bmp	870	2	schön	870	1	!	1200	1	blank2r.bmp	1330
020618	15:32:41	1	22	5.0.10.0	dM_B21_B1_pleasA	dB21_valA_pract2	7	4	300	300	0	0	852	23	1	1	blank2r.bmp	0	1	+	0	3	B3r.bmp	500	1	blank2r.bmp	730	1	BMVZ	730	4	B4r.bmp	830	1	blank2r.bmp	870	3	freund	870	1	!	1200	1	blank2r.bmp	1330
020618	15:32:41	1	22	5.0.10.0	dM_B21_B2_unplA	dB21_valA_pract2	7	5	300	300	0	0	226	18	1	1	blank2r.bmp	0	1	+	0	8	C4r.bmp	500	1	blank2r.bmp	730	1	GKQX	730	3	B3r.bmp	830	1	blank2r.bmp	870	3	töten	870	1	!	1200	1	blank2r.bmp	1330
020618	15:32:41	1	22	5.0.10.0	dM_B21_B1_unplA	dB21_valA_pract2	7	6	300	300	0	0	171	23	1	1	blank2r.bmp	0	1	+	0	6	C2r.bmp	500	1	blank2r.bmp	730	1	BMVZ	730	2	B2r.bmp	830	1	blank2r.bmp	870	4	elend	870	1	!	1200	1	blank2r.bmp	1330
020618	15:32:41	1	22	5.0.10.0	dM_B21_B2_unplA	dB21_valA_pract2	7	7	300	300	0	0	327	23	0	1	blank2r.bmp	0	1	+	0	3	B3r.bmp	500	1	blank2r.bmp	730	1	GKQX	730	8	C4r.bmp	830	1	blank2r.bmp	870	2	neidisch	870	1	!	1200	1	blank2r.bmp	1330
020618	15:32:41	1	22	5.0.10.0	dM_B21_B2_pleasA	dB21_valA_pract2	7	8	300	300	0	0	1076	18	1	1	blank2r.bmp	0	1	+	0	5	C1r.bmp	500	1	blank2r.bmp	730	1	GKQX	730	7	C3r.bmp	830	1	blank2r.bmp	870	1	toll	870	1	!	1200	1	blank2r.bmp	1330
020618	15:32:41	1	22	5.0.10.0	dM_B21_B1_pleasA	dB21_valA_pract2	7	9	300	300	0	0	1066	18	0	1	blank2r.bmp	0	1	+	0	7	C3r.bmp	500	1	blank2r.bmp	730	1	BMVZ	730	6	C2r.bmp	830	1	blank2r.bmp	870	4	heiter	870	1	!	1200	1	blank2r.bmp	1330
020618	15:32:41	1	22	5.0.10.0	dM_B21_B2_unplA	dB21_valA_pract2	7	10	300	300	0	0	754	23	0	1	blank2r.bmp	0	1	+	0	2	B2r.bmp	500	1	blank2r.bmp	730	1	GKQX	730	1	B1r.bmp	830	1	blank2r.bmp	870	6	leiden	870	1	!	1200	1	blank2r.bmp	1330
020618	15:32:41	1	22	5.0.10.0	dM_B21_B1_unplA	dB21_valA_pract2	7	11	300	300	0	0	728	23	1	1	blank2r.bmp	0	1	+	0	4	B4r.bmp	500	1	blank2r.bmp	730	1	BMVZ	730	5	C1r.bmp	830	1	blank2r.bmp	870	1	unfair	870	1	!	1200	1	blank2r.bmp	1330
020618	15:32:41	1	22	5.0.10.0	dM_B21_B2_pleasA	dB21_valA_pract2	7	12	300	300	0	0	313	23	0	1	blank2r.bmp	0	1	+	0	1	B1r.bmp	500	1	blank2r.bmp	730	1	GKQX	730	4	B4r.bmp	830	1	blank2r.bmp	870	5	friedlich	870	1	!	1200	1	blank2r.bmp	1330
020618	15:32:41	1	22	5.0.10.0	d080_B21_B2_pleasA	dB21_valA_080	8	1	300	300	0	0	3546	18	1	1	blank2r.bmp	0	1	+	0	3	B3r.bmp	500	1	blank2r.bmp	800	1	GKQX	800	1	blank2r.bmp	880	6	froh	880	1	!	1210	1	blank2r.bmp	1340	0	0	0
020618	15:32:41	1	22	5.0.10.0	d080_B21_B1_pleasA	dB21_valA_080	8	2	300	300	0	0	187	23	1	1	blank2r.bmp	0	1	+	0	2	B2r.bmp	500	1	blank2r.bmp	800	1	BMVZ	800	1	blank2r.bmp	880	5	friedlich	880	1	!	1210	1	blank2r.bmp	1340	0	0	0
020618	15:32:41	1	22	5.0.10.0	d080_B21_B1_pleasA	dB21_valA_080	8	3	300	300	0	0	265	23	1	1	blank2r.bmp	0	1	+	0	7	C3r.bmp	500	1	blank2r.bmp	800	1	BMVZ	800	1	blank2r.bmp	880	1	toll	880	1	!	1210	1	blank2r.bmp	1340	0	0	0
020618	15:32:41	1	22	5.0.10.0	d080_B21_B2_pleasA	dB21_valA_080	8	4	300	300	0	0	500	23	0	1	blank2r.bmp	0	1	+	0	8	C4r.bmp	500	1	blank2r.bmp	800	1	GKQX	800	1	blank2r.bmp	880	4	heiter	880	1	!	1210	1	blank2r.bmp	1340	0	0	0
020618	15:32:41	1	22	5.0.10.0	d080_B21_B1_pleasA	dB21_valA_080	8	5	300	300	0	0	246	23	1	1	blank2r.bmp	0	1	+	0	6	C2r.bmp	500	1	blank2r.bmp	800	1	BMVZ	800	1	blank2r.bmp	880	2	schön	880	1	!	1210	1	blank2r.bmp	1340	0	0	0
020618	15:32:41	1	22	5.0.10.0	d080_B21_B2_unplA	dB21_valA_080	8	6	300	300	0	0	36	18	1	1	blank2r.bmp	0	1	+	0	5	C1r.bmp	500	1	blank2r.bmp	800	1	GKQX	800	1	blank2r.bmp	880	6	leiden	880	1	!	1210	1	blank2r.bmp	1340	0	0	0
020618	15:32:41	1	22	5.0.10.0	d080_B21_B2_pleasA	dB21_valA_080	8	7	300	300	0	0	51	23	0	1	blank2r.bmp	0	1	+	0	4	B4r.bmp	500	1	blank2r.bmp	800	1	GKQX	800	1	blank2r.bmp	880	3	freund	880	1	!	1210	1	blank2r.bmp	1340	0	0	0
020618	15:32:41	1	22	5.0.10.0	d080_B21_B1_unplA	dB21_valA_080	8	8	300	300	0	0	36	23	1	1	blank2r.bmp	0	1	+	0	1	B1r.bmp	500	1	blank2r.bmp	800	1	BMVZ	800	1	blank2r.bmp	880	3	töten	880	1	!	1210	1	blank2r.bmp	1340	0	0	0
020618	15:32:41	1	22	5.0.10.0	d080_B21_B1_unplA	dB21_valA_080	8	9	300	300	0	0	184	23	1	1	blank2r.bmp	0	1	+	0	4	B4r.bmp	500	1	blank2r.bmp	800	1	BMVZ	800	1	blank2r.bmp	880	2	neidisch	880	1	!	1210	1	blank2r.bmp	1340	0	0	0
020618	15:32:41	1	22	5.0.10.0	d080_B21_B1_unplA	dB21_valA_080	8	10	300	300	0	0	199	23	1	1	blank2r.bmp	0	1	+	0	3	B3r.bmp	500	1	blank2r.bmp	800	1	BMVZ	800	1	blank2r.bmp	880	1	unfair	880	1	!	1210	1	blank2r.bmp	1340	0	0	0
020618	15:32:41	1	22	5.0.10.0	d080_B21_B2_pleasA	dB21_valA_080	8	11	300	300	0	0	194	23	0	1	blank2r.bmp	0	1	+	0	6	C2r.bmp	500	1	blank2r.bmp	800	1	GKQX	800	1	blank2r.bmp	880	1	toll	880	1	!	1210	1	blank2r.bmp	1340	0	0	0
020618	15:32:41	1	22	5.0.10.0	d080_B21_B2_unplA	dB21_valA_080	8	12	300	300	0	0	743	18	1	1	blank2r.bmp	0	1	+	0	8	C4r.bmp	500	1	blank2r.bmp	800	1	GKQX	800	1	blank2r.bmp	880	4	elend	880	1	!	1210	1	blank2r.bmp	1340	0	0	0
020618	15:32:41	1	22	5.0.10.0	d080_B21_B2_pleasA	dB21_valA_080	8	13	300	300	0	0	140	18	1	1	blank2r.bmp	0	1	+	0	7	C3r.bmp	500	1	blank2r.bmp	800	1	GKQX	800	1	blank2r.bmp	880	6	froh	880	1	!	1210	1	blank2r.bmp	1340	0	0	0
020618	15:32:41	1	22	5.0.10.0	d080_B21_B1_unplA	dB21_valA_080	8	14	300	300	0	0	65	18	0	1	blank2r.bmp	0	1	+	0	5	C1r.bmp	500	1	blank2r.bmp	800	1	BMVZ	800	1	blank2r.bmp	880	5	schlecht	880	1	!	1210	1	blank2r.bmp	1340	0	0	0
020618	15:32:41	1	22	5.0.10.0	d080_B21_B2_pleasA	dB21_valA_080	8	15	300	300	0	0	404	23	0	1	blank2r.bmp	0	1	+	0	2	B2r.bmp	500	1	blank2r.bmp	800	1	GKQX	800	1	blank2r.bmp	880	3	freund	880	1	!	1210	1	blank2r.bmp	1340	0	0	0
020618	15:32:41	1	22	5.0.10.0	d080_B21_B1_pleasA	dB21_valA_080	8	16	300	300	0	0	223	23	1	1	blank2r.bmp	0	1	+	0	1	B1r.bmp	500	1	blank2r.bmp	800	1	BMVZ	800	1	blank2r.bmp	880	2	schön	880	1	!	1210	1	blank2r.bmp	1340	0	0	0
020618	15:32:41	1	22	5.0.10.0	d080_B21_B1_unplA	dB21_valA_080	8	17	300	300	0	0	284	18	0	1	blank2r.bmp	0	1	+	0	5	C1r.bmp	500	1	blank2r.bmp	800	1	BMVZ	800	1	blank2r.bmp	880	6	leiden	880	1	!	1210	1	blank2r.bmp	1340	0	0	0
020618	15:32:41	1	22	5.0.10.0	d080_B21_B1_unplA	dB21_valA_080	8	18	300	300	0	0	173	18	0	1	blank2r.bmp	0	1	+	0	6	C2r.bmp	500	1	blank2r.bmp	800	1	BMVZ	800	1	blank2r.bmp	880	1	unfair	880	1	!	1210	1	blank2r.bmp	1340	0	0	0
020618	15:32:41	1	22	5.0.10.0	d080_B21_B2_pleasA	dB21_valA_080	8	19	300	300	0	0	86	23	0	1	blank2r.bmp	0	1	+	0	4	B4r.bmp	500	1	blank2r.bmp	800	1	GKQX	800	1	blank2r.bmp	880	4	heiter	880	1	!	1210	1	blank2r.bmp	1340	0	0	0
020618	15:32:41	1	22	5.0.10.0	d080_B21_B2_unplA	dB21_valA_080	8	20	300	300	0	0	56	23	0	1	blank2r.bmp	0	1	+	0	2	B2r.bmp	500	1	blank2r.bmp	800	1	GKQX	800	1	blank2r.bmp	880	4	elend	880	1	!	1210	1	blank2r.bmp	1340	0	0	0
020618	15:32:41	1	22	5.0.10.0	d080_B21_B1_unplA	dB21_valA_080	8	21	300	300	0	0	4	18	0	1	blank2r.bmp	0	1	+	0	8	C4r.bmp	500	1	blank2r.bmp	800	1	BMVZ	800	1	blank2r.bmp	880	2	neidisch	880	1	!	1210	1	blank2r.bmp	1340	0	0	0
020618	15:32:41	1	22	5.0.10.0	d080_B21_B2_unplA	dB21_valA_080	8	22	300	300	0	0	2839	23	0	1	blank2r.bmp	0	1	+	0	1	B1r.bmp	500	1	blank2r.bmp	800	1	GKQX	800	1	blank2r.bmp	880	3	töten	880	1	!	1210	1	blank2r.bmp	1340	0	0	0
020618	15:32:41	1	22	5.0.10.0	d080_B21_B1_pleasA	dB21_valA_080	8	23	300	300	0	0	107	23	1	1	blank2r.bmp	0	1	+	0	3	B3r.bmp	500	1	blank2r.bmp	800	1	BMVZ	800	1	blank2r.bmp	880	5	friedlich	880	1	!	1210	1	blank2r.bmp	1340	0	0	0
020618	15:32:41	1	22	5.0.10.0	d080_B21_B1_pleasA	dB21_valA_080	8	24	300	300	0	0	109	18	0	1	blank2r.bmp	0	1	+	0	7	C3r.bmp	500	1	blank2r.bmp	800	1	BMVZ	800	1	blank2r.bmp	880	3	freund	880	1	!	1210	1	blank2r.bmp	1340	0	0	0
020618	15:32:41	1	22	5.0.10.0	d080_B21_B2_unplA	dB21_valA_080	8	25	300	300	0	0	87	23	0	1	blank2r.bmp	0	1	+	0	3	B3r.bmp	500	1	blank2r.bmp	800	1	GKQX	800	1	blank2r.bmp	880	5	schlecht	880	1	!	1210	1	blank2r.bmp	1340	0	0	0
020618	15:32:41	1	22	5.0.10.0	d080_B21_B1_unplA	dB21_valA_080	8	26	300	300	0	0	405	18	0	1	blank2r.bmp	0	1	+	0	7	C3r.bmp	500	1	blank2r.bmp	800	1	BMVZ	800	1	blank2r.bmp	880	5	schlecht	880	1	!	1210	1	blank2r.bmp	1340	0	0	0
020618	15:32:41	1	22	5.0.10.0	d080_B21_B1_pleasA	dB21_valA_080	8	27	300	300	0	0	125	18	0	1	blank2r.bmp	0	1	+	0	5	C1r.bmp	500	1	blank2r.bmp	800	1	BMVZ	800	1	blank2r.bmp	880	2	schön	880	1	!	1210	1	blank2r.bmp	1340	0	0	0
020618	15:32:41	1	22	5.0.10.0	d080_B21_B2_pleasA	dB21_valA_080	8	28	300	300	0	0	99	18	1	1	blank2r.bmp	0	1	+	0	8	C4r.bmp	500	1	blank2r.bmp	800	1	GKQX	800	1	blank2r.bmp	880	1	toll	880	1	!	1210	1	blank2r.bmp	1340	0	0	0
020618	15:32:41	1	22	5.0.10.0	d080_B21_B2_pleasA	dB21_valA_080	8	29	300	300	0	0	123	23	0	1	blank2r.bmp	0	1	+	0	4	B4r.bmp	500	1	blank2r.bmp	800	1	GKQX	800	1	blank2r.bmp	880	4	heiter	880	1	!	1210	1	blank2r.bmp	1340	0	0	0
020618	15:32:41	1	22	5.0.10.0	d080_B21_B1_unplA	dB21_valA_080	8	30	300	300	0	0	1937	18	0	1	blank2r.bmp	0	1	+	0	6	C2r.bmp	500	1	blank2r.bmp	800	1	BMVZ	800	1	blank2r.bmp	880	3	töten	880	1	!	1210	1	blank2r.bmp	1340	0	0	0
020618	15:32:41	1	22	5.0.10.0	d080_B21_B2_unplA	dB21_valA_080	8	31	300	300	0	0	960	23	0	1	blank2r.bmp	0	1	+	0	2	B2r.bmp	500	1	blank2r.bmp	800	1	GKQX	800	1	blank2r.bmp	880	1	unfair	880	1	!	1210	1	blank2r.bmp	1340	0	0	0
020618	15:32:41	1	22	5.0.10.0	d080_B21_B2_unplA	dB21_valA_080	8	32	300	300	0	0	166	23	0	1	blank2r.bmp	0	1	+	0	1	B1r.bmp	500	1	blank2r.bmp	800	1	GKQX	800	1	blank2r.bmp	880	6	leiden	880	1	!	1210	1	blank2r.bmp	1340	0	0	0
020618	15:32:41	1	22	5.0.10.0	d080_B21_B1_unplA	dB21_valA_080	8	33	300	300	0	0	81	18	0	1	blank2r.bmp	0	1	+	0	8	C4r.bmp	500	1	blank2r.bmp	800	1	BMVZ	800	1	blank2r.bmp	880	4	elend	880	1	!	1210	1	blank2r.bmp	1340	0	0	0
020618	15:32:41	1	22	5.0.10.0	d080_B21_B1_unplA	dB21_valA_080	8	34	300	300	0	0	34	23	1	1	blank2r.bmp	0	1	+	0	3	B3r.bmp	500	1	blank2r.bmp	800	1	BMVZ	800	1	blank2r.bmp	880	2	neidisch	880	1	!	1210	1	blank2r.bmp	1340	0	0	0
020618	15:32:41	1	22	5.0.10.0	d080_B21_B2_pleasA	dB21_valA_080	8	35	300	300	0	0	1453	23	0	1	blank2r.bmp	0	1	+	0	2	B2r.bmp	500	1	blank2r.bmp	800	1	GKQX	800	1	blank2r.bmp	880	5	friedlich	880	1	!	1210	1	blank2r.bmp	1340	0	0	0
020618	15:32:41	1	22	5.0.10.0	d080_B21_B2_pleasA	dB21_valA_080	8	36	300	300	0	0	162	18	1	1	blank2r.bmp	0	1	+	0	6	C2r.bmp	500	1	blank2r.bmp	800	1	GKQX	800	1	blank2r.bmp	880	6	froh	880	1	!	1210	1	blank2r.bmp	1340	0	0	0
020618	15:32:41	1	22	5.0.10.0	d080_B21_B1_pleasA	dB21_valA_080	8	37	300	300	0	0	135	23	1	1	blank2r.bmp	0	1	+	0	1	B1r.bmp	500	1	blank2r.bmp	800	1	BMVZ	800	1	blank2r.bmp	880	4	heiter	880	1	!	1210	1	blank2r.bmp	1340	0	0	0
020618	15:32:41	1	22	5.0.10.0	d080_B21_B2_unplA	dB21_valA_080	8	38	300	300	0	0	576	23	0	1	blank2r.bmp	0	1	+	0	7	C3r.bmp	500	1	blank2r.bmp	800	1	GKQX	800	1	blank2r.bmp	880	3	töten	880	1	!	1210	1	blank2r.bmp	1340	0	0	0
020618	15:32:41	1	22	5.0.10.0	d080_B21_B2_unplA	dB21_valA_080	8	39	300	300	0	0	242	23	0	1	blank2r.bmp	0	1	+	0	4	B4r.bmp	500	1	blank2r.bmp	800	1	GKQX	800	1	blank2r.bmp	880	5	schlecht	880	1	!	1210	1	blank2r.bmp	1340	0	0	0
020618	15:32:41	1	22	5.0.10.0	d080_B21_B2_unplA	dB21_valA_080	8	40	300	300	0	0	30	18	1	1	blank2r.bmp	0	1	+	0	5	C1r.bmp	500	1	blank2r.bmp	800	1	GKQX	800	1	blank2r.bmp	880	1	unfair	880	1	!	1210	1	blank2r.bmp	1340	0	0	0
020618	15:32:41	1	22	5.0.10.0	d080_B21_B1_pleasA	dB21_valA_080	8	41	300	300	0	0	197	23	1	1	blank2r.bmp	0	1	+	0	1	B1r.bmp	500	1	blank2r.bmp	800	1	BMVZ	800	1	blank2r.bmp	880	6	froh	880	1	!	1210	1	blank2r.bmp	1340	0	0	0
020618	15:32:41	1	22	5.0.10.0	d080_B21_B1_pleasA	dB21_valA_080	8	42	300	300	0	0	111	18	0	1	blank2r.bmp	0	1	+	0	5	C1r.bmp	500	1	blank2r.bmp	800	1	BMVZ	800	1	blank2r.bmp	880	5	friedlich	880	1	!	1210	1	blank2r.bmp	1340	0	0	0
020618	15:32:41	1	22	5.0.10.0	d080_B21_B2_pleasA	dB21_valA_080	8	43	300	300	0	0	208	23	0	1	blank2r.bmp	0	1	+	0	3	B3r.bmp	500	1	blank2r.bmp	800	1	GKQX	800	1	blank2r.bmp	880	2	schön	880	1	!	1210	1	blank2r.bmp	1340	0	0	0
020618	15:32:41	1	22	5.0.10.0	d080_B21_B1_pleasA	dB21_valA_080	8	44	300	300	0	0	320	23	1	1	blank2r.bmp	0	1	+	0	2	B2r.bmp	500	1	blank2r.bmp	800	1	BMVZ	800	1	blank2r.bmp	880	3	freund	880	1	!	1210	1	blank2r.bmp	1340	0	0	0
020618	15:32:41	1	22	5.0.10.0	d080_B21_B1_pleasA	dB21_valA_080	8	45	300	300	0	0	1124	18	0	1	blank2r.bmp	0	1	+	0	6	C2r.bmp	500	1	blank2r.bmp	800	1	BMVZ	800	1	blank2r.bmp	880	1	toll	880	1	!	1210	1	blank2r.bmp	1340	0	0	0
020618	15:32:41	1	22	5.0.10.0	d080_B21_B2_unplA	dB21_valA_080	8	46	300	300	0	0	52	23	0	1	blank2r.bmp	0	1	+	0	4	B4r.bmp	500	1	blank2r.bmp	800	1	GKQX	800	1	blank2r.bmp	880	4	elend	880	1	!	1210	1	blank2r.bmp	1340	0	0	0
020618	15:32:41	1	22	5.0.10.0	d080_B21_B1_unplA	dB21_valA_080	8	47	300	300	0	0	148	18	0	1	blank2r.bmp	0	1	+	0	7	C3r.bmp	500	1	blank2r.bmp	800	1	BMVZ	800	1	blank2r.bmp	880	2	neidisch	880	1	!	1210	1	blank2r.bmp	1340	0	0	0
020618	15:32:41	1	22	5.0.10.0	d080_B21_B2_unplA	dB21_valA_080	8	48	300	300	0	0	258	18	1	1	blank2r.bmp	0	1	+	0	8	C4r.bmp	500	1	blank2r.bmp	800	1	GKQX	800	1	blank2r.bmp	880	6	leiden	880	1	!	1210	1	blank2r.bmp	1340	0	0	0
020618	15:32:41	1	22	5.0.10.0	d080_B21_B1_pleasA	dB21_valA_080	9	1	300	300	0	0	42	18	0	1	blank2r.bmp	0	1	+	0	2	B2r.bmp	500	1	blank2r.bmp	800	1	BMVZ	800	1	blank2r.bmp	880	4	heiter	880	1	!	1210	1	blank2r.bmp	1340	0	0	0
020618	15:32:41	1	22	5.0.10.0	d080_B21_B1_unplA	dB21_valA_080	9	2	300	300	0	0	33	23	1	1	blank2r.bmp	0	1	+	0	3	B3r.bmp	500	1	blank2r.bmp	800	1	BMVZ	800	1	blank2r.bmp	880	4	elend	880	1	!	1210	1	blank2r.bmp	1340	0	0	0
020618	15:32:41	1	22	5.0.10.0	d080_B21_B1_unplA	dB21_valA_080	9	3	300	300	0	0	54	18	0	1	blank2r.bmp	0	1	+	0	5	C1r.bmp	500	1	blank2r.bmp	800	1	BMVZ	800	1	blank2r.bmp	880	2	neidisch	880	1	!	1210	1	blank2r.bmp	1340	0	0	0
020618	15:32:41	1	22	5.0.10.0	d080_B21_B1_unplA	dB21_valA_080	9	4	300	300	0	0	70	18	0	1	blank2r.bmp	0	1	+	0	8	C4r.bmp	500	1	blank2r.bmp	800	1	BMVZ	800	1	blank2r.bmp	880	6	leiden	880	1	!	1210	1	blank2r.bmp	1340	0	0	0
020618	15:32:41	1	22	5.0.10.0	d080_B21_B1_pleasA	dB21_valA_080	9	5	300	300	0	0	1061	23	1	1	blank2r.bmp	0	1	+	0	1	B1r.bmp	500	1	blank2r.bmp	800	1	BMVZ	800	1	blank2r.bmp	880	6	froh	880	1	!	1210	1	blank2r.bmp	1340	0	0	0
020618	15:32:41	1	22	5.0.10.0	d080_B21_B2_pleasA	dB21_valA_080	9	6	300	300	0	0	285	18	1	1	blank2r.bmp	0	1	+	0	6	C2r.bmp	500	1	blank2r.bmp	800	1	GKQX	800	1	blank2r.bmp	880	1	toll	880	1	!	1210	1	blank2r.bmp	1340	0	0	0
020618	15:32:41	1	22	5.0.10.0	d080_B21_B2_unplA	dB21_valA_080	9	7	300	300	0	0	4913	23	0	1	blank2r.bmp	0	1	+	0	4	B4r.bmp	500	1	blank2r.bmp	800	1	GKQX	800	1	blank2r.bmp	880	3	töten	880	1	!	1210	1	blank2r.bmp	1340	0	0	0
020618	15:32:41	1	22	5.0.10.0	d080_B21_B2_pleasA	dB21_valA_080	9	8	300	300	0	0	64	18	1	1	blank2r.bmp	0	1	+	0	7	C3r.bmp	500	1	blank2r.bmp	800	1	GKQX	800	1	blank2r.bmp	880	3	freund	880	1	!	1210	1	blank2r.bmp	1340	0	0	0
020618	15:32:41	1	22	5.0.10.0	d080_B21_B1_unplA	dB21_valA_080	9	9	300	300	0	0	336	18	0	1	blank2r.bmp	0	1	+	0	8	C4r.bmp	500	1	blank2r.bmp	800	1	BMVZ	800	1	blank2r.bmp	880	5	schlecht	880	1	!	1210	1	blank2r.bmp	1340	0	0	0
020618	15:32:41	1	22	5.0.10.0	d080_B21_B2_pleasA	dB21_valA_080	9	10	300	300	0	0	353	18	1	1	blank2r.bmp	0	1	+	0	5	C1r.bmp	500	1	blank2r.bmp	800	1	GKQX	800	1	blank2r.bmp	880	5	friedlich	880	1	!	1210	1	blank2r.bmp	1340	0	0	0
020618	15:32:41	1	22	5.0.10.0	d080_B21_B2_unplA	dB21_valA_080	9	11	300	300	0	0	114	23	0	1	blank2r.bmp	0	1	+	0	3	B3r.bmp	500	1	blank2r.bmp	800	1	GKQX	800	1	blank2r.bmp	880	1	unfair	880	1	!	1210	1	blank2r.bmp	1340	0	0	0
020618	15:32:41	1	22	5.0.10.0	d080_B21_B1_pleasA	dB21_valA_080	9	12	300	300	0	0	17	23	1	1	blank2r.bmp	0	1	+	0	4	B4r.bmp	500	1	blank2r.bmp	800	1	BMVZ	800	1	blank2r.bmp	880	2	schön	880	1	!	1210	1	blank2r.bmp	1340	0	0	0
020618	15:32:41	1	22	5.0.10.0	d080_B21_B1_unplA	dB21_valA_080	9	13	300	300	0	0	123	18	0	1	blank2r.bmp	0	1	+	0	7	C3r.bmp	500	1	blank2r.bmp	800	1	BMVZ	800	1	blank2r.bmp	880	4	elend	880	1	!	1210	1	blank2r.bmp	1340	0	0	0
020618	15:32:41	1	22	5.0.10.0	d080_B21_B1_pleasA	dB21_valA_080	9	14	300	300	0	0	104	23	1	1	blank2r.bmp	0	1	+	0	2	B2r.bmp	500	1	blank2r.bmp	800	1	BMVZ	800	1	blank2r.bmp	880	4	heiter	880	1	!	1210	1	blank2r.bmp	1340	0	0	0
020618	15:32:41	1	22	5.0.10.0	d080_B21_B2_pleasA	dB21_valA_080	9	15	300	300	0	0	74	23	0	1	blank2r.bmp	0	1	+	0	1	B1r.bmp	500	1	blank2r.bmp	800	1	GKQX	800	1	blank2r.bmp	880	3	freund	880	1	!	1210	1	blank2r.bmp	1340	0	0	0
020618	15:32:41	1	22	5.0.10.0	d080_B21_B2_pleasA	dB21_valA_080	9	16	300	300	0	0	141	18	1	1	blank2r.bmp	0	1	+	0	6	C2r.bmp	500	1	blank2r.bmp	800	1	GKQX	800	1	blank2r.bmp	880	6	froh	880	1	!	1210	1	blank2r.bmp	1340	0	0	0
020618	15:32:41	1	22	5.0.10.0	d080_B21_B1_unplA	dB21_valA_080	9	17	300	300	0	0	1120	23	1	1	blank2r.bmp	0	1	+	0	1	B1r.bmp	500	1	blank2r.bmp	800	1	BMVZ	800	1	blank2r.bmp	880	3	töten	880	1	!	1210	1	blank2r.bmp	1340	0	0	0
020618	15:32:41	1	22	5.0.10.0	d080_B21_B2_pleasA	dB21_valA_080	9	18	300	300	0	0	206	23	0	1	blank2r.bmp	0	1	+	0	4	B4r.bmp	500	1	blank2r.bmp	800	1	GKQX	800	1	blank2r.bmp	880	5	friedlich	880	1	!	1210	1	blank2r.bmp	1340	0	0	0
020618	15:32:41	1	22	5.0.10.0	d080_B21_B1_pleasA	dB21_valA_080	9	19	300	300	0	0	94	23	1	1	blank2r.bmp	0	1	+	0	3	B3r.bmp	500	1	blank2r.bmp	800	1	BMVZ	800	1	blank2r.bmp	880	2	schön	880	1	!	1210	1	blank2r.bmp	1340	0	0	0
020618	15:32:41	1	22	5.0.10.0	d080_B21_B1_pleasA	dB21_valA_080	9	20	300	300	0	0	242	18	0	1	blank2r.bmp	0	1	+	0	7	C3r.bmp	500	1	blank2r.bmp	800	1	BMVZ	800	1	blank2r.bmp	880	1	toll	880	1	!	1210	1	blank2r.bmp	1340	0	0	0
020618	15:32:41	1	22	5.0.10.0	d080_B21_B2_unplA	dB21_valA_080	9	21	300	300	0	0	311	18	1	1	blank2r.bmp	0	1	+	0	8	C4r.bmp	500	1	blank2r.bmp	800	1	GKQX	800	1	blank2r.bmp	880	6	leiden	880	1	!	1210	1	blank2r.bmp	1340	0	0	0
020618	15:32:41	1	22	5.0.10.0	d080_B21_B2_unplA	dB21_valA_080	9	22	300	300	0	0	308	23	0	1	blank2r.bmp	0	1	+	0	2	B2r.bmp	500	1	blank2r.bmp	800	1	GKQX	800	1	blank2r.bmp	880	1	unfair	880	1	!	1210	1	blank2r.bmp	1340	0	0	0
020618	15:32:41	1	22	5.0.10.0	d080_B21_B1_unplA	dB21_valA_080	9	23	300	300	0	0	919	18	0	1	blank2r.bmp	0	1	+	0	5	C1r.bmp	500	1	blank2r.bmp	800	1	BMVZ	800	1	blank2r.bmp	880	5	schlecht	880	1	!	1210	1	blank2r.bmp	1340	0	0	0
020618	15:32:41	1	22	5.0.10.0	d080_B21_B2_pleasA	dB21_valA_080	9	24	300	300	0	0	336	18	1	1	blank2r.bmp	0	1	+	0	6	C2r.bmp	500	1	blank2r.bmp	800	1	GKQX	800	1	blank2r.bmp	880	4	heiter	880	1	!	1210	1	blank2r.bmp	1340	0	0	0
020618	15:32:41	1	22	5.0.10.0	d080_B21_B1_unplA	dB21_valA_080	9	25	300	300	0	0	252	18	0	1	blank2r.bmp	0	1	+	0	5	C1r.bmp	500	1	blank2r.bmp	800	1	BMVZ	800	1	blank2r.bmp	880	2	neidisch	880	1	!	1210	1	blank2r.bmp	1340	0	0	0
020618	15:32:41	1	22	5.0.10.0	d080_B21_B1_pleasA	dB21_valA_080	9	26	300	300	0	0	257	18	0	1	blank2r.bmp	0	1	+	0	7	C3r.bmp	500	1	blank2r.bmp	800	1	BMVZ	800	1	blank2r.bmp	880	6	froh	880	1	!	1210	1	blank2r.bmp	1340	0	0	0
020618	15:32:41	1	22	5.0.10.0	d080_B21_B2_pleasA	dB21_valA_080	9	27	300	300	0	0	286	23	0	1	blank2r.bmp	0	1	+	0	4	B4r.bmp	500	1	blank2r.bmp	800	1	GKQX	800	1	blank2r.bmp	880	1	toll	880	1	!	1210	1	blank2r.bmp	1340	0	0	0
020618	15:32:41	1	22	5.0.10.0	d080_B21_B2_unplA	dB21_valA_080	9	28	300	300	0	0	326	18	1	1	blank2r.bmp	0	1	+	0	8	C4r.bmp	500	1	blank2r.bmp	800	1	GKQX	800	1	blank2r.bmp	880	5	schlecht	880	1	!	1210	1	blank2r.bmp	1340	0	0	0
020618	15:32:41	1	22	5.0.10.0	d080_B21_B1_pleasA	dB21_valA_080	9	29	300	300	0	0	254	23	1	1	blank2r.bmp	0	1	+	0	2	B2r.bmp	500	1	blank2r.bmp	800	1	BMVZ	800	1	blank2r.bmp	880	5	friedlich	880	1	!	1210	1	blank2r.bmp	1340	0	0	0
020618	15:32:41	1	22	5.0.10.0	d080_B21_B1_unplA	dB21_valA_080	9	30	300	300	0	0	183	18	0	1	blank2r.bmp	0	1	+	0	6	C2r.bmp	500	1	blank2r.bmp	800	1	BMVZ	800	1	blank2r.bmp	880	4	elend	880	1	!	1210	1	blank2r.bmp	1340	0	0	0
020618	15:32:41	1	22	5.0.10.0	d080_B21_B1_unplA	dB21_valA_080	9	31	300	300	0	0	272	23	1	1	blank2r.bmp	0	1	+	0	3	B3r.bmp	500	1	blank2r.bmp	800	1	BMVZ	800	1	blank2r.bmp	880	1	unfair	880	1	!	1210	1	blank2r.bmp	1340	0	0	0
020618	15:32:41	1	22	5.0.10.0	d080_B21_B2_unplA	dB21_valA_080	9	32	300	300	0	0	278	23	0	1	blank2r.bmp	0	1	+	0	1	B1r.bmp	500	1	blank2r.bmp	800	1	GKQX	800	1	blank2r.bmp	880	2	neidisch	880	1	!	1210	1	blank2r.bmp	1340	0	0	0
020618	15:32:41	1	22	5.0.10.0	d080_B21_B2_unplA	dB21_valA_080	9	33	300	300	0	0	284	18	1	1	blank2r.bmp	0	1	+	0	6	C2r.bmp	500	1	blank2r.bmp	800	1	GKQX	800	1	blank2r.bmp	880	6	leiden	880	1	!	1210	1	blank2r.bmp	1340	0	0	0
020618	15:32:41	1	22	5.0.10.0	d080_B21_B1_pleasA	dB21_valA_080	9	34	300	300	0	0	267	23	1	1	blank2r.bmp	0	1	+	0	4	B4r.bmp	500	1	blank2r.bmp	800	1	BMVZ	800	1	blank2r.bmp	880	3	freund	880	1	!	1210	1	blank2r.bmp	1340	0	0	0
020618	15:32:41	1	22	5.0.10.0	d080_B21_B1_pleasA	dB21_valA_080	9	35	300	300	0	0	276	23	1	1	blank2r.bmp	0	1	+	0	1	B1r.bmp	500	1	blank2r.bmp	800	1	BMVZ	800	1	blank2r.bmp	880	2	schön	880	1	!	1210	1	blank2r.bmp	1340	0	0	0
020618	15:32:41	1	22	5.0.10.0	d080_B21_B2_unplA	dB21_valA_080	9	36	300	300	0	0	289	23	0	1	blank2r.bmp	0	1	+	0	3	B3r.bmp	500	1	blank2r.bmp	800	1	GKQX	800	1	blank2r.bmp	880	3	töten	880	1	!	1210	1	blank2r.bmp	1340	0	0	0
020618	15:32:41	1	22	5.0.10.0	d080_B21_B1_pleasA	dB21_valA_080	9	37	300	300	0	0	307	18	0	1	blank2r.bmp	0	1	+	0	8	C4r.bmp	500	1	blank2r.bmp	800	1	BMVZ	800	1	blank2r.bmp	880	4	heiter	880	1	!	1210	1	blank2r.bmp	1340	0	0	0
020618	15:32:41	1	22	5.0.10.0	d080_B21_B2_unplA	dB21_valA_080	9	38	300	300	0	0	293	18	1	1	blank2r.bmp	0	1	+	0	5	C1r.bmp	500	1	blank2r.bmp	800	1	GKQX	800	1	blank2r.bmp	880	3	töten	880	1	!	1210	1	blank2r.bmp	1340	0	0	0
020618	15:32:41	1	22	5.0.10.0	d080_B21_B2_pleasA	dB21_valA_080	9	39	300	300	0	0	248	18	1	1	blank2r.bmp	0	1	+	0	7	C3r.bmp	500	1	blank2r.bmp	800	1	GKQX	800	1	blank2r.bmp	880	5	friedlich	880	1	!	1210	1	blank2r.bmp	1340	0	0	0
020618	15:32:41	1	22	5.0.10.0	d080_B21_B2_pleasA	dB21_valA_080	9	40	300	300	0	0	187	23	0	1	blank2r.bmp	0	1	+	0	2	B2r.bmp	500	1	blank2r.bmp	800	1	GKQX	800	1	blank2r.bmp	880	3	freund	880	1	!	1210	1	blank2r.bmp	1340	0	0	0
020618	15:32:41	1	22	5.0.10.0	d080_B21_B1_unplA	dB21_valA_080	9	41	300	300	0	0	226	23	1	1	blank2r.bmp	0	1	+	0	2	B2r.bmp	500	1	blank2r.bmp	800	1	BMVZ	800	1	blank2r.bmp	880	4	elend	880	1	!	1210	1	blank2r.bmp	1340	0	0	0
020618	15:32:41	1	22	5.0.10.0	d080_B21_B1_pleasA	dB21_valA_080	9	42	300	300	0	0	242	23	1	1	blank2r.bmp	0	1	+	0	3	B3r.bmp	500	1	blank2r.bmp	800	1	BMVZ	800	1	blank2r.bmp	880	2	schön	880	1	!	1210	1	blank2r.bmp	1340	0	0	0
020618	15:32:41	1	22	5.0.10.0	d080_B21_B1_unplA	dB21_valA_080	9	43	300	300	0	0	233	18	0	1	blank2r.bmp	0	1	+	0	5	C1r.bmp	500	1	blank2r.bmp	800	1	BMVZ	800	1	blank2r.bmp	880	5	schlecht	880	1	!	1210	1	blank2r.bmp	1340	0	0	0
020618	15:32:41	1	22	5.0.10.0	d080_B21_B2_unplA	dB21_valA_080	9	44	300	300	0	0	359	23	0	1	blank2r.bmp	0	1	+	0	4	B4r.bmp	500	1	blank2r.bmp	800	1	GKQX	800	1	blank2r.bmp	880	1	unfair	880	1	!	1210	1	blank2r.bmp	1340	0	0	0
020618	15:32:41	1	22	5.0.10.0	d080_B21_B2_pleasA	dB21_valA_080	9	45	300	300	0	0	319	18	1	1	blank2r.bmp	0	1	+	0	8	C4r.bmp	500	1	blank2r.bmp	800	1	GKQX	800	1	blank2r.bmp	880	6	froh	880	1	!	1210	1	blank2r.bmp	1340	0	0	0
020618	15:32:41	1	22	5.0.10.0	d080_B21_B2_pleasA	dB21_valA_080	9	46	300	300	0	0	218	18	1	1	blank2r.bmp	0	1	+	0	6	C2r.bmp	500	1	blank2r.bmp	800	1	GKQX	800	1	blank2r.bmp	880	1	toll	880	1	!	1210	1	blank2r.bmp	1340	0	0	0
020618	15:32:41	1	22	5.0.10.0	d080_B21_B2_unplA	dB21_valA_080	9	47	300	300	0	0	165	18	1	1	blank2r.bmp	0	1	+	0	7	C3r.bmp	500	1	blank2r.bmp	800	1	GKQX	800	1	blank2r.bmp	880	6	leiden	880	1	!	1210	1	blank2r.bmp	1340	0	0	0
020618	15:32:41	1	22	5.0.10.0	d080_B21_B2_unplA	dB21_valA_080	9	48	300	300	0	0	231	23	0	1	blank2r.bmp	0	1	+	0	1	B1r.bmp	500	1	blank2r.bmp	800	1	GKQX	800	1	blank2r.bmp	880	2	neidisch	880	1	!	1210	1	blank2r.bmp	1340	0	0	0
020618	15:32:41	1	22	5.0.10.0	endtrial	endblock	10	1	300	300	0	0	913416	21	0	0	0	0	0	0	0	0	0	0	0	0	0	0	0	0	0	0	0	0	0	0	0	0	0	0	0	0	0	0	0
