date	time	group	subject	build	blocknum	trialnum	blockcode	trialcode	pretrialpause	posttrialpause	trialduration	trialtimeout	response	correct	latency	stimulusnumber1	stimulusitem1	stimulusonset1	stimulusnumber2	stimulusitem2	stimulusonset2	stimulusnumber3	stimulusitem3	stimulusonset3	stimulusnumber4	stimulusitem4	stimulusonset4	stimulusnumber5	stimulusitem5	stimulusonset5	stimulusnumber6	stimulusitem6	stimulusonset6	stimulusnumber7	stimulusitem7	stimulusonset7	stimulusnumber8	stimulusitem8	stimulusonset8	stimulusnumber9	stimulusitem9	stimulusonset9	stimulusnumber10	stimulusitem10	stimulusonset10
012218	15:03:03	1	1	5.0.10.0	1	1	dA12_valB_pract1	dL_A12_A2_unplB	300	300	0	0	18	0	1803	1	blank2r.bmp	0	1	+	0	3	B3r.bmp	500	1	blank2r.bmp	700	1	DHJF	700	2	B2r.bmp	830	1	blank2r.bmp	870	4	bruise	870	1	!	1200	1	blank2r.bmp	1330
012218	15:03:03	1	1	5.0.10.0	1	2	dA12_valB_pract1	dL_A12_A1_pleasB	300	300	0	0	18	1	423	1	blank2r.bmp	0	1	+	0	6	C2r.bmp	500	1	blank2r.bmp	700	1	NPLW	700	7	C3r.bmp	830	1	blank2r.bmp	870	3	true	870	1	!	1200	1	blank2r.bmp	1330
012218	15:03:03	1	1	5.0.10.0	1	3	dA12_valB_pract1	dL_A12_A1_unplB	300	300	0	0	18	1	172	1	blank2r.bmp	0	1	+	0	7	C3r.bmp	500	1	blank2r.bmp	717	1	NPLW	717	3	B3r.bmp	830	1	blank2r.bmp	870	1	miser	870	1	!	1200	1	blank2r.bmp	1330
012218	15:03:03	1	1	5.0.10.0	1	4	dA12_valB_pract1	dL_A12_A1_pleasB	300	300	0	0	18	1	3794	1	blank2r.bmp	0	1	+	0	8	C4r.bmp	500	1	blank2r.bmp	700	1	NPLW	700	5	C1r.bmp	830	1	blank2r.bmp	870	2	trust	870	1	!	1200	1	blank2r.bmp	1330
012218	15:03:03	1	1	5.0.10.0	1	5	dA12_valB_pract1	dL_A12_A2_unplB	300	300	0	0	23	1	318	1	blank2r.bmp	0	1	+	0	5	C1r.bmp	500	1	blank2r.bmp	700	1	DHJF	700	4	B4r.bmp	830	1	blank2r.bmp	870	5	crime	870	1	!	1200	1	blank2r.bmp	1330
012218	15:03:03	1	1	5.0.10.0	1	6	dA12_valB_pract1	dL_A12_A2_pleasB	300	300	0	0	23	1	2856	1	blank2r.bmp	0	1	+	0	4	B4r.bmp	500	1	blank2r.bmp	700	1	DHJF	700	6	C2r.bmp	830	1	blank2r.bmp	870	5	best	870	1	!	1200	1	blank2r.bmp	1330
012218	15:03:03	1	1	5.0.10.0	1	7	dA12_valB_pract1	dL_A12_A2_unplB	300	300	0	0	18	0	926	1	blank2r.bmp	4	1	+	4	1	B1r.bmp	500	1	blank2r.bmp	700	1	DHJF	700	8	C4r.bmp	830	1	blank2r.bmp	880	3	bitter	880	1	!	1200	1	blank2r.bmp	1330
012218	15:03:03	1	1	5.0.10.0	1	8	dA12_valB_pract1	dL_A12_A1_unplB	300	300	0	0	18	1	416	1	blank2r.bmp	0	1	+	0	2	B2r.bmp	500	1	blank2r.bmp	718	1	NPLW	718	1	B1r.bmp	830	1	blank2r.bmp	870	6	victim	870	1	!	1200	1	blank2r.bmp	1330
012218	15:03:03	1	1	5.0.10.0	1	9	dA12_valB_pract1	dL_A12_A1_unplB	300	300	0	0	18	1	382	1	blank2r.bmp	0	1	+	0	6	C2r.bmp	500	1	blank2r.bmp	713	1	NPLW	713	8	C4r.bmp	861	1	blank2r.bmp	870	2	sick	870	1	!	1200	1	blank2r.bmp	1330
012218	15:03:03	1	1	5.0.10.0	1	10	dA12_valB_pract1	dL_A12_A1_pleasB	300	300	0	0	18	1	405	1	blank2r.bmp	1	1	+	1	5	C1r.bmp	500	1	blank2r.bmp	700	1	NPLW	700	2	B2r.bmp	830	1	blank2r.bmp	870	4	cute	870	1	!	1200	1	blank2r.bmp	1330
012218	15:03:03	1	1	5.0.10.0	1	11	dA12_valB_pract1	dL_A12_A2_pleasB	300	300	0	0	23	1	208	1	blank2r.bmp	1	1	+	1	3	B3r.bmp	500	1	blank2r.bmp	700	1	DHJF	700	1	B1r.bmp	830	1	blank2r.bmp	870	6	better	870	1	!	1200	1	blank2r.bmp	1330
012218	15:03:03	1	1	5.0.10.0	1	12	dA12_valB_pract1	dL_A12_A2_pleasB	300	300	0	0	18	0	377	1	blank2r.bmp	0	1	+	0	4	B4r.bmp	500	1	blank2r.bmp	700	1	DHJF	700	3	B3r.bmp	830	1	blank2r.bmp	870	1	kiss	870	1	!	1200	1	blank2r.bmp	1331
012218	15:03:03	1	1	5.0.10.0	2	1	dA12_valB_pract2	dM_A12_A2_unplB	300	300	0	0	23	1	99	1	blank2r.bmp	0	1	+	0	2	B2r.bmp	500	1	blank2r.bmp	730	1	DHJF	730	4	B4r.bmp	830	1	blank2r.bmp	870	1	miser	870	1	!	1200	1	blank2r.bmp	1330
012218	15:03:03	1	1	5.0.10.0	2	2	dA12_valB_pract2	dM_A12_A1_unplB	300	300	0	0	18	1	30	1	blank2r.bmp	0	1	+	0	8	C4r.bmp	500	1	blank2r.bmp	730	1	NPLW	730	6	C2r.bmp	830	1	blank2r.bmp	870	3	bitter	870	1	!	1200	1	blank2r.bmp	1330
012218	15:03:03	1	1	5.0.10.0	2	3	dA12_valB_pract2	dM_A12_A2_pleasB	300	300	0	0	23	1	15	1	blank2r.bmp	0	1	+	0	7	C3r.bmp	500	1	blank2r.bmp	730	1	DHJF	730	5	C1r.bmp	830	1	blank2r.bmp	870	4	cute	870	1	!	1200	1	blank2r.bmp	1330
012218	15:03:03	1	1	5.0.10.0	2	4	dA12_valB_pract2	dM_A12_A2_unplB	300	300	0	0	23	1	187	1	blank2r.bmp	0	1	+	0	1	B1r.bmp	500	1	blank2r.bmp	730	1	DHJF	730	7	C3r.bmp	830	1	blank2r.bmp	870	2	sick	870	1	!	1200	1	blank2r.bmp	1330
012218	15:03:03	1	1	5.0.10.0	2	5	dA12_valB_pract2	dM_A12_A1_unplB	300	300	0	0	18	1	77	1	blank2r.bmp	0	1	+	0	2	B2r.bmp	500	1	blank2r.bmp	730	1	NPLW	730	4	B4r.bmp	830	1	blank2r.bmp	870	6	victim	870	1	!	1200	1	blank2r.bmp	1330
012218	15:03:03	1	1	5.0.10.0	2	6	dA12_valB_pract2	dM_A12_A2_pleasB	300	300	0	0	23	1	111	1	blank2r.bmp	0	1	+	0	8	C4r.bmp	500	1	blank2r.bmp	730	1	DHJF	730	1	B1r.bmp	830	1	blank2r.bmp	870	6	better	870	1	!	1200	1	blank2r.bmp	1330
012218	15:03:03	1	1	5.0.10.0	2	7	dA12_valB_pract2	dM_A12_A1_pleasB	300	300	0	0	18	1	154	1	blank2r.bmp	0	1	+	0	7	C3r.bmp	500	1	blank2r.bmp	730	1	NPLW	730	2	B2r.bmp	830	1	blank2r.bmp	870	3	true	870	1	!	1200	1	blank2r.bmp	1330
012218	15:03:03	1	1	5.0.10.0	2	8	dA12_valB_pract2	dM_A12_A2_pleasB	300	300	0	0	23	1	239	1	blank2r.bmp	0	1	+	0	6	C2r.bmp	500	1	blank2r.bmp	730	1	DHJF	730	7	C3r.bmp	830	1	blank2r.bmp	870	2	trust	870	1	!	1200	1	blank2r.bmp	1330
012218	15:03:03	1	1	5.0.10.0	2	9	dA12_valB_pract2	dM_A12_A1_pleasB	300	300	0	0	18	1	148	1	blank2r.bmp	0	1	+	0	4	B4r.bmp	500	1	blank2r.bmp	730	1	NPLW	730	3	B3r.bmp	830	1	blank2r.bmp	870	5	best	870	1	!	1200	1	blank2r.bmp	1330
012218	15:03:03	1	1	5.0.10.0	2	10	dA12_valB_pract2	dM_A12_A2_unplB	300	300	0	0	23	1	45	1	blank2r.bmp	0	1	+	0	3	B3r.bmp	500	1	blank2r.bmp	730	1	DHJF	730	6	C2r.bmp	830	1	blank2r.bmp	870	5	crime	870	1	!	1200	1	blank2r.bmp	1330
012218	15:03:03	1	1	5.0.10.0	2	11	dA12_valB_pract2	dM_A12_A1_unplB	300	300	0	0	18	1	147	1	blank2r.bmp	0	1	+	0	5	C1r.bmp	500	1	blank2r.bmp	730	1	NPLW	730	8	C4r.bmp	830	1	blank2r.bmp	870	4	bruise	870	1	!	1200	1	blank2r.bmp	1330
012218	15:03:03	1	1	5.0.10.0	2	12	dA12_valB_pract2	dM_A12_A1_pleasB	300	300	0	0	23	0	116	1	blank2r.bmp	0	1	+	0	1	B1r.bmp	500	1	blank2r.bmp	730	1	NPLW	730	5	C1r.bmp	830	1	blank2r.bmp	870	1	kiss	870	1	!	1200	1	blank2r.bmp	1330
012218	15:03:03	1	1	5.0.10.0	3	1	dA12_valB_070	d070_A12_A1_pleasB	300	300	0	0	18	1	205	1	blank2r.bmp	0	1	+	0	2	B2r.bmp	500	1	blank2r.bmp	800	1	NPLW	800	1	blank2r.bmp	870	4	cute	870	1	!	1234	1	blank2r.bmp	1368	0	0	0
012218	15:03:03	1	1	5.0.10.0	3	2	dA12_valB_070	d070_A12_A1_pleasB	300	300	0	0	18	1	1869	1	blank2r.bmp	0	1	+	0	5	C1r.bmp	639	1	blank2r.bmp	1976	1	NPLW	1976	1	blank2r.bmp	1977	1	kiss	1977	1	!	1977	1	blank2r.bmp	1980	0	0	0
012218	15:03:03	1	1	5.0.10.0	3	3	dA12_valB_070	d070_A12_A1_unplB	300	300	0	0	23	0	12	1	blank2r.bmp	9	1	+	9	7	C3r.bmp	500	1	blank2r.bmp	800	1	NPLW	800	1	blank2r.bmp	870	2	sick	870	1	!	1218	1	blank2r.bmp	1330	0	0	0
012218	15:03:03	1	1	5.0.10.0	3	4	dA12_valB_070	d070_A12_A2_pleasB	300	300	0	0	23	1	9	1	blank2r.bmp	0	1	+	0	1	B1r.bmp	500	1	blank2r.bmp	800	1	DHJF	800	1	blank2r.bmp	870	5	best	870	1	!	1205	1	blank2r.bmp	1351	0	0	0
012218	15:03:03	1	1	5.0.10.0	3	5	dA12_valB_070	d070_A12_A1_pleasB	300	300	0	0	18	1	18	1	blank2r.bmp	1	1	+	1	8	C4r.bmp	500	1	blank2r.bmp	800	1	NPLW	800	1	blank2r.bmp	887	6	better	887	1	!	1200	1	blank2r.bmp	1330	0	0	0
012218	15:03:03	1	1	5.0.10.0	3	6	dA12_valB_070	d070_A12_A2_unplB	300	300	0	0	23	1	51	1	blank2r.bmp	0	1	+	0	6	C2r.bmp	500	1	blank2r.bmp	800	1	DHJF	800	1	blank2r.bmp	870	3	bitter	870	1	!	1258	1	blank2r.bmp	1330	0	0	0
012218	15:03:03	1	1	5.0.10.0	3	7	dA12_valB_070	d070_A12_A1_pleasB	300	300	0	0	18	1	355	1	blank2r.bmp	0	1	+	0	4	B4r.bmp	545	1	blank2r.bmp	800	1	NPLW	800	1	blank2r.bmp	870	2	trust	870	1	!	1214	1	blank2r.bmp	1330	0	0	0
012218	15:03:03	1	1	5.0.10.0	3	8	dA12_valB_070	d070_A12_A2_pleasB	300	300	0	0	18	0	101	1	blank2r.bmp	0	1	+	0	3	B3r.bmp	500	1	blank2r.bmp	800	1	DHJF	800	1	blank2r.bmp	870	3	true	870	1	!	1200	1	blank2r.bmp	1330	0	0	0
012218	15:03:03	1	1	5.0.10.0	3	9	dA12_valB_070	d070_A12_A2_unplB	300	300	0	0	18	0	74	1	blank2r.bmp	0	1	+	0	4	B4r.bmp	500	1	blank2r.bmp	800	1	DHJF	800	1	blank2r.bmp	870	4	bruise	870	1	!	1200	1	blank2r.bmp	1330	0	0	0
012218	15:03:03	1	1	5.0.10.0	3	10	dA12_valB_070	d070_A12_A2_pleasB	300	300	0	0	18	0	77	1	blank2r.bmp	0	1	+	0	5	C1r.bmp	500	1	blank2r.bmp	800	1	DHJF	800	1	blank2r.bmp	870	4	cute	870	1	!	1200	1	blank2r.bmp	1330	0	0	0
012218	15:03:03	1	1	5.0.10.0	3	11	dA12_valB_070	d070_A12_A2_unplB	300	300	0	0	23	1	3912	1	blank2r.bmp	0	1	+	0	3	B3r.bmp	500	1	blank2r.bmp	800	1	DHJF	800	1	blank2r.bmp	870	1	miser	870	1	!	1200	1	blank2r.bmp	1330	0	0	0
012218	15:03:03	1	1	5.0.10.0	3	12	dA12_valB_070	d070_A12_A2_pleasB	300	300	0	0	18	0	742	1	blank2r.bmp	0	1	+	0	1	B1r.bmp	500	1	blank2r.bmp	800	1	DHJF	800	1	blank2r.bmp	870	2	trust	870	1	!	1200	1	blank2r.bmp	1330	0	0	0
012218	15:03:03	1	1	5.0.10.0	3	13	dA12_valB_070	d070_A12_A1_pleasB	300	300	0	0	18	1	591	1	blank2r.bmp	0	1	+	0	8	C4r.bmp	500	1	blank2r.bmp	800	1	NPLW	800	1	blank2r.bmp	870	6	better	870	1	!	1200	1	blank2r.bmp	1330	0	0	0
012218	15:03:03	1	1	5.0.10.0	3	14	dA12_valB_070	d070_A12_A1_unplB	300	300	0	0	23	0	66	1	blank2r.bmp	0	1	+	0	6	C2r.bmp	500	1	blank2r.bmp	800	1	NPLW	800	1	blank2r.bmp	870	6	victim	870	1	!	1200	1	blank2r.bmp	1330	0	0	0
012218	15:03:03	1	1	5.0.10.0	3	15	dA12_valB_070	d070_A12_A1_unplB	300	300	0	0	23	0	471	1	blank2r.bmp	0	1	+	0	2	B2r.bmp	500	1	blank2r.bmp	800	1	NPLW	800	1	blank2r.bmp	870	5	crime	870	1	!	1200	1	blank2r.bmp	1330	0	0	0
012218	15:03:03	1	1	5.0.10.0	3	16	dA12_valB_070	d070_A12_A1_unplB	300	300	0	0	18	1	105	1	blank2r.bmp	0	1	+	0	7	C3r.bmp	500	1	blank2r.bmp	800	1	NPLW	800	1	blank2r.bmp	870	6	victim	870	1	!	1200	1	blank2r.bmp	1330	0	0	0
012218	15:03:03	1	1	5.0.10.0	3	17	dA12_valB_070	d070_A12_A1_pleasB	300	300	0	0	18	1	2855	1	blank2r.bmp	83	1	+	83	3	B3r.bmp	500	1	blank2r.bmp	800	1	NPLW	800	1	blank2r.bmp	870	5	best	870	1	!	1200	1	blank2r.bmp	1330	0	0	0
012218	15:03:03	1	1	5.0.10.0	3	18	dA12_valB_070	d070_A12_A2_unplB	300	300	0	0	18	0	263	1	blank2r.bmp	5	1	+	5	4	B4r.bmp	500	1	blank2r.bmp	800	1	DHJF	800	1	blank2r.bmp	870	5	crime	870	1	!	1200	1	blank2r.bmp	1330	0	0	0
012218	15:03:03	1	1	5.0.10.0	3	19	dA12_valB_070	d070_A12_A1_unplB	300	300	0	0	18	1	237	1	blank2r.bmp	0	1	+	0	7	C3r.bmp	500	1	blank2r.bmp	800	1	NPLW	800	1	blank2r.bmp	870	3	bitter	870	1	!	1200	1	blank2r.bmp	1335	0	0	0
012218	15:03:03	1	1	5.0.10.0	3	20	dA12_valB_070	d070_A12_A2_pleasB	300	300	0	0	18	0	427	1	blank2r.bmp	0	1	+	0	2	B2r.bmp	500	1	blank2r.bmp	800	1	DHJF	800	1	blank2r.bmp	870	1	kiss	870	1	!	1200	1	blank2r.bmp	1330	0	0	0
012218	15:03:03	1	1	5.0.10.0	3	21	dA12_valB_070	d070_A12_A2_pleasB	300	300	0	0	18	0	215	1	blank2r.bmp	0	1	+	0	6	C2r.bmp	500	1	blank2r.bmp	800	1	DHJF	800	1	blank2r.bmp	870	3	true	870	1	!	1200	1	blank2r.bmp	1331	0	0	0
012218	15:03:03	1	1	5.0.10.0	3	22	dA12_valB_070	d070_A12_A1_unplB	300	300	0	0	18	1	137	1	blank2r.bmp	0	1	+	0	5	C1r.bmp	501	1	blank2r.bmp	800	1	NPLW	800	1	blank2r.bmp	870	4	bruise	870	1	!	1203	1	blank2r.bmp	1330	0	0	0
012218	15:03:03	1	1	5.0.10.0	3	23	dA12_valB_070	d070_A12_A1_unplB	300	300	0	0	23	0	173	1	blank2r.bmp	4	1	+	4	1	B1r.bmp	500	1	blank2r.bmp	800	1	NPLW	800	1	blank2r.bmp	870	1	miser	870	1	!	1200	1	blank2r.bmp	1330	0	0	0
012218	15:03:03	1	1	5.0.10.0	3	24	dA12_valB_070	d070_A12_A2_pleasB	300	300	0	0	18	0	29	1	blank2r.bmp	0	1	+	0	8	C4r.bmp	500	1	blank2r.bmp	800	1	DHJF	800	1	blank2r.bmp	870	1	kiss	870	1	!	1200	1	blank2r.bmp	1330	0	0	0
012218	15:03:03	1	1	5.0.10.0	3	25	dA12_valB_070	d070_A12_A1_unplB	300	300	0	0	18	1	49	1	blank2r.bmp	0	1	+	0	2	B2r.bmp	500	1	blank2r.bmp	800	1	NPLW	800	1	blank2r.bmp	870	2	sick	870	1	!	1200	1	blank2r.bmp	1330	0	0	0
012218	15:03:03	1	1	5.0.10.0	3	26	dA12_valB_070	d070_A12_A2_pleasB	300	300	0	0	18	0	70	1	blank2r.bmp	0	1	+	0	3	B3r.bmp	500	1	blank2r.bmp	800	1	DHJF	800	1	blank2r.bmp	870	4	cute	870	1	!	1200	1	blank2r.bmp	1330	0	0	0
012218	15:03:03	1	1	5.0.10.0	3	27	dA12_valB_070	d070_A12_A1_pleasB	300	300	0	0	18	1	78	1	blank2r.bmp	0	1	+	0	1	B1r.bmp	500	1	blank2r.bmp	800	1	NPLW	800	1	blank2r.bmp	870	6	better	870	1	!	1200	1	blank2r.bmp	1330	0	0	0
012218	15:03:03	1	1	5.0.10.0	3	28	dA12_valB_070	d070_A12_A2_unplB	300	300	0	0	23	1	35	1	blank2r.bmp	0	1	+	0	8	C4r.bmp	500	1	blank2r.bmp	800	1	DHJF	800	1	blank2r.bmp	870	4	bruise	870	1	!	1200	1	blank2r.bmp	1330	0	0	0
012218	15:03:03	1	1	5.0.10.0	3	29	dA12_valB_070	d070_A12_A1_pleasB	300	300	0	0	18	1	2099	1	blank2r.bmp	0	1	+	0	5	C1r.bmp	500	1	blank2r.bmp	800	1	NPLW	800	1	blank2r.bmp	870	3	true	870	1	!	1200	1	blank2r.bmp	1330	0	0	0
012218	15:03:03	1	1	5.0.10.0	3	30	dA12_valB_070	d070_A12_A1_unplB	300	300	0	0	18	1	687	1	blank2r.bmp	0	1	+	0	6	C2r.bmp	500	1	blank2r.bmp	800	1	NPLW	800	1	blank2r.bmp	870	6	victim	870	1	!	1200	1	blank2r.bmp	1330	0	0	0
012218	15:03:03	1	1	5.0.10.0	3	31	dA12_valB_070	d070_A12_A2_unplB	300	300	0	0	18	0	555	1	blank2r.bmp	0	1	+	0	4	B4r.bmp	500	1	blank2r.bmp	800	1	DHJF	800	1	blank2r.bmp	870	3	bitter	870	1	!	1200	1	blank2r.bmp	1330	0	0	0
012218	15:03:03	1	1	5.0.10.0	3	32	dA12_valB_070	d070_A12_A1_pleasB	300	300	0	0	23	0	3479	1	blank2r.bmp	0	1	+	0	7	C3r.bmp	500	1	blank2r.bmp	800	1	NPLW	800	1	blank2r.bmp	870	5	best	870	1	!	1200	1	blank2r.bmp	1330	0	0	0
012218	15:03:03	1	1	5.0.10.0	3	33	dA12_valB_070	d070_A12_A1_pleasB	300	300	0	0	23	0	312	1	blank2r.bmp	0	1	+	0	7	C3r.bmp	500	1	blank2r.bmp	800	1	NPLW	800	1	blank2r.bmp	870	2	trust	870	1	!	1200	1	blank2r.bmp	1330	0	0	0
012218	15:03:03	1	1	5.0.10.0	3	34	dA12_valB_070	d070_A12_A2_pleasB	300	300	0	0	18	0	170	1	blank2r.bmp	0	1	+	0	4	B4r.bmp	500	1	blank2r.bmp	800	1	DHJF	800	1	blank2r.bmp	870	4	cute	870	1	!	1200	1	blank2r.bmp	1330	0	0	0
012218	15:03:03	1	1	5.0.10.0	3	35	dA12_valB_070	d070_A12_A1_unplB	300	300	0	0	23	0	230	1	blank2r.bmp	0	1	+	0	2	B2r.bmp	500	1	blank2r.bmp	800	1	NPLW	800	1	blank2r.bmp	870	1	miser	870	1	!	1200	1	blank2r.bmp	1330	0	0	0
012218	15:03:03	1	1	5.0.10.0	3	36	dA12_valB_070	d070_A12_A2_unplB	300	300	0	0	23	1	24	1	blank2r.bmp	0	1	+	0	3	B3r.bmp	500	1	blank2r.bmp	800	1	DHJF	800	1	blank2r.bmp	870	5	crime	870	1	!	1200	1	blank2r.bmp	1330	0	0	0
012218	15:03:03	1	1	5.0.10.0	3	37	dA12_valB_070	d070_A12_A2_unplB	300	300	0	0	18	0	44	1	blank2r.bmp	0	1	+	0	8	C4r.bmp	500	1	blank2r.bmp	800	1	DHJF	800	1	blank2r.bmp	870	2	sick	870	1	!	1200	1	blank2r.bmp	1330	0	0	0
012218	15:03:03	1	1	5.0.10.0	3	38	dA12_valB_070	d070_A12_A2_unplB	300	300	0	0	18	0	112	1	blank2r.bmp	0	1	+	0	5	C1r.bmp	500	1	blank2r.bmp	800	1	DHJF	800	1	blank2r.bmp	870	6	victim	870	1	!	1200	1	blank2r.bmp	1330	0	0	0
012218	15:03:03	1	1	5.0.10.0	3	39	dA12_valB_070	d070_A12_A2_pleasB	300	300	0	0	23	1	47	1	blank2r.bmp	0	1	+	0	1	B1r.bmp	500	1	blank2r.bmp	800	1	DHJF	800	1	blank2r.bmp	870	5	best	870	1	!	1200	1	blank2r.bmp	1330	0	0	0
012218	15:03:03	1	1	5.0.10.0	3	40	dA12_valB_070	d070_A12_A1_unplB	300	300	0	0	18	1	61	1	blank2r.bmp	0	1	+	0	6	C2r.bmp	500	1	blank2r.bmp	800	1	NPLW	800	1	blank2r.bmp	870	3	bitter	870	1	!	1200	1	blank2r.bmp	1330	0	0	0
012218	15:03:03	1	1	5.0.10.0	3	41	dA12_valB_070	d070_A12_A2_unplB	300	300	0	0	23	1	1881	1	blank2r.bmp	0	1	+	0	3	B3r.bmp	500	1	blank2r.bmp	800	1	DHJF	800	1	blank2r.bmp	870	2	sick	870	1	!	1200	1	blank2r.bmp	1330	0	0	0
012218	15:03:03	1	1	5.0.10.0	3	42	dA12_valB_070	d070_A12_A1_unplB	300	300	0	0	18	1	336	1	blank2r.bmp	0	1	+	0	1	B1r.bmp	500	1	blank2r.bmp	800	1	NPLW	800	1	blank2r.bmp	870	1	miser	870	1	!	1200	1	blank2r.bmp	1330	0	0	0
012218	15:03:03	1	1	5.0.10.0	3	43	dA12_valB_070	d070_A12_A2_pleasB	300	300	0	0	18	0	486	1	blank2r.bmp	0	1	+	0	4	B4r.bmp	500	1	blank2r.bmp	800	1	DHJF	800	1	blank2r.bmp	870	1	kiss	870	1	!	1200	1	blank2r.bmp	1330	0	0	0
012218	15:03:03	1	1	5.0.10.0	3	44	dA12_valB_070	d070_A12_A2_unplB	300	300	0	0	23	1	393	1	blank2r.bmp	0	1	+	0	6	C2r.bmp	500	1	blank2r.bmp	800	1	DHJF	800	1	blank2r.bmp	870	4	bruise	870	1	!	1200	1	blank2r.bmp	1330	0	0	0
012218	15:03:03	1	1	5.0.10.0	3	45	dA12_valB_070	d070_A12_A2_unplB	300	300	0	0	23	1	586	1	blank2r.bmp	0	1	+	0	8	C4r.bmp	500	1	blank2r.bmp	800	1	DHJF	800	1	blank2r.bmp	870	5	crime	870	1	!	1200	1	blank2r.bmp	1330	0	0	0
012218	15:03:03	1	1	5.0.10.0	3	46	dA12_valB_070	d070_A12_A2_pleasB	300	300	0	0	23	1	698	1	blank2r.bmp	0	1	+	0	2	B2r.bmp	500	1	blank2r.bmp	800	1	DHJF	800	1	blank2r.bmp	870	6	better	870	1	!	1200	1	blank2r.bmp	1330	0	0	0
012218	15:03:03	1	1	5.0.10.0	3	47	dA12_valB_070	d070_A12_A1_pleasB	300	300	0	0	18	1	723	1	blank2r.bmp	0	1	+	0	5	C1r.bmp	500	1	blank2r.bmp	800	1	NPLW	800	1	blank2r.bmp	870	3	true	870	1	!	1200	1	blank2r.bmp	1330	0	0	0
012218	15:03:03	1	1	5.0.10.0	3	48	dA12_valB_070	d070_A12_A1_pleasB	300	300	0	0	18	1	459	1	blank2r.bmp	0	1	+	0	7	C3r.bmp	500	1	blank2r.bmp	800	1	NPLW	800	1	blank2r.bmp	870	2	trust	870	1	!	1200	1	blank2r.bmp	1330	0	0	0
012218	15:11:42	1	1	5.0.10.0	3	1	dA12_valB_070	d070_A12_A1_unplB	300	300	0	0	23	0	266	1	blank2r.bmp	0	1	+	0	7	C3r.bmp	500	1	blank2r.bmp	800	1	NPLW	800	1	blank2r.bmp	870	4	bruise	870	1	!	1200	1	blank2r.bmp	1330	0	0	0
012218	15:11:42	1	1	5.0.10.0	3	2	dA12_valB_070	d070_A12_A1_pleasB	300	300	0	0	18	1	15	1	blank2r.bmp	0	1	+	0	6	C2r.bmp	500	1	blank2r.bmp	800	1	NPLW	800	1	blank2r.bmp	870	3	true	870	1	!	1200	1	blank2r.bmp	1330	0	0	0
012218	15:11:42	1	1	5.0.10.0	3	3	dA12_valB_070	d070_A12_A1_unplB	300	300	0	0	18	1	4	1	blank2r.bmp	0	1	+	0	2	B2r.bmp	500	1	blank2r.bmp	800	1	NPLW	800	1	blank2r.bmp	870	6	victim	870	1	!	1200	1	blank2r.bmp	1330	0	0	0
012218	15:11:42	1	1	5.0.10.0	3	4	dA12_valB_070	d070_A12_A2_unplB	300	300	0	0	23	1	14	1	blank2r.bmp	0	1	+	0	4	B4r.bmp	500	1	blank2r.bmp	800	1	DHJF	800	1	blank2r.bmp	870	5	crime	870	1	!	1200	1	blank2r.bmp	1330	0	0	0
012218	15:11:42	1	1	5.0.10.0	3	5	dA12_valB_070	d070_A12_A1_pleasB	300	300	0	0	18	1	1548	1	blank2r.bmp	0	1	+	0	1	B1r.bmp	500	1	blank2r.bmp	800	1	NPLW	800	1	blank2r.bmp	870	2	trust	870	1	!	1200	1	blank2r.bmp	1330	0	0	0
012218	15:11:42	1	1	5.0.10.0	3	6	dA12_valB_070	d070_A12_A1_pleasB	300	300	0	0	18	1	223	1	blank2r.bmp	0	1	+	0	3	B3r.bmp	500	1	blank2r.bmp	800	1	NPLW	800	1	blank2r.bmp	870	4	cute	870	1	!	1200	1	blank2r.bmp	1330	0	0	0
012218	15:11:42	1	1	5.0.10.0	3	7	dA12_valB_070	d070_A12_A2_unplB	300	300	0	0	18	0	62	1	blank2r.bmp	0	1	+	0	8	C4r.bmp	500	1	blank2r.bmp	800	1	DHJF	800	1	blank2r.bmp	870	2	sick	870	1	!	1200	1	blank2r.bmp	1330	0	0	0
012218	15:11:42	1	1	5.0.10.0	3	8	dA12_valB_070	d070_A12_A1_unplB	300	300	0	0	18	1	96	1	blank2r.bmp	0	1	+	0	5	C1r.bmp	500	1	blank2r.bmp	800	1	NPLW	800	1	blank2r.bmp	870	1	miser	870	1	!	1200	1	blank2r.bmp	1330	0	0	0
012218	15:11:42	1	1	5.0.10.0	3	9	dA12_valB_070	d070_A12_A2_pleasB	300	300	0	0	18	0	327	1	blank2r.bmp	0	1	+	0	2	B2r.bmp	500	1	blank2r.bmp	800	1	DHJF	800	1	blank2r.bmp	870	1	kiss	870	1	!	1200	1	blank2r.bmp	1330	0	0	0
012218	15:11:42	1	1	5.0.10.0	3	10	dA12_valB_070	d070_A12_A1_unplB	300	300	0	0	23	0	262	1	blank2r.bmp	0	1	+	0	1	B1r.bmp	500	1	blank2r.bmp	800	1	NPLW	800	1	blank2r.bmp	870	3	bitter	870	1	!	1200	1	blank2r.bmp	1330	0	0	0
012218	15:11:42	1	1	5.0.10.0	3	11	dA12_valB_070	d070_A12_A1_pleasB	300	300	0	0	23	0	477	1	blank2r.bmp	0	1	+	0	3	B3r.bmp	500	1	blank2r.bmp	800	1	NPLW	800	1	blank2r.bmp	870	6	better	870	1	!	1200	1	blank2r.bmp	1330	0	0	0
012218	15:11:42	1	1	5.0.10.0	3	12	dA12_valB_070	d070_A12_A1_pleasB	300	300	0	0	18	1	88	1	blank2r.bmp	0	1	+	0	8	C4r.bmp	500	1	blank2r.bmp	800	1	NPLW	800	1	blank2r.bmp	870	5	best	870	1	!	1200	1	blank2r.bmp	1330	0	0	0
012218	15:11:42	1	1	5.0.10.0	3	13	dA12_valB_070	d070_A12_A1_unplB	300	300	0	0	18	1	193	1	blank2r.bmp	0	1	+	0	6	C2r.bmp	500	1	blank2r.bmp	800	1	NPLW	800	1	blank2r.bmp	870	2	sick	870	1	!	1200	1	blank2r.bmp	1330	0	0	0
012218	15:11:42	1	1	5.0.10.0	3	14	dA12_valB_070	d070_A12_A1_unplB	300	300	0	0	23	0	218	1	blank2r.bmp	0	1	+	0	4	B4r.bmp	500	1	blank2r.bmp	800	1	NPLW	800	1	blank2r.bmp	870	5	crime	870	1	!	1200	1	blank2r.bmp	1330	0	0	0
012218	15:11:42	1	1	5.0.10.0	3	15	dA12_valB_070	d070_A12_A2_pleasB	300	300	0	0	23	1	240	1	blank2r.bmp	0	1	+	0	7	C3r.bmp	500	1	blank2r.bmp	800	1	DHJF	800	1	blank2r.bmp	870	3	true	870	1	!	1200	1	blank2r.bmp	1330	0	0	0
012218	15:11:42	1	1	5.0.10.0	3	16	dA12_valB_070	d070_A12_A1_pleasB	300	300	0	0	23	0	377	1	blank2r.bmp	0	1	+	0	5	C1r.bmp	500	1	blank2r.bmp	800	1	NPLW	800	1	blank2r.bmp	870	4	cute	870	1	!	1200	1	blank2r.bmp	1330	0	0	0
012218	15:11:42	1	1	5.0.10.0	3	17	dA12_valB_070	d070_A12_A1_unplB	300	300	0	0	23	0	299	1	blank2r.bmp	0	1	+	0	4	B4r.bmp	500	1	blank2r.bmp	800	1	NPLW	800	1	blank2r.bmp	870	3	bitter	870	1	!	1200	1	blank2r.bmp	1330	0	0	0
012218	15:11:42	1	1	5.0.10.0	3	18	dA12_valB_070	d070_A12_A2_pleasB	300	300	0	0	18	0	203	1	blank2r.bmp	0	1	+	0	1	B1r.bmp	500	1	blank2r.bmp	800	1	DHJF	800	1	blank2r.bmp	870	2	trust	870	1	!	1200	1	blank2r.bmp	1330	0	0	0
012218	15:11:42	1	1	5.0.10.0	3	19	dA12_valB_070	d070_A12_A1_pleasB	300	300	0	0	18	1	56	1	blank2r.bmp	0	1	+	0	7	C3r.bmp	500	1	blank2r.bmp	800	1	NPLW	800	1	blank2r.bmp	870	5	best	870	1	!	1200	1	blank2r.bmp	1330	0	0	0
012218	15:11:42	1	1	5.0.10.0	3	20	dA12_valB_070	d070_A12_A1_unplB	300	300	0	0	23	0	176	1	blank2r.bmp	0	1	+	0	8	C4r.bmp	500	1	blank2r.bmp	800	1	NPLW	800	1	blank2r.bmp	870	4	bruise	870	1	!	1200	1	blank2r.bmp	1330	0	0	0
012218	15:11:42	1	1	5.0.10.0	3	21	dA12_valB_070	d070_A12_A2_pleasB	300	300	0	0	18	0	677	1	blank2r.bmp	0	1	+	0	3	B3r.bmp	500	1	blank2r.bmp	800	1	DHJF	800	1	blank2r.bmp	870	6	better	870	1	!	1200	1	blank2r.bmp	1330	0	0	0
012218	15:11:42	1	1	5.0.10.0	3	22	dA12_valB_070	d070_A12_A2_pleasB	300	300	0	0	18	0	576	1	blank2r.bmp	0	1	+	0	2	B2r.bmp	500	1	blank2r.bmp	800	1	DHJF	800	1	blank2r.bmp	870	1	kiss	870	1	!	1200	1	blank2r.bmp	1330	0	0	0
012218	15:11:42	1	1	5.0.10.0	3	23	dA12_valB_070	d070_A12_A1_unplB	300	300	0	0	Ctrl+'B'	1	632	1	blank2r.bmp	0	1	+	0	5	C1r.bmp	500	1	blank2r.bmp	800	1	NPLW	800	1	blank2r.bmp	870	6	victim	870	1	!	1200	1	blank2r.bmp	1330	0	0	0
012218	15:11:42	1	1	5.0.10.0	5	1	dB12_valA_pract1	dL_B12_B1_unplA	300	300	0	0	18	1	251	1	blank2r.bmp	0	1	+	0	6	C2r.bmp	500	1	blank2r.bmp	700	1	BMVZ	700	1	B1r.bmp	830	1	blank2r.bmp	870	4	oaf	870	1	!	1200	1	blank2r.bmp	1330
012218	15:11:42	1	1	5.0.10.0	5	2	dB12_valA_pract1	dL_B12_B1_unplA	300	300	0	0	18	1	3840	1	blank2r.bmp	0	1	+	0	2	B2r.bmp	500	1	blank2r.bmp	700	1	BMVZ	700	3	B3r.bmp	830	1	blank2r.bmp	870	1	flaw	870	1	!	1200	1	blank2r.bmp	1330
012218	15:11:42	1	1	5.0.10.0	5	3	dB12_valA_pract1	dL_B12_B1_pleasA	300	300	0	0	18	1	1687	1	blank2r.bmp	0	1	+	0	1	B1r.bmp	500	1	blank2r.bmp	700	1	BMVZ	700	6	C2r.bmp	830	1	blank2r.bmp	870	3	play	870	1	!	1200	1	blank2r.bmp	1330
012218	15:11:42	1	1	5.0.10.0	5	4	dB12_valA_pract1	dL_B12_B2_pleasA	300	300	0	0	23	1	154	1	blank2r.bmp	0	1	+	0	8	C4r.bmp	500	1	blank2r.bmp	700	1	GKQX	700	2	B2r.bmp	830	1	blank2r.bmp	870	5	jolly	870	1	!	1200	1	blank2r.bmp	1330
012218	15:11:42	1	1	5.0.10.0	5	5	dB12_valA_pract1	dL_B12_B1_unplA	300	300	0	0	18	1	68	1	blank2r.bmp	0	1	+	0	5	C1r.bmp	500	1	blank2r.bmp	700	1	BMVZ	700	8	C4r.bmp	830	1	blank2r.bmp	870	6	old	870	1	!	1200	1	blank2r.bmp	1330
012218	15:11:42	1	1	5.0.10.0	5	6	dB12_valA_pract1	dL_B12_B2_unplA	300	300	0	0	23	1	49	1	blank2r.bmp	0	1	+	0	7	C3r.bmp	500	1	blank2r.bmp	700	1	GKQX	700	5	C1r.bmp	830	1	blank2r.bmp	870	2	folly	870	1	!	1200	1	blank2r.bmp	1330
012218	15:11:42	1	1	5.0.10.0	5	7	dB12_valA_pract1	dL_B12_B2_pleasA	300	300	0	0	23	1	46	1	blank2r.bmp	0	1	+	0	3	B3r.bmp	500	1	blank2r.bmp	700	1	GKQX	700	4	B4r.bmp	830	1	blank2r.bmp	870	2	joy	870	1	!	1200	1	blank2r.bmp	1330
012218	15:11:42	1	1	5.0.10.0	5	8	dB12_valA_pract1	dL_B12_B2_pleasA	300	300	0	0	23	1	72	1	blank2r.bmp	0	1	+	0	6	C2r.bmp	500	1	blank2r.bmp	700	1	GKQX	700	7	C3r.bmp	830	1	blank2r.bmp	870	4	happy	870	1	!	1200	1	blank2r.bmp	1330
012218	15:11:42	1	1	5.0.10.0	5	9	dB12_valA_pract1	dL_B12_B1_pleasA	300	300	0	0	18	1	1578	1	blank2r.bmp	0	1	+	0	4	B4r.bmp	500	1	blank2r.bmp	700	1	BMVZ	700	8	C4r.bmp	830	1	blank2r.bmp	870	1	dandy	870	1	!	1200	1	blank2r.bmp	1330
012218	15:11:42	1	1	5.0.10.0	5	10	dB12_valA_pract1	dL_B12_B2_unplA	300	300	0	0	23	1	214	1	blank2r.bmp	0	1	+	0	2	B2r.bmp	500	1	blank2r.bmp	700	1	GKQX	700	1	B1r.bmp	830	1	blank2r.bmp	870	3	flood	870	1	!	1200	1	blank2r.bmp	1330
012218	15:11:42	1	1	5.0.10.0	5	11	dB12_valA_pract1	dL_B12_B1_pleasA	300	300	0	0	18	1	99	1	blank2r.bmp	0	1	+	0	5	C1r.bmp	500	1	blank2r.bmp	700	1	BMVZ	700	3	B3r.bmp	830	1	blank2r.bmp	870	6	fond	870	1	!	1200	1	blank2r.bmp	1330
012218	15:11:42	1	1	5.0.10.0	5	12	dB12_valA_pract1	dL_B12_B2_unplA	300	300	0	0	18	0	231	1	blank2r.bmp	0	1	+	0	1	B1r.bmp	500	1	blank2r.bmp	700	1	GKQX	700	5	C1r.bmp	830	1	blank2r.bmp	870	5	flop	870	1	!	1200	1	blank2r.bmp	1330
012218	15:11:42	1	1	5.0.10.0	6	1	dB12_valA_pract2	dM_B12_B2_unplA	300	300	0	0	23	1	1087	1	blank2r.bmp	0	1	+	0	7	C3r.bmp	500	1	blank2r.bmp	730	1	GKQX	730	6	C2r.bmp	830	1	blank2r.bmp	870	6	old	870	1	!	1200	1	blank2r.bmp	1330
012218	15:11:42	1	1	5.0.10.0	6	2	dB12_valA_pract2	dM_B12_B1_pleasA	300	300	0	0	18	1	141	1	blank2r.bmp	0	1	+	0	4	B4r.bmp	500	1	blank2r.bmp	730	1	BMVZ	730	2	B2r.bmp	830	1	blank2r.bmp	870	2	joy	870	1	!	1200	1	blank2r.bmp	1330
012218	15:11:42	1	1	5.0.10.0	6	3	dB12_valA_pract2	dM_B12_B1_unplA	300	300	0	0	18	1	207	1	blank2r.bmp	0	1	+	0	3	B3r.bmp	500	1	blank2r.bmp	730	1	BMVZ	730	4	B4r.bmp	830	1	blank2r.bmp	870	1	flaw	870	1	!	1200	1	blank2r.bmp	1330
012218	15:11:42	1	1	5.0.10.0	6	4	dB12_valA_pract2	dM_B12_B1_pleasA	300	300	0	0	18	1	133	1	blank2r.bmp	0	1	+	0	8	C4r.bmp	500	1	blank2r.bmp	730	1	BMVZ	730	7	C3r.bmp	830	1	blank2r.bmp	870	3	play	870	1	!	1200	1	blank2r.bmp	1330
012218	15:11:42	1	1	5.0.10.0	6	5	dB12_valA_pract2	dM_B12_B2_unplA	300	300	0	0	23	1	144	1	blank2r.bmp	0	1	+	0	6	C2r.bmp	500	1	blank2r.bmp	730	1	GKQX	730	2	B2r.bmp	830	1	blank2r.bmp	870	4	oaf	870	1	!	1200	1	blank2r.bmp	1330
012218	15:11:42	1	1	5.0.10.0	6	6	dB12_valA_pract2	dM_B12_B2_pleasA	300	300	0	0	23	1	417	1	blank2r.bmp	0	1	+	0	3	B3r.bmp	500	1	blank2r.bmp	730	1	GKQX	730	8	C4r.bmp	830	1	blank2r.bmp	870	6	fond	870	1	!	1200	1	blank2r.bmp	1330
012218	15:11:42	1	1	5.0.10.0	6	7	dB12_valA_pract2	dM_B12_B1_unplA	300	300	0	0	18	1	159	1	blank2r.bmp	0	1	+	0	6	C2r.bmp	500	1	blank2r.bmp	730	1	BMVZ	730	4	B4r.bmp	830	1	blank2r.bmp	870	2	folly	870	1	!	1200	1	blank2r.bmp	1330
012218	15:11:42	1	1	5.0.10.0	6	8	dB12_valA_pract2	dM_B12_B2_unplA	300	300	0	0	18	0	328	1	blank2r.bmp	0	1	+	0	7	C3r.bmp	500	1	blank2r.bmp	730	1	GKQX	730	5	C1r.bmp	830	1	blank2r.bmp	870	3	flood	870	1	!	1200	1	blank2r.bmp	1330
012218	15:11:42	1	1	5.0.10.0	6	9	dB12_valA_pract2	dM_B12_B2_pleasA	300	300	0	0	23	1	217	1	blank2r.bmp	0	1	+	0	1	B1r.bmp	500	1	blank2r.bmp	730	1	GKQX	730	3	B3r.bmp	830	1	blank2r.bmp	870	4	happy	870	1	!	1200	1	blank2r.bmp	1330
012218	15:11:42	1	1	5.0.10.0	6	10	dB12_valA_pract2	dM_B12_B2_pleasA	300	300	0	0	18	0	412	1	blank2r.bmp	0	1	+	0	8	C4r.bmp	500	1	blank2r.bmp	730	1	GKQX	730	6	C2r.bmp	830	1	blank2r.bmp	870	5	jolly	870	1	!	1200	1	blank2r.bmp	1330
012218	15:11:42	1	1	5.0.10.0	6	11	dB12_valA_pract2	dM_B12_B1_pleasA	300	300	0	0	23	0	253	1	blank2r.bmp	0	1	+	0	2	B2r.bmp	500	1	blank2r.bmp	730	1	BMVZ	730	1	B1r.bmp	830	1	blank2r.bmp	870	1	dandy	870	1	!	1200	1	blank2r.bmp	1330
012218	15:11:42	1	1	5.0.10.0	6	12	dB12_valA_pract2	dM_B12_B1_unplA	300	300	0	0	18	1	176	1	blank2r.bmp	0	1	+	0	5	C1r.bmp	500	1	blank2r.bmp	730	1	BMVZ	730	7	C3r.bmp	830	1	blank2r.bmp	870	5	flop	870	1	!	1200	1	blank2r.bmp	1330
012218	15:11:42	1	1	5.0.10.0	7	1	dB12_valA_080	d080_B12_B2_pleasA	300	300	0	0	23	1	2045	1	blank2r.bmp	0	1	+	0	4	B4r.bmp	500	1	blank2r.bmp	800	1	GKQX	800	1	blank2r.bmp	880	5	jolly	880	1	!	1210	1	blank2r.bmp	1340	0	0	0
012218	15:11:42	1	1	5.0.10.0	7	2	dB12_valA_080	d080_B12_B2_unplA	300	300	0	0	23	1	269	1	blank2r.bmp	0	1	+	0	1	B1r.bmp	500	1	blank2r.bmp	800	1	GKQX	800	1	blank2r.bmp	880	4	oaf	880	1	!	1210	1	blank2r.bmp	1340	0	0	0
012218	15:11:42	1	1	5.0.10.0	7	3	dB12_valA_080	d080_B12_B1_unplA	300	300	0	0	18	1	1738	1	blank2r.bmp	0	1	+	0	3	B3r.bmp	500	1	blank2r.bmp	800	1	BMVZ	800	1	blank2r.bmp	880	1	flaw	880	1	!	1210	1	blank2r.bmp	1340	0	0	0
012218	15:11:42	1	1	5.0.10.0	7	4	dB12_valA_080	d080_B12_B1_unplA	300	300	0	0	18	1	98	1	blank2r.bmp	0	1	+	0	8	C4r.bmp	500	1	blank2r.bmp	800	1	BMVZ	800	1	blank2r.bmp	880	6	old	880	1	!	1210	1	blank2r.bmp	1340	0	0	0
012218	15:11:42	1	1	5.0.10.0	7	5	dB12_valA_080	d080_B12_B2_unplA	300	300	0	0	23	1	1447	1	blank2r.bmp	0	1	+	0	6	C2r.bmp	500	1	blank2r.bmp	800	1	GKQX	800	1	blank2r.bmp	880	5	flop	880	1	!	1210	1	blank2r.bmp	1340	0	0	0
012218	15:11:42	1	1	5.0.10.0	7	6	dB12_valA_080	d080_B12_B2_unplA	300	300	0	0	18	0	199	1	blank2r.bmp	0	1	+	0	2	B2r.bmp	500	1	blank2r.bmp	800	1	GKQX	800	1	blank2r.bmp	880	2	folly	880	1	!	1210	1	blank2r.bmp	1340	0	0	0
012218	15:11:42	1	1	5.0.10.0	7	7	dB12_valA_080	d080_B12_B1_pleasA	300	300	0	0	18	1	23	1	blank2r.bmp	0	1	+	0	4	B4r.bmp	500	1	blank2r.bmp	800	1	BMVZ	800	1	blank2r.bmp	880	2	joy	880	1	!	1210	1	blank2r.bmp	1340	0	0	0
012218	15:11:42	1	1	5.0.10.0	7	8	dB12_valA_080	d080_B12_B1_unplA	300	300	0	0	18	1	167	1	blank2r.bmp	0	1	+	0	5	C1r.bmp	500	1	blank2r.bmp	800	1	BMVZ	800	1	blank2r.bmp	880	3	flood	880	1	!	1210	1	blank2r.bmp	1340	0	0	0
012218	15:11:42	1	1	5.0.10.0	7	9	dB12_valA_080	d080_B12_B1_pleasA	300	300	0	0	18	1	16	1	blank2r.bmp	0	1	+	0	7	C3r.bmp	500	1	blank2r.bmp	800	1	BMVZ	800	1	blank2r.bmp	880	3	play	880	1	!	1210	1	blank2r.bmp	1340	0	0	0
012218	15:11:42	1	1	5.0.10.0	7	10	dB12_valA_080	d080_B12_B1_pleasA	300	300	0	0	18	1	219	1	blank2r.bmp	0	1	+	0	8	C4r.bmp	500	1	blank2r.bmp	800	1	BMVZ	800	1	blank2r.bmp	880	4	happy	880	1	!	1210	1	blank2r.bmp	1340	0	0	0
012218	15:11:42	1	1	5.0.10.0	7	11	dB12_valA_080	d080_B12_B1_unplA	300	300	0	0	18	1	80	1	blank2r.bmp	0	1	+	0	2	B2r.bmp	500	1	blank2r.bmp	800	1	BMVZ	800	1	blank2r.bmp	880	4	oaf	880	1	!	1210	1	blank2r.bmp	1340	0	0	0
012218	15:11:42	1	1	5.0.10.0	7	12	dB12_valA_080	d080_B12_B2_unplA	300	300	0	0	23	1	1565	1	blank2r.bmp	0	1	+	0	5	C1r.bmp	500	1	blank2r.bmp	800	1	GKQX	800	1	blank2r.bmp	880	5	flop	880	1	!	1210	1	blank2r.bmp	1340	0	0	0
012218	15:11:42	1	1	5.0.10.0	7	13	dB12_valA_080	d080_B12_B2_pleasA	300	300	0	0	23	1	209	1	blank2r.bmp	0	1	+	0	7	C3r.bmp	500	1	blank2r.bmp	800	1	GKQX	800	1	blank2r.bmp	880	1	dandy	880	1	!	1210	1	blank2r.bmp	1340	0	0	0
012218	15:11:42	1	1	5.0.10.0	7	14	dB12_valA_080	d080_B12_B2_pleasA	300	300	0	0	18	0	170	1	blank2r.bmp	0	1	+	0	1	B1r.bmp	500	1	blank2r.bmp	800	1	GKQX	800	1	blank2r.bmp	880	6	fond	880	1	!	1210	1	blank2r.bmp	1340	0	0	0
012218	15:11:42	1	1	5.0.10.0	7	15	dB12_valA_080	d080_B12_B1_unplA	300	300	0	0	18	1	178	1	blank2r.bmp	0	1	+	0	3	B3r.bmp	500	1	blank2r.bmp	800	1	BMVZ	800	1	blank2r.bmp	880	3	flood	880	1	!	1210	1	blank2r.bmp	1340	0	0	0
012218	15:11:42	1	1	5.0.10.0	7	16	dB12_valA_080	d080_B12_B2_unplA	300	300	0	0	23	1	65	1	blank2r.bmp	0	1	+	0	6	C2r.bmp	500	1	blank2r.bmp	800	1	GKQX	800	1	blank2r.bmp	880	2	folly	880	1	!	1210	1	blank2r.bmp	1340	0	0	0
012218	15:11:42	1	1	5.0.10.0	7	17	dB12_valA_080	d080_B12_B2_unplA	300	300	0	0	23	1	1360	1	blank2r.bmp	0	1	+	0	4	B4r.bmp	500	1	blank2r.bmp	800	1	GKQX	800	1	blank2r.bmp	880	6	old	880	1	!	1210	1	blank2r.bmp	1340	0	0	0
012218	15:11:42	1	1	5.0.10.0	7	18	dB12_valA_080	d080_B12_B1_unplA	300	300	0	0	18	1	210	1	blank2r.bmp	0	1	+	0	8	C4r.bmp	500	1	blank2r.bmp	800	1	BMVZ	800	1	blank2r.bmp	880	1	flaw	880	1	!	1210	1	blank2r.bmp	1340	0	0	0
012218	15:11:42	1	1	5.0.10.0	7	19	dB12_valA_080	d080_B12_B2_pleasA	300	300	0	0	23	1	49	1	blank2r.bmp	0	1	+	0	1	B1r.bmp	500	1	blank2r.bmp	800	1	GKQX	800	1	blank2r.bmp	880	5	jolly	880	1	!	1210	1	blank2r.bmp	1340	0	0	0
012218	15:11:42	1	1	5.0.10.0	7	20	dB12_valA_080	d080_B12_B1_unplA	300	300	0	0	18	1	174	1	blank2r.bmp	0	1	+	0	5	C1r.bmp	500	1	blank2r.bmp	800	1	BMVZ	800	1	blank2r.bmp	880	5	flop	880	1	!	1210	1	blank2r.bmp	1340	0	0	0
012218	15:11:42	1	1	5.0.10.0	7	21	dB12_valA_080	d080_B12_B1_pleasA	300	300	0	0	18	1	254	1	blank2r.bmp	0	1	+	0	4	B4r.bmp	500	1	blank2r.bmp	800	1	BMVZ	800	1	blank2r.bmp	880	6	fond	880	1	!	1210	1	blank2r.bmp	1340	0	0	0
012218	15:11:42	1	1	5.0.10.0	7	22	dB12_valA_080	d080_B12_B1_pleasA	300	300	0	0	18	1	256	1	blank2r.bmp	0	1	+	0	6	C2r.bmp	500	1	blank2r.bmp	800	1	BMVZ	800	1	blank2r.bmp	880	3	play	880	1	!	1210	1	blank2r.bmp	1340	0	0	0
012218	15:11:42	1	1	5.0.10.0	7	23	dB12_valA_080	d080_B12_B2_unplA	300	300	0	0	23	1	240	1	blank2r.bmp	0	1	+	0	2	B2r.bmp	500	1	blank2r.bmp	800	1	GKQX	800	1	blank2r.bmp	880	6	old	880	1	!	1210	1	blank2r.bmp	1340	0	0	0
012218	15:11:42	1	1	5.0.10.0	7	24	dB12_valA_080	d080_B12_B1_pleasA	300	300	0	0	18	1	197	1	blank2r.bmp	0	1	+	0	3	B3r.bmp	500	1	blank2r.bmp	800	1	BMVZ	800	1	blank2r.bmp	880	2	joy	880	1	!	1210	1	blank2r.bmp	1340	0	0	0
012218	15:11:42	1	1	5.0.10.0	7	25	dB12_valA_080	d080_B12_B2_pleasA	300	300	0	0	18	0	172	1	blank2r.bmp	0	1	+	0	7	C3r.bmp	500	1	blank2r.bmp	800	1	GKQX	800	1	blank2r.bmp	880	4	happy	880	1	!	1210	1	blank2r.bmp	1340	0	0	0
012218	15:11:42	1	1	5.0.10.0	7	26	dB12_valA_080	d080_B12_B1_pleasA	300	300	0	0	18	1	393	1	blank2r.bmp	0	1	+	0	6	C2r.bmp	500	1	blank2r.bmp	800	1	BMVZ	800	1	blank2r.bmp	880	1	dandy	880	1	!	1210	1	blank2r.bmp	1340	0	0	0
012218	15:11:42	1	1	5.0.10.0	7	27	dB12_valA_080	d080_B12_B2_pleasA	300	300	0	0	23	1	274	1	blank2r.bmp	0	1	+	0	2	B2r.bmp	500	1	blank2r.bmp	800	1	GKQX	800	1	blank2r.bmp	880	1	dandy	880	1	!	1210	1	blank2r.bmp	1340	0	0	0
012218	15:11:42	1	1	5.0.10.0	7	28	dB12_valA_080	d080_B12_B2_pleasA	300	300	0	0	23	1	230	1	blank2r.bmp	0	1	+	0	5	C1r.bmp	500	1	blank2r.bmp	800	1	GKQX	800	1	blank2r.bmp	880	6	fond	880	1	!	1210	1	blank2r.bmp	1340	0	0	0
012218	15:11:42	1	1	5.0.10.0	7	29	dB12_valA_080	d080_B12_B2_unplA	300	300	0	0	18	0	175	1	blank2r.bmp	0	1	+	0	1	B1r.bmp	500	1	blank2r.bmp	800	1	GKQX	800	1	blank2r.bmp	880	3	flood	880	1	!	1210	1	blank2r.bmp	1340	0	0	0
012218	15:11:42	1	1	5.0.10.0	7	30	dB12_valA_080	d080_B12_B1_pleasA	300	300	0	0	18	1	100	1	blank2r.bmp	0	1	+	0	4	B4r.bmp	500	1	blank2r.bmp	800	1	BMVZ	800	1	blank2r.bmp	880	4	happy	880	1	!	1210	1	blank2r.bmp	1340	0	0	0
012218	15:11:42	1	1	5.0.10.0	7	31	dB12_valA_080	d080_B12_B2_unplA	300	300	0	0	23	1	180	1	blank2r.bmp	0	1	+	0	7	C3r.bmp	500	1	blank2r.bmp	800	1	GKQX	800	1	blank2r.bmp	880	2	folly	880	1	!	1210	1	blank2r.bmp	1340	0	0	0
012218	15:11:42	1	1	5.0.10.0	7	32	dB12_valA_080	d080_B12_B2_pleasA	300	300	0	0	23	1	27	1	blank2r.bmp	0	1	+	0	8	C4r.bmp	500	1	blank2r.bmp	800	1	GKQX	800	1	blank2r.bmp	880	2	joy	880	1	!	1210	1	blank2r.bmp	1340	0	0	0
012218	15:11:42	1	1	5.0.10.0	7	33	dB12_valA_080	d080_B12_B2_pleasA	300	300	0	0	18	0	1177	1	blank2r.bmp	0	1	+	0	3	B3r.bmp	500	1	blank2r.bmp	800	1	GKQX	800	1	blank2r.bmp	880	3	play	880	1	!	1210	1	blank2r.bmp	1340	0	0	0
012218	15:11:42	1	1	5.0.10.0	7	34	dB12_valA_080	d080_B12_B2_unplA	300	300	0	0	23	1	209	1	blank2r.bmp	0	1	+	0	3	B3r.bmp	500	1	blank2r.bmp	800	1	GKQX	800	1	blank2r.bmp	880	4	oaf	880	1	!	1210	1	blank2r.bmp	1340	0	0	0
012218	15:11:42	1	1	5.0.10.0	7	35	dB12_valA_080	d080_B12_B2_pleasA	300	300	0	0	23	1	96	1	blank2r.bmp	0	1	+	0	6	C2r.bmp	500	1	blank2r.bmp	800	1	GKQX	800	1	blank2r.bmp	880	5	jolly	880	1	!	1210	1	blank2r.bmp	1340	0	0	0
012218	15:11:42	1	1	5.0.10.0	7	36	dB12_valA_080	d080_B12_B2_unplA	300	300	0	0	23	1	194	1	blank2r.bmp	0	1	+	0	2	B2r.bmp	500	1	blank2r.bmp	800	1	GKQX	800	1	blank2r.bmp	880	1	flaw	880	1	!	1210	1	blank2r.bmp	1340	0	0	0
012218	15:11:42	1	1	5.0.10.0	7	37	dB12_valA_080	d080_B12_B2_pleasA	300	300	0	0	23	1	166	1	blank2r.bmp	0	1	+	0	5	C1r.bmp	500	1	blank2r.bmp	800	1	GKQX	800	1	blank2r.bmp	880	5	jolly	880	1	!	1210	1	blank2r.bmp	1340	0	0	0
012218	15:11:42	1	1	5.0.10.0	7	38	dB12_valA_080	d080_B12_B1_unplA	300	300	0	0	18	1	95	1	blank2r.bmp	0	1	+	0	7	C3r.bmp	500	1	blank2r.bmp	800	1	BMVZ	800	1	blank2r.bmp	880	2	folly	880	1	!	1210	1	blank2r.bmp	1340	0	0	0
012218	15:11:42	1	1	5.0.10.0	7	39	dB12_valA_080	d080_B12_B1_unplA	300	300	0	0	18	1	479	1	blank2r.bmp	0	1	+	0	1	B1r.bmp	500	1	blank2r.bmp	800	1	BMVZ	800	1	blank2r.bmp	880	4	oaf	880	1	!	1210	1	blank2r.bmp	1340	0	0	0
012218	15:11:42	1	1	5.0.10.0	7	40	dB12_valA_080	d080_B12_B1_pleasA	300	300	0	0	18	1	189	1	blank2r.bmp	0	1	+	0	8	C4r.bmp	500	1	blank2r.bmp	800	1	BMVZ	800	1	blank2r.bmp	880	3	play	880	1	!	1210	1	blank2r.bmp	1340	0	0	0
012218	15:11:42	1	1	5.0.10.0	7	41	dB12_valA_080	d080_B12_B2_pleasA	300	300	0	0	23	1	116	1	blank2r.bmp	0	1	+	0	4	B4r.bmp	500	1	blank2r.bmp	800	1	GKQX	800	1	blank2r.bmp	880	1	dandy	880	1	!	1210	1	blank2r.bmp	1340	0	0	0
012218	15:11:42	1	1	5.0.10.0	7	42	dB12_valA_080	d080_B12_B1_unplA	300	300	0	0	18	1	86	1	blank2r.bmp	0	1	+	0	3	B3r.bmp	500	1	blank2r.bmp	800	1	BMVZ	800	1	blank2r.bmp	880	1	flaw	880	1	!	1210	1	blank2r.bmp	1340	0	0	0
012218	15:11:42	1	1	5.0.10.0	7	43	dB12_valA_080	d080_B12_B1_unplA	300	300	0	0	18	1	304	1	blank2r.bmp	0	1	+	0	4	B4r.bmp	500	1	blank2r.bmp	800	1	BMVZ	800	1	blank2r.bmp	880	6	old	880	1	!	1210	1	blank2r.bmp	1340	0	0	0
012218	15:11:42	1	1	5.0.10.0	7	44	dB12_valA_080	d080_B12_B1_unplA	300	300	0	0	18	1	240	1	blank2r.bmp	0	1	+	0	7	C3r.bmp	500	1	blank2r.bmp	800	1	BMVZ	800	1	blank2r.bmp	880	5	flop	880	1	!	1210	1	blank2r.bmp	1340	0	0	0
012218	15:11:42	1	1	5.0.10.0	7	45	dB12_valA_080	d080_B12_B1_pleasA	300	300	0	0	18	1	216	1	blank2r.bmp	0	1	+	0	1	B1r.bmp	500	1	blank2r.bmp	800	1	BMVZ	800	1	blank2r.bmp	880	6	fond	880	1	!	1210	1	blank2r.bmp	1340	0	0	0
012218	15:11:42	1	1	5.0.10.0	7	46	dB12_valA_080	d080_B12_B2_unplA	300	300	0	0	23	1	82	1	blank2r.bmp	0	1	+	0	2	B2r.bmp	500	1	blank2r.bmp	800	1	GKQX	800	1	blank2r.bmp	880	3	flood	880	1	!	1210	1	blank2r.bmp	1340	0	0	0
012218	15:11:42	1	1	5.0.10.0	7	47	dB12_valA_080	d080_B12_B1_pleasA	300	300	0	0	23	0	35	1	blank2r.bmp	0	1	+	0	6	C2r.bmp	500	1	blank2r.bmp	800	1	BMVZ	800	1	blank2r.bmp	880	4	happy	880	1	!	1210	1	blank2r.bmp	1340	0	0	0
012218	15:11:42	1	1	5.0.10.0	7	48	dB12_valA_080	d080_B12_B1_pleasA	300	300	0	0	18	1	272	1	blank2r.bmp	0	1	+	0	8	C4r.bmp	500	1	blank2r.bmp	800	1	BMVZ	800	1	blank2r.bmp	880	2	joy	880	1	!	1210	1	blank2r.bmp	1340	0	0	0
