date	time	group	subject	build	trialcode	blockcode	blocknum	trialnum	pretrialpause	posttrialpause	trialduration	trialtimeout	latency	response	correct	stimulusnumber1	stimulusitem1	stimulusonset1	stimulusnumber2	stimulusitem2	stimulusonset2	stimulusnumber3	stimulusitem3	stimulusonset3	stimulusnumber4	stimulusitem4	stimulusonset4	stimulusnumber5	stimulusitem5	stimulusonset5	stimulusnumber6	stimulusitem6	stimulusonset6	stimulusnumber7	stimulusitem7	stimulusonset7	stimulusnumber8	stimulusitem8	stimulusonset8	stimulusnumber9	stimulusitem9	stimulusonset9	stimulusnumber10	stimulusitem10	stimulusonset10
020118	09:27:52	1	7	5.0.10.0	dL_B12_B1_unplA	dB12_valA_pract1	1	1	300	300	0	0	818	18	1	1	blank2r.bmp	0	1	+	0	5	C1r.bmp	500	1	blank2r.bmp	700	1	BMVZ	700	7	C3r.bmp	830	1	blank2r.bmp	870	1	unfair	870	1	!	1200	1	blank2r.bmp	1330
020118	09:27:52	1	7	5.0.10.0	dL_B12_B2_pleasA	dB12_valA_pract1	1	2	300	300	0	0	6984	23	1	1	blank2r.bmp	0	1	+	0	3	B3r.bmp	500	1	blank2r.bmp	700	1	GKQX	700	8	C4r.bmp	830	1	blank2r.bmp	870	5	friedlich	870	1	!	1200	1	blank2r.bmp	1330
020118	09:27:52	1	7	5.0.10.0	dL_B12_B2_unplA	dB12_valA_pract1	1	3	300	300	0	0	659	23	1	1	blank2r.bmp	0	1	+	0	7	C3r.bmp	500	1	blank2r.bmp	700	1	GKQX	700	2	B2r.bmp	830	1	blank2r.bmp	870	2	neidisch	870	1	!	1200	1	blank2r.bmp	1330
020118	09:27:52	1	7	5.0.10.0	dL_B12_B1_unplA	dB12_valA_pract1	1	4	300	300	0	0	493	18	1	1	blank2r.bmp	0	1	+	0	4	B4r.bmp	500	1	blank2r.bmp	700	1	BMVZ	700	6	C2r.bmp	830	1	blank2r.bmp	870	6	leiden	870	1	!	1200	1	blank2r.bmp	1330
020118	09:27:52	1	7	5.0.10.0	dL_B12_B2_unplA	dB12_valA_pract1	1	5	300	300	0	0	1836	23	1	1	blank2r.bmp	0	1	+	0	6	C2r.bmp	500	1	blank2r.bmp	700	1	GKQX	700	4	B4r.bmp	830	1	blank2r.bmp	870	3	töten	870	1	!	1200	1	blank2r.bmp	1330
020118	09:27:52	1	7	5.0.10.0	dL_B12_B2_pleasA	dB12_valA_pract1	1	6	300	300	0	0	520	23	1	1	blank2r.bmp	0	1	+	0	1	B1r.bmp	500	1	blank2r.bmp	700	1	GKQX	700	3	B3r.bmp	830	1	blank2r.bmp	870	6	froh	870	1	!	1200	1	blank2r.bmp	1330
020118	09:27:52	1	7	5.0.10.0	dL_B12_B2_pleasA	dB12_valA_pract1	1	7	300	300	0	0	479	23	1	1	blank2r.bmp	0	1	+	0	2	B2r.bmp	500	1	blank2r.bmp	700	1	GKQX	700	1	B1r.bmp	830	1	blank2r.bmp	870	1	toll	870	1	!	1200	1	blank2r.bmp	1330
020118	09:27:52	1	7	5.0.10.0	dL_B12_B1_pleasA	dB12_valA_pract1	1	8	300	300	0	0	519	18	1	1	blank2r.bmp	0	1	+	0	8	C4r.bmp	500	1	blank2r.bmp	700	1	BMVZ	700	5	C1r.bmp	830	1	blank2r.bmp	870	4	heiter	870	1	!	1200	1	blank2r.bmp	1330
020118	09:27:52	1	7	5.0.10.0	dL_B12_B2_unplA	dB12_valA_pract1	1	9	300	300	0	0	544	23	1	1	blank2r.bmp	0	1	+	0	1	B1r.bmp	500	1	blank2r.bmp	700	1	GKQX	700	5	C1r.bmp	830	1	blank2r.bmp	870	5	schlecht	870	1	!	1200	1	blank2r.bmp	1330
020118	09:27:52	1	7	5.0.10.0	dL_B12_B1_pleasA	dB12_valA_pract1	1	10	300	300	0	0	413	18	1	1	blank2r.bmp	0	1	+	0	7	C3r.bmp	500	1	blank2r.bmp	700	1	BMVZ	700	6	C2r.bmp	830	1	blank2r.bmp	870	2	schön	870	1	!	1200	1	blank2r.bmp	1330
020118	09:27:52	1	7	5.0.10.0	dL_B12_B1_pleasA	dB12_valA_pract1	1	11	300	300	0	0	422	18	1	1	blank2r.bmp	0	1	+	0	8	C4r.bmp	500	1	blank2r.bmp	700	1	BMVZ	700	2	B2r.bmp	830	1	blank2r.bmp	870	3	freund	870	1	!	1200	1	blank2r.bmp	1330
020118	09:27:52	1	7	5.0.10.0	dL_B12_B1_unplA	dB12_valA_pract1	1	12	300	300	0	0	374	18	1	1	blank2r.bmp	0	1	+	0	4	B4r.bmp	500	1	blank2r.bmp	700	1	BMVZ	700	7	C3r.bmp	830	1	blank2r.bmp	870	4	elend	870	1	!	1200	1	blank2r.bmp	1330
020118	09:27:52	1	7	5.0.10.0	dM_B12_B2_pleasA	dB12_valA_pract2	2	1	300	300	0	0	331	23	1	1	blank2r.bmp	0	1	+	0	6	C2r.bmp	500	1	blank2r.bmp	730	1	GKQX	730	4	B4r.bmp	830	1	blank2r.bmp	870	1	toll	870	1	!	1200	1	blank2r.bmp	1330
020118	09:27:52	1	7	5.0.10.0	dM_B12_B2_unplA	dB12_valA_pract2	2	2	300	300	0	0	259	23	1	1	blank2r.bmp	0	1	+	0	3	B3r.bmp	500	1	blank2r.bmp	730	1	GKQX	730	8	C4r.bmp	830	1	blank2r.bmp	870	4	elend	870	1	!	1200	1	blank2r.bmp	1330
020118	09:27:52	1	7	5.0.10.0	dM_B12_B1_pleasA	dB12_valA_pract2	2	3	300	300	0	0	316	18	1	1	blank2r.bmp	0	1	+	0	5	C1r.bmp	500	1	blank2r.bmp	730	1	BMVZ	730	3	B3r.bmp	830	1	blank2r.bmp	870	6	froh	870	1	!	1200	1	blank2r.bmp	1330
020118	09:27:52	1	7	5.0.10.0	dM_B12_B1_pleasA	dB12_valA_pract2	2	4	300	300	0	0	279	18	1	1	blank2r.bmp	0	1	+	0	2	B2r.bmp	500	1	blank2r.bmp	730	1	BMVZ	730	1	B1r.bmp	830	1	blank2r.bmp	870	2	schön	870	1	!	1200	1	blank2r.bmp	1330
020118	09:27:52	1	7	5.0.10.0	dM_B12_B1_unplA	dB12_valA_pract2	2	5	300	300	0	0	404	18	1	1	blank2r.bmp	0	1	+	0	8	C4r.bmp	500	1	blank2r.bmp	730	1	BMVZ	730	1	B1r.bmp	830	1	blank2r.bmp	870	2	neidisch	870	1	!	1200	1	blank2r.bmp	1330
020118	09:27:52	1	7	5.0.10.0	dM_B12_B2_pleasA	dB12_valA_pract2	2	6	300	300	0	0	272	23	1	1	blank2r.bmp	0	1	+	0	5	C1r.bmp	500	1	blank2r.bmp	730	1	GKQX	730	7	C3r.bmp	830	1	blank2r.bmp	870	3	freund	870	1	!	1200	1	blank2r.bmp	1330
020118	09:27:52	1	7	5.0.10.0	dM_B12_B1_unplA	dB12_valA_pract2	2	7	300	300	0	0	316	18	1	1	blank2r.bmp	0	1	+	0	4	B4r.bmp	500	1	blank2r.bmp	730	1	BMVZ	730	2	B2r.bmp	830	1	blank2r.bmp	870	5	schlecht	870	1	!	1200	1	blank2r.bmp	1330
020118	09:27:52	1	7	5.0.10.0	dM_B12_B2_unplA	dB12_valA_pract2	2	8	300	300	0	0	14	23	1	1	blank2r.bmp	0	1	+	0	3	B3r.bmp	500	1	blank2r.bmp	730	1	GKQX	730	5	C1r.bmp	830	1	blank2r.bmp	870	3	töten	870	1	!	1200	1	blank2r.bmp	1330
020118	09:27:52	1	7	5.0.10.0	dM_B12_B1_pleasA	dB12_valA_pract2	2	9	300	300	0	0	103	18	1	1	blank2r.bmp	0	1	+	0	1	B1r.bmp	500	1	blank2r.bmp	730	1	BMVZ	730	6	C2r.bmp	830	1	blank2r.bmp	870	5	friedlich	870	1	!	1200	1	blank2r.bmp	1330
020118	09:27:52	1	7	5.0.10.0	dM_B12_B2_pleasA	dB12_valA_pract2	2	10	300	300	0	0	100	23	1	1	blank2r.bmp	0	1	+	0	2	B2r.bmp	500	1	blank2r.bmp	730	1	GKQX	730	3	B3r.bmp	830	1	blank2r.bmp	870	4	heiter	870	1	!	1200	1	blank2r.bmp	1330
020118	09:27:52	1	7	5.0.10.0	dM_B12_B2_unplA	dB12_valA_pract2	2	11	300	300	0	0	152	23	1	1	blank2r.bmp	0	1	+	0	7	C3r.bmp	500	1	blank2r.bmp	730	1	GKQX	730	8	C4r.bmp	830	1	blank2r.bmp	870	1	unfair	870	1	!	1200	1	blank2r.bmp	1330
020118	09:27:52	1	7	5.0.10.0	dM_B12_B1_unplA	dB12_valA_pract2	2	12	300	300	0	0	104	18	1	1	blank2r.bmp	0	1	+	0	6	C2r.bmp	500	1	blank2r.bmp	730	1	BMVZ	730	4	B4r.bmp	830	1	blank2r.bmp	870	6	leiden	870	1	!	1200	1	blank2r.bmp	1330
020118	09:27:52	1	7	5.0.10.0	d070_B12_B1_unplA	dB12_valA_070	3	1	300	300	0	0	214	18	1	1	blank2r.bmp	0	1	+	0	8	C4r.bmp	500	1	blank2r.bmp	800	1	BMVZ	800	1	blank2r.bmp	870	3	töten	870	1	!	1200	1	blank2r.bmp	1330	0	0	0
020118	09:27:52	1	7	5.0.10.0	d070_B12_B1_pleasA	dB12_valA_070	3	2	300	300	0	0	192	18	1	1	blank2r.bmp	0	1	+	0	7	C3r.bmp	500	1	blank2r.bmp	800	1	BMVZ	800	1	blank2r.bmp	870	5	friedlich	870	1	!	1200	1	blank2r.bmp	1330	0	0	0
020118	09:27:52	1	7	5.0.10.0	d070_B12_B2_pleasA	dB12_valA_070	3	3	300	300	0	0	144	23	1	1	blank2r.bmp	0	1	+	0	5	C1r.bmp	500	1	blank2r.bmp	800	1	GKQX	800	1	blank2r.bmp	870	2	schön	870	1	!	1200	1	blank2r.bmp	1330	0	0	0
020118	09:27:52	1	7	5.0.10.0	d070_B12_B2_pleasA	dB12_valA_070	3	4	300	300	0	0	266	23	1	1	blank2r.bmp	0	1	+	0	1	B1r.bmp	500	1	blank2r.bmp	800	1	GKQX	800	1	blank2r.bmp	870	3	freund	870	1	!	1200	1	blank2r.bmp	1330	0	0	0
020118	09:27:52	1	7	5.0.10.0	d070_B12_B1_pleasA	dB12_valA_070	3	5	300	300	0	0	137	18	1	1	blank2r.bmp	0	1	+	0	6	C2r.bmp	500	1	blank2r.bmp	800	1	BMVZ	800	1	blank2r.bmp	870	1	toll	870	1	!	1200	1	blank2r.bmp	1330	0	0	0
020118	09:27:52	1	7	5.0.10.0	d070_B12_B2_unplA	dB12_valA_070	3	6	300	300	0	0	103	23	1	1	blank2r.bmp	0	1	+	0	2	B2r.bmp	500	1	blank2r.bmp	800	1	GKQX	800	1	blank2r.bmp	870	2	neidisch	870	1	!	1200	1	blank2r.bmp	1330	0	0	0
020118	09:27:52	1	7	5.0.10.0	d070_B12_B1_pleasA	dB12_valA_070	3	7	300	300	0	0	3090	18	1	1	blank2r.bmp	0	1	+	0	3	B3r.bmp	500	1	blank2r.bmp	800	1	BMVZ	800	1	blank2r.bmp	870	6	froh	870	1	!	1200	1	blank2r.bmp	1330	0	0	0
020118	09:27:52	1	7	5.0.10.0	d070_B12_B1_pleasA	dB12_valA_070	3	8	300	300	0	0	591	18	1	1	blank2r.bmp	0	1	+	0	4	B4r.bmp	500	1	blank2r.bmp	800	1	BMVZ	800	1	blank2r.bmp	870	4	heiter	870	1	!	1200	1	blank2r.bmp	1330	0	0	0
020118	09:27:52	1	7	5.0.10.0	d070_B12_B2_pleasA	dB12_valA_070	3	9	300	300	0	0	179	23	1	1	blank2r.bmp	0	1	+	0	3	B3r.bmp	500	1	blank2r.bmp	800	1	GKQX	800	1	blank2r.bmp	870	1	toll	870	1	!	1200	1	blank2r.bmp	1330	0	0	0
020118	09:27:52	1	7	5.0.10.0	d070_B12_B2_pleasA	dB12_valA_070	3	10	300	300	0	0	140	23	1	1	blank2r.bmp	0	1	+	0	7	C3r.bmp	500	1	blank2r.bmp	800	1	GKQX	800	1	blank2r.bmp	870	3	freund	870	1	!	1200	1	blank2r.bmp	1330	0	0	0
020118	09:27:52	1	7	5.0.10.0	d070_B12_B1_pleasA	dB12_valA_070	3	11	300	300	0	0	111	18	1	1	blank2r.bmp	0	1	+	0	1	B1r.bmp	500	1	blank2r.bmp	800	1	BMVZ	800	1	blank2r.bmp	870	6	froh	870	1	!	1200	1	blank2r.bmp	1330	0	0	0
020118	09:27:52	1	7	5.0.10.0	d070_B12_B1_unplA	dB12_valA_070	3	12	300	300	0	0	193	18	1	1	blank2r.bmp	0	1	+	0	5	C1r.bmp	500	1	blank2r.bmp	800	1	BMVZ	800	1	blank2r.bmp	870	4	elend	870	1	!	1200	1	blank2r.bmp	1330	0	0	0
020118	09:27:52	1	7	5.0.10.0	d070_B12_B1_unplA	dB12_valA_070	3	13	300	300	0	0	101	18	1	1	blank2r.bmp	0	1	+	0	2	B2r.bmp	500	1	blank2r.bmp	800	1	BMVZ	800	1	blank2r.bmp	870	6	leiden	870	1	!	1200	1	blank2r.bmp	1330	0	0	0
020118	09:27:52	1	7	5.0.10.0	d070_B12_B1_unplA	dB12_valA_070	3	14	300	300	0	0	149	18	1	1	blank2r.bmp	0	1	+	0	4	B4r.bmp	500	1	blank2r.bmp	800	1	BMVZ	800	1	blank2r.bmp	870	5	schlecht	870	1	!	1200	1	blank2r.bmp	1330	0	0	0
020118	09:27:52	1	7	5.0.10.0	d070_B12_B2_unplA	dB12_valA_070	3	15	300	300	0	0	2387	23	1	1	blank2r.bmp	0	1	+	0	8	C4r.bmp	500	1	blank2r.bmp	800	1	GKQX	800	1	blank2r.bmp	870	1	unfair	870	1	!	1200	1	blank2r.bmp	1330	0	0	0
020118	09:27:52	1	7	5.0.10.0	d070_B12_B2_pleasA	dB12_valA_070	3	16	300	300	0	0	0	23	1	1	blank2r.bmp	0	1	+	0	6	C2r.bmp	500	1	blank2r.bmp	800	1	GKQX	800	1	blank2r.bmp	870	5	friedlich	870	1	!	1200	1	blank2r.bmp	1330	0	0	0
020118	09:27:52	1	7	5.0.10.0	d070_B12_B1_pleasA	dB12_valA_070	3	17	300	300	0	0	2806	18	1	1	blank2r.bmp	0	1	+	0	7	C3r.bmp	500	1	blank2r.bmp	800	1	BMVZ	800	1	blank2r.bmp	870	2	schön	870	1	!	1200	1	blank2r.bmp	1330	0	0	0
020118	09:27:52	1	7	5.0.10.0	d070_B12_B2_unplA	dB12_valA_070	3	18	300	300	0	0	673	23	1	1	blank2r.bmp	0	1	+	0	3	B3r.bmp	500	1	blank2r.bmp	800	1	GKQX	800	1	blank2r.bmp	870	1	unfair	870	1	!	1200	1	blank2r.bmp	1330	0	0	0
020118	09:27:52	1	7	5.0.10.0	d070_B12_B2_pleasA	dB12_valA_070	3	19	300	300	0	0	570	23	1	1	blank2r.bmp	0	1	+	0	6	C2r.bmp	500	1	blank2r.bmp	800	1	GKQX	800	1	blank2r.bmp	870	4	heiter	870	1	!	1200	1	blank2r.bmp	1330	0	0	0
020118	09:27:52	1	7	5.0.10.0	d070_B12_B1_pleasA	dB12_valA_070	3	20	300	300	0	0	319	18	1	1	blank2r.bmp	0	1	+	0	5	C1r.bmp	500	1	blank2r.bmp	800	1	BMVZ	800	1	blank2r.bmp	870	3	freund	870	1	!	1200	1	blank2r.bmp	1330	0	0	0
020118	09:27:52	1	7	5.0.10.0	d070_B12_B2_pleasA	dB12_valA_070	3	21	300	300	0	0	326	23	1	1	blank2r.bmp	0	1	+	0	1	B1r.bmp	500	1	blank2r.bmp	800	1	GKQX	800	1	blank2r.bmp	870	2	schön	870	1	!	1200	1	blank2r.bmp	1330	0	0	0
020118	09:27:52	1	7	5.0.10.0	d070_B12_B2_unplA	dB12_valA_070	3	22	300	300	0	0	305	18	0	1	blank2r.bmp	0	1	+	0	8	C4r.bmp	500	1	blank2r.bmp	800	1	GKQX	800	1	blank2r.bmp	870	6	leiden	870	1	!	1200	1	blank2r.bmp	1330	0	0	0
020118	09:27:52	1	7	5.0.10.0	d070_B12_B2_pleasA	dB12_valA_070	3	23	300	300	0	0	127	23	1	1	blank2r.bmp	0	1	+	0	4	B4r.bmp	500	1	blank2r.bmp	800	1	GKQX	800	1	blank2r.bmp	870	6	froh	870	1	!	1200	1	blank2r.bmp	1330	0	0	0
020118	09:27:52	1	7	5.0.10.0	d070_B12_B2_pleasA	dB12_valA_070	3	24	300	300	0	0	564	23	1	1	blank2r.bmp	0	1	+	0	2	B2r.bmp	500	1	blank2r.bmp	800	1	GKQX	800	1	blank2r.bmp	870	5	friedlich	870	1	!	1200	1	blank2r.bmp	1330	0	0	0
020118	09:27:52	1	7	5.0.10.0	d070_B12_B1_unplA	dB12_valA_070	3	25	300	300	0	0	163	18	1	1	blank2r.bmp	0	1	+	0	6	C2r.bmp	500	1	blank2r.bmp	800	1	BMVZ	800	1	blank2r.bmp	870	4	elend	870	1	!	1200	1	blank2r.bmp	1330	0	0	0
020118	09:27:52	1	7	5.0.10.0	d070_B12_B2_unplA	dB12_valA_070	3	26	300	300	0	0	178	23	1	1	blank2r.bmp	0	1	+	0	5	C1r.bmp	500	1	blank2r.bmp	800	1	GKQX	800	1	blank2r.bmp	870	2	neidisch	870	1	!	1200	1	blank2r.bmp	1330	0	0	0
020118	09:27:52	1	7	5.0.10.0	d070_B12_B1_pleasA	dB12_valA_070	3	27	300	300	0	0	493	18	1	1	blank2r.bmp	0	1	+	0	4	B4r.bmp	500	1	blank2r.bmp	800	1	BMVZ	800	1	blank2r.bmp	870	4	heiter	870	1	!	1200	1	blank2r.bmp	1330	0	0	0
020118	09:27:52	1	7	5.0.10.0	d070_B12_B1_unplA	dB12_valA_070	3	28	300	300	0	0	177	23	0	1	blank2r.bmp	0	1	+	0	3	B3r.bmp	500	1	blank2r.bmp	800	1	BMVZ	800	1	blank2r.bmp	870	5	schlecht	870	1	!	1200	1	blank2r.bmp	1330	0	0	0
020118	09:27:52	1	7	5.0.10.0	d070_B12_B2_pleasA	dB12_valA_070	3	29	300	300	0	0	248	23	1	1	blank2r.bmp	0	1	+	0	7	C3r.bmp	500	1	blank2r.bmp	800	1	GKQX	800	1	blank2r.bmp	870	1	toll	870	1	!	1200	1	blank2r.bmp	1330	0	0	0
020118	09:27:52	1	7	5.0.10.0	d070_B12_B2_unplA	dB12_valA_070	3	30	300	300	0	0	355	18	0	1	blank2r.bmp	0	1	+	0	8	C4r.bmp	500	1	blank2r.bmp	800	1	GKQX	800	1	blank2r.bmp	870	3	töten	870	1	!	1200	1	blank2r.bmp	1330	0	0	0
020118	09:27:52	1	7	5.0.10.0	d070_B12_B2_unplA	dB12_valA_070	3	31	300	300	0	0	610	23	1	1	blank2r.bmp	0	1	+	0	1	B1r.bmp	500	1	blank2r.bmp	800	1	GKQX	800	1	blank2r.bmp	870	2	neidisch	870	1	!	1200	1	blank2r.bmp	1330	0	0	0
020118	09:27:52	1	7	5.0.10.0	d070_B12_B2_unplA	dB12_valA_070	3	32	300	300	0	0	357	23	1	1	blank2r.bmp	0	1	+	0	2	B2r.bmp	500	1	blank2r.bmp	800	1	GKQX	800	1	blank2r.bmp	870	3	töten	870	1	!	1200	1	blank2r.bmp	1330	0	0	0
020118	09:27:52	1	7	5.0.10.0	d070_B12_B1_unplA	dB12_valA_070	3	33	300	300	0	0	191	18	1	1	blank2r.bmp	0	1	+	0	1	B1r.bmp	500	1	blank2r.bmp	800	1	BMVZ	800	1	blank2r.bmp	870	6	leiden	870	1	!	1200	1	blank2r.bmp	1330	0	0	0
020118	09:27:52	1	7	5.0.10.0	d070_B12_B1_unplA	dB12_valA_070	3	34	300	300	0	0	321	18	1	1	blank2r.bmp	0	1	+	0	8	C4r.bmp	500	1	blank2r.bmp	800	1	BMVZ	800	1	blank2r.bmp	870	1	unfair	870	1	!	1200	1	blank2r.bmp	1330	0	0	0
020118	09:27:52	1	7	5.0.10.0	d070_B12_B2_unplA	dB12_valA_070	3	35	300	300	0	0	127	23	1	1	blank2r.bmp	0	1	+	0	2	B2r.bmp	500	1	blank2r.bmp	800	1	GKQX	800	1	blank2r.bmp	870	5	schlecht	870	1	!	1200	1	blank2r.bmp	1330	0	0	0
020118	09:27:52	1	7	5.0.10.0	d070_B12_B1_pleasA	dB12_valA_070	3	36	300	300	0	0	167	18	1	1	blank2r.bmp	0	1	+	0	6	C2r.bmp	500	1	blank2r.bmp	800	1	BMVZ	800	1	blank2r.bmp	870	4	heiter	870	1	!	1200	1	blank2r.bmp	1330	0	0	0
020118	09:27:52	1	7	5.0.10.0	d070_B12_B1_unplA	dB12_valA_070	3	37	300	300	0	0	288	18	1	1	blank2r.bmp	0	1	+	0	5	C1r.bmp	500	1	blank2r.bmp	800	1	BMVZ	800	1	blank2r.bmp	870	4	elend	870	1	!	1200	1	blank2r.bmp	1330	0	0	0
020118	09:27:52	1	7	5.0.10.0	d070_B12_B1_unplA	dB12_valA_070	3	38	300	300	0	0	208	23	0	1	blank2r.bmp	0	1	+	0	3	B3r.bmp	500	1	blank2r.bmp	800	1	BMVZ	800	1	blank2r.bmp	870	3	töten	870	1	!	1200	1	blank2r.bmp	1330	0	0	0
020118	09:27:52	1	7	5.0.10.0	d070_B12_B1_unplA	dB12_valA_070	3	39	300	300	0	0	129	18	1	1	blank2r.bmp	0	1	+	0	7	C3r.bmp	500	1	blank2r.bmp	800	1	BMVZ	800	1	blank2r.bmp	870	1	unfair	870	1	!	1200	1	blank2r.bmp	1330	0	0	0
020118	09:27:52	1	7	5.0.10.0	d070_B12_B1_pleasA	dB12_valA_070	3	40	300	300	0	0	234	18	1	1	blank2r.bmp	0	1	+	0	4	B4r.bmp	500	1	blank2r.bmp	800	1	BMVZ	800	1	blank2r.bmp	870	1	toll	870	1	!	1200	1	blank2r.bmp	1330	0	0	0
020118	09:27:52	1	7	5.0.10.0	d070_B12_B2_unplA	dB12_valA_070	3	41	300	300	0	0	69	23	1	1	blank2r.bmp	0	1	+	0	4	B4r.bmp	500	1	blank2r.bmp	800	1	GKQX	800	1	blank2r.bmp	870	2	neidisch	870	1	!	1200	1	blank2r.bmp	1330	0	0	0
020118	09:27:52	1	7	5.0.10.0	d070_B12_B2_pleasA	dB12_valA_070	3	42	300	300	0	0	141	23	1	1	blank2r.bmp	0	1	+	0	3	B3r.bmp	500	1	blank2r.bmp	800	1	GKQX	800	1	blank2r.bmp	870	5	friedlich	870	1	!	1200	1	blank2r.bmp	1330	0	0	0
020118	09:27:52	1	7	5.0.10.0	d070_B12_B2_unplA	dB12_valA_070	3	43	300	300	0	0	89	23	1	1	blank2r.bmp	0	1	+	0	1	B1r.bmp	500	1	blank2r.bmp	800	1	GKQX	800	1	blank2r.bmp	870	5	schlecht	870	1	!	1200	1	blank2r.bmp	1330	0	0	0
020118	09:27:52	1	7	5.0.10.0	d070_B12_B2_pleasA	dB12_valA_070	3	44	300	300	0	0	68	23	1	1	blank2r.bmp	0	1	+	0	7	C3r.bmp	500	1	blank2r.bmp	800	1	GKQX	800	1	blank2r.bmp	870	3	freund	870	1	!	1200	1	blank2r.bmp	1330	0	0	0
020118	09:27:52	1	7	5.0.10.0	d070_B12_B1_pleasA	dB12_valA_070	3	45	300	300	0	0	1875	18	1	1	blank2r.bmp	0	1	+	0	8	C4r.bmp	500	1	blank2r.bmp	800	1	BMVZ	800	1	blank2r.bmp	870	6	froh	870	1	!	1200	1	blank2r.bmp	1330	0	0	0
020118	09:27:52	1	7	5.0.10.0	d070_B12_B2_unplA	dB12_valA_070	3	46	300	300	0	0	77	23	1	1	blank2r.bmp	0	1	+	0	5	C1r.bmp	500	1	blank2r.bmp	800	1	GKQX	800	1	blank2r.bmp	870	6	leiden	870	1	!	1200	1	blank2r.bmp	1330	0	0	0
020118	09:27:52	1	7	5.0.10.0	d070_B12_B1_unplA	dB12_valA_070	3	47	300	300	0	0	72	18	1	1	blank2r.bmp	0	1	+	0	2	B2r.bmp	500	1	blank2r.bmp	800	1	BMVZ	800	1	blank2r.bmp	870	4	elend	870	1	!	1200	1	blank2r.bmp	1330	0	0	0
020118	09:27:52	1	7	5.0.10.0	d070_B12_B1_pleasA	dB12_valA_070	3	48	300	300	0	0	623	23	0	1	blank2r.bmp	0	1	+	0	6	C2r.bmp	500	1	blank2r.bmp	800	1	BMVZ	800	1	blank2r.bmp	870	2	schön	870	1	!	1200	1	blank2r.bmp	1330	0	0	0
020118	09:27:52	1	7	5.0.10.0	d070_B12_B1_unplA	dB12_valA_070	4	1	300	300	0	0	128	18	1	1	blank2r.bmp	0	1	+	0	7	C3r.bmp	500	1	blank2r.bmp	800	1	BMVZ	800	1	blank2r.bmp	870	1	unfair	870	1	!	1200	1	blank2r.bmp	1330	0	0	0
020118	09:27:52	1	7	5.0.10.0	d070_B12_B1_pleasA	dB12_valA_070	4	2	300	300	0	0	161	18	1	1	blank2r.bmp	0	1	+	0	5	C1r.bmp	500	1	blank2r.bmp	800	1	BMVZ	800	1	blank2r.bmp	870	3	freund	870	1	!	1200	1	blank2r.bmp	1330	0	0	0
020118	09:27:52	1	7	5.0.10.0	d070_B12_B2_pleasA	dB12_valA_070	4	3	300	300	0	0	59	23	1	1	blank2r.bmp	0	1	+	0	3	B3r.bmp	500	1	blank2r.bmp	800	1	GKQX	800	1	blank2r.bmp	870	2	schön	870	1	!	1200	1	blank2r.bmp	1330	0	0	0
020118	09:27:52	1	7	5.0.10.0	d070_B12_B2_unplA	dB12_valA_070	4	4	300	300	0	0	170	23	1	1	blank2r.bmp	0	1	+	0	8	C4r.bmp	500	1	blank2r.bmp	800	1	GKQX	800	1	blank2r.bmp	870	5	schlecht	870	1	!	1200	1	blank2r.bmp	1330	0	0	0
020118	09:27:52	1	7	5.0.10.0	d070_B12_B2_pleasA	dB12_valA_070	4	5	300	300	0	0	46	23	1	1	blank2r.bmp	0	1	+	0	1	B1r.bmp	500	1	blank2r.bmp	800	1	GKQX	800	1	blank2r.bmp	870	1	toll	870	1	!	1200	1	blank2r.bmp	1330	0	0	0
020118	09:27:52	1	7	5.0.10.0	d070_B12_B1_pleasA	dB12_valA_070	4	6	300	300	0	0	1767	18	1	1	blank2r.bmp	0	1	+	0	2	B2r.bmp	500	1	blank2r.bmp	800	1	BMVZ	800	1	blank2r.bmp	870	5	friedlich	870	1	!	1200	1	blank2r.bmp	1330	0	0	0
020118	09:27:52	1	7	5.0.10.0	d070_B12_B2_unplA	dB12_valA_070	4	7	300	300	0	0	32	23	1	1	blank2r.bmp	0	1	+	0	6	C2r.bmp	500	1	blank2r.bmp	800	1	GKQX	800	1	blank2r.bmp	870	6	leiden	870	1	!	1200	1	blank2r.bmp	1330	0	0	0
020118	09:27:52	1	7	5.0.10.0	d070_B12_B2_pleasA	dB12_valA_070	4	8	300	300	0	0	455	23	1	1	blank2r.bmp	0	1	+	0	4	B4r.bmp	500	1	blank2r.bmp	800	1	GKQX	800	1	blank2r.bmp	870	4	heiter	870	1	!	1200	1	blank2r.bmp	1330	0	0	0
020118	09:27:52	1	7	5.0.10.0	d070_B12_B2_unplA	dB12_valA_070	4	9	300	300	0	0	95	23	1	1	blank2r.bmp	0	1	+	0	2	B2r.bmp	500	1	blank2r.bmp	800	1	GKQX	800	1	blank2r.bmp	870	4	elend	870	1	!	1200	1	blank2r.bmp	1330	0	0	0
020118	09:27:52	1	7	5.0.10.0	d070_B12_B2_unplA	dB12_valA_070	4	10	300	300	0	0	481	18	0	1	blank2r.bmp	0	1	+	0	5	C1r.bmp	500	1	blank2r.bmp	800	1	GKQX	800	1	blank2r.bmp	870	2	neidisch	870	1	!	1200	1	blank2r.bmp	1330	0	0	0
020118	09:27:52	1	7	5.0.10.0	d070_B12_B1_unplA	dB12_valA_070	4	11	300	300	0	0	79	18	1	1	blank2r.bmp	0	1	+	0	1	B1r.bmp	500	1	blank2r.bmp	800	1	BMVZ	800	1	blank2r.bmp	870	3	töten	870	1	!	1200	1	blank2r.bmp	1330	0	0	0
020118	09:27:52	1	7	5.0.10.0	d070_B12_B1_unplA	dB12_valA_070	4	12	300	300	0	0	154	18	1	1	blank2r.bmp	0	1	+	0	8	C4r.bmp	500	1	blank2r.bmp	800	1	BMVZ	800	1	blank2r.bmp	870	3	töten	870	1	!	1200	1	blank2r.bmp	1330	0	0	0
020118	09:27:52	1	7	5.0.10.0	d070_B12_B2_unplA	dB12_valA_070	4	13	300	300	0	0	1781	23	1	1	blank2r.bmp	0	1	+	0	4	B4r.bmp	500	1	blank2r.bmp	800	1	GKQX	800	1	blank2r.bmp	870	1	unfair	870	1	!	1200	1	blank2r.bmp	1330	0	0	0
020118	09:27:52	1	7	5.0.10.0	d070_B12_B2_unplA	dB12_valA_070	4	14	300	300	0	0	550	23	1	1	blank2r.bmp	0	1	+	0	6	C2r.bmp	500	1	blank2r.bmp	800	1	GKQX	800	1	blank2r.bmp	870	6	leiden	870	1	!	1200	1	blank2r.bmp	1330	0	0	0
020118	09:27:52	1	7	5.0.10.0	d070_B12_B1_pleasA	dB12_valA_070	4	15	300	300	0	0	1782	18	1	1	blank2r.bmp	0	1	+	0	7	C3r.bmp	500	1	blank2r.bmp	800	1	BMVZ	800	1	blank2r.bmp	870	6	froh	870	1	!	1200	1	blank2r.bmp	1330	0	0	0
020118	09:27:52	1	7	5.0.10.0	d070_B12_B1_unplA	dB12_valA_070	4	16	300	300	0	0	1790	23	0	1	blank2r.bmp	0	1	+	0	3	B3r.bmp	500	1	blank2r.bmp	800	1	BMVZ	800	1	blank2r.bmp	870	5	schlecht	870	1	!	1200	1	blank2r.bmp	1330	0	0	0
020118	09:27:52	1	7	5.0.10.0	d070_B12_B1_unplA	dB12_valA_070	4	17	300	300	0	0	181	18	1	1	blank2r.bmp	0	1	+	0	6	C2r.bmp	500	1	blank2r.bmp	800	1	BMVZ	800	1	blank2r.bmp	870	2	neidisch	870	1	!	1200	1	blank2r.bmp	1330	0	0	0
020118	09:27:52	1	7	5.0.10.0	d070_B12_B2_pleasA	dB12_valA_070	4	18	300	300	0	0	86	23	1	1	blank2r.bmp	0	1	+	0	3	B3r.bmp	500	1	blank2r.bmp	800	1	GKQX	800	1	blank2r.bmp	870	3	freund	870	1	!	1200	1	blank2r.bmp	1330	0	0	0
020118	09:27:52	1	7	5.0.10.0	d070_B12_B2_pleasA	dB12_valA_070	4	19	300	300	0	0	309	23	1	1	blank2r.bmp	0	1	+	0	5	C1r.bmp	500	1	blank2r.bmp	800	1	GKQX	800	1	blank2r.bmp	870	6	froh	870	1	!	1200	1	blank2r.bmp	1330	0	0	0
020118	09:27:52	1	7	5.0.10.0	d070_B12_B1_unplA	dB12_valA_070	4	20	300	300	0	0	1650	18	1	1	blank2r.bmp	0	1	+	0	8	C4r.bmp	500	1	blank2r.bmp	800	1	BMVZ	800	1	blank2r.bmp	870	4	elend	870	1	!	1200	1	blank2r.bmp	1330	0	0	0
020118	09:27:52	1	7	5.0.10.0	d070_B12_B1_unplA	dB12_valA_070	4	21	300	300	0	0	1624	18	1	1	blank2r.bmp	0	1	+	0	1	B1r.bmp	500	1	blank2r.bmp	800	1	BMVZ	800	1	blank2r.bmp	870	1	unfair	870	1	!	1200	1	blank2r.bmp	1330	0	0	0
020118	09:27:52	1	7	5.0.10.0	d070_B12_B1_unplA	dB12_valA_070	4	22	300	300	0	0	1082	18	1	1	blank2r.bmp	0	1	+	0	4	B4r.bmp	500	1	blank2r.bmp	800	1	BMVZ	800	1	blank2r.bmp	870	2	neidisch	870	1	!	1200	1	blank2r.bmp	1330	0	0	0
020118	09:27:52	1	7	5.0.10.0	d070_B12_B1_pleasA	dB12_valA_070	4	23	300	300	0	0	771	18	1	1	blank2r.bmp	0	1	+	0	7	C3r.bmp	500	1	blank2r.bmp	800	1	BMVZ	800	1	blank2r.bmp	870	2	schön	870	1	!	1200	1	blank2r.bmp	1330	0	0	0
020118	09:27:52	1	7	5.0.10.0	d070_B12_B2_pleasA	dB12_valA_070	4	24	300	300	0	0	56	23	1	1	blank2r.bmp	0	1	+	0	2	B2r.bmp	500	1	blank2r.bmp	800	1	GKQX	800	1	blank2r.bmp	870	1	toll	870	1	!	1200	1	blank2r.bmp	1330	0	0	0
020118	09:27:52	1	7	5.0.10.0	d070_B12_B2_unplA	dB12_valA_070	4	25	300	300	0	0	26	23	1	1	blank2r.bmp	0	1	+	0	3	B3r.bmp	500	1	blank2r.bmp	800	1	GKQX	800	1	blank2r.bmp	870	4	elend	870	1	!	1200	1	blank2r.bmp	1330	0	0	0
020118	09:27:52	1	7	5.0.10.0	d070_B12_B1_pleasA	dB12_valA_070	4	26	300	300	0	0	591	18	1	1	blank2r.bmp	0	1	+	0	7	C3r.bmp	500	1	blank2r.bmp	800	1	BMVZ	800	1	blank2r.bmp	870	5	friedlich	870	1	!	1200	1	blank2r.bmp	1330	0	0	0
020118	09:27:52	1	7	5.0.10.0	d070_B12_B1_pleasA	dB12_valA_070	4	27	300	300	0	0	922	18	1	1	blank2r.bmp	0	1	+	0	6	C2r.bmp	500	1	blank2r.bmp	800	1	BMVZ	800	1	blank2r.bmp	870	4	heiter	870	1	!	1200	1	blank2r.bmp	1330	0	0	0
020118	09:27:52	1	7	5.0.10.0	d070_B12_B1_pleasA	dB12_valA_070	4	28	300	300	0	0	342	23	0	1	blank2r.bmp	0	1	+	0	1	B1r.bmp	500	1	blank2r.bmp	800	1	BMVZ	800	1	blank2r.bmp	870	5	friedlich	870	1	!	1200	1	blank2r.bmp	1330	0	0	0
020118	09:27:52	1	7	5.0.10.0	d070_B12_B2_pleasA	dB12_valA_070	4	29	300	300	0	0	845	23	1	1	blank2r.bmp	0	1	+	0	2	B2r.bmp	500	1	blank2r.bmp	800	1	GKQX	800	1	blank2r.bmp	870	2	schön	870	1	!	1200	1	blank2r.bmp	1330	0	0	0
020118	09:27:52	1	7	5.0.10.0	d070_B12_B2_pleasA	dB12_valA_070	4	30	300	300	0	0	791	18	0	1	blank2r.bmp	0	1	+	0	8	C4r.bmp	500	1	blank2r.bmp	800	1	GKQX	800	1	blank2r.bmp	870	3	freund	870	1	!	1200	1	blank2r.bmp	1330	0	0	0
020118	09:27:52	1	7	5.0.10.0	d070_B12_B2_unplA	dB12_valA_070	4	31	300	300	0	0	193	23	1	1	blank2r.bmp	0	1	+	0	4	B4r.bmp	500	1	blank2r.bmp	800	1	GKQX	800	1	blank2r.bmp	870	6	leiden	870	1	!	1200	1	blank2r.bmp	1330	0	0	0
020118	09:27:52	1	7	5.0.10.0	d070_B12_B1_unplA	dB12_valA_070	4	32	300	300	0	0	121	18	1	1	blank2r.bmp	0	1	+	0	5	C1r.bmp	500	1	blank2r.bmp	800	1	BMVZ	800	1	blank2r.bmp	870	5	schlecht	870	1	!	1200	1	blank2r.bmp	1330	0	0	0
020118	09:27:52	1	7	5.0.10.0	d070_B12_B2_pleasA	dB12_valA_070	4	33	300	300	0	0	51	23	1	1	blank2r.bmp	0	1	+	0	1	B1r.bmp	500	1	blank2r.bmp	800	1	GKQX	800	1	blank2r.bmp	870	4	heiter	870	1	!	1200	1	blank2r.bmp	1330	0	0	0
020118	09:27:52	1	7	5.0.10.0	d070_B12_B1_pleasA	dB12_valA_070	4	34	300	300	0	0	87	18	1	1	blank2r.bmp	0	1	+	0	7	C3r.bmp	500	1	blank2r.bmp	800	1	BMVZ	800	1	blank2r.bmp	870	6	froh	870	1	!	1200	1	blank2r.bmp	1330	0	0	0
020118	09:27:52	1	7	5.0.10.0	d070_B12_B2_unplA	dB12_valA_070	4	35	300	300	0	0	171	18	0	1	blank2r.bmp	0	1	+	0	2	B2r.bmp	500	1	blank2r.bmp	800	1	GKQX	800	1	blank2r.bmp	870	3	töten	870	1	!	1200	1	blank2r.bmp	1330	0	0	0
020118	09:27:52	1	7	5.0.10.0	d070_B12_B2_unplA	dB12_valA_070	4	36	300	300	0	0	645	23	1	1	blank2r.bmp	0	1	+	0	8	C4r.bmp	500	1	blank2r.bmp	800	1	GKQX	800	1	blank2r.bmp	870	4	elend	870	1	!	1200	1	blank2r.bmp	1330	0	0	0
020118	09:27:52	1	7	5.0.10.0	d070_B12_B1_pleasA	dB12_valA_070	4	37	300	300	0	0	40	18	1	1	blank2r.bmp	0	1	+	0	3	B3r.bmp	500	1	blank2r.bmp	800	1	BMVZ	800	1	blank2r.bmp	870	1	toll	870	1	!	1200	1	blank2r.bmp	1330	0	0	0
020118	09:27:52	1	7	5.0.10.0	d070_B12_B1_unplA	dB12_valA_070	4	38	300	300	0	0	195	18	1	1	blank2r.bmp	0	1	+	0	5	C1r.bmp	500	1	blank2r.bmp	800	1	BMVZ	800	1	blank2r.bmp	870	5	schlecht	870	1	!	1200	1	blank2r.bmp	1330	0	0	0
020118	09:27:52	1	7	5.0.10.0	d070_B12_B1_pleasA	dB12_valA_070	4	39	300	300	0	0	393	18	1	1	blank2r.bmp	0	1	+	0	6	C2r.bmp	500	1	blank2r.bmp	800	1	BMVZ	800	1	blank2r.bmp	870	5	friedlich	870	1	!	1200	1	blank2r.bmp	1330	0	0	0
020118	09:27:52	1	7	5.0.10.0	d070_B12_B1_unplA	dB12_valA_070	4	40	300	300	0	0	117	23	0	1	blank2r.bmp	0	1	+	0	4	B4r.bmp	500	1	blank2r.bmp	800	1	BMVZ	800	1	blank2r.bmp	870	6	leiden	870	1	!	1200	1	blank2r.bmp	1330	0	0	0
020118	09:27:52	1	7	5.0.10.0	d070_B12_B1_pleasA	dB12_valA_070	4	41	300	300	0	0	238	18	1	1	blank2r.bmp	0	1	+	0	5	C1r.bmp	500	1	blank2r.bmp	800	1	BMVZ	800	1	blank2r.bmp	870	1	toll	870	1	!	1200	1	blank2r.bmp	1330	0	0	0
020118	09:27:52	1	7	5.0.10.0	d070_B12_B2_pleasA	dB12_valA_070	4	42	300	300	0	0	1	23	1	1	blank2r.bmp	0	1	+	0	8	C4r.bmp	500	1	blank2r.bmp	800	1	GKQX	800	1	blank2r.bmp	870	2	schön	870	1	!	1200	1	blank2r.bmp	1330	0	0	0
020118	09:27:52	1	7	5.0.10.0	d070_B12_B1_unplA	dB12_valA_070	4	43	300	300	0	0	237	18	1	1	blank2r.bmp	0	1	+	0	7	C3r.bmp	500	1	blank2r.bmp	800	1	BMVZ	800	1	blank2r.bmp	870	2	neidisch	870	1	!	1200	1	blank2r.bmp	1330	0	0	0
020118	09:27:52	1	7	5.0.10.0	d070_B12_B1_pleasA	dB12_valA_070	4	44	300	300	0	0	257	18	1	1	blank2r.bmp	0	1	+	0	2	B2r.bmp	500	1	blank2r.bmp	800	1	BMVZ	800	1	blank2r.bmp	870	3	freund	870	1	!	1200	1	blank2r.bmp	1330	0	0	0
020118	09:27:52	1	7	5.0.10.0	d070_B12_B2_unplA	dB12_valA_070	4	45	300	300	0	0	2348	23	1	1	blank2r.bmp	0	1	+	0	3	B3r.bmp	500	1	blank2r.bmp	800	1	GKQX	800	1	blank2r.bmp	870	1	unfair	870	1	!	1200	1	blank2r.bmp	1330	0	0	0
020118	09:27:52	1	7	5.0.10.0	d070_B12_B2_pleasA	dB12_valA_070	4	46	300	300	0	0	1690	23	1	1	blank2r.bmp	0	1	+	0	6	C2r.bmp	500	1	blank2r.bmp	800	1	GKQX	800	1	blank2r.bmp	870	6	froh	870	1	!	1200	1	blank2r.bmp	1330	0	0	0
020118	09:27:52	1	7	5.0.10.0	d070_B12_B2_pleasA	dB12_valA_070	4	47	300	300	0	0	169	23	1	1	blank2r.bmp	0	1	+	0	1	B1r.bmp	500	1	blank2r.bmp	800	1	GKQX	800	1	blank2r.bmp	870	4	heiter	870	1	!	1200	1	blank2r.bmp	1330	0	0	0
020118	09:27:52	1	7	5.0.10.0	d070_B12_B2_unplA	dB12_valA_070	4	48	300	300	0	0	360	23	1	1	blank2r.bmp	0	1	+	0	4	B4r.bmp	500	1	blank2r.bmp	800	1	GKQX	800	1	blank2r.bmp	870	3	töten	870	1	!	1200	1	blank2r.bmp	1330	0	0	0
020118	09:27:52	1	7	5.0.10.0	dL_A12_A1_pleasB	dA12_valB_pract1	6	1	300	300	0	0	1657	18	1	1	blank2r.bmp	0	1	+	0	4	B4r.bmp	500	1	blank2r.bmp	700	1	NPLW	700	1	B1r.bmp	830	1	blank2r.bmp	870	4	treu	870	1	!	1200	1	blank2r.bmp	1330
020118	09:27:52	1	7	5.0.10.0	dL_A12_A1_unplB	dA12_valB_pract1	6	2	300	300	0	0	1850	18	1	1	blank2r.bmp	0	1	+	0	3	B3r.bmp	500	1	blank2r.bmp	700	1	NPLW	700	7	C3r.bmp	830	1	blank2r.bmp	870	1	grausam	870	1	!	1200	1	blank2r.bmp	1330
020118	09:27:52	1	7	5.0.10.0	dL_A12_A1_unplB	dA12_valB_pract1	6	3	300	300	0	0	424	18	1	1	blank2r.bmp	0	1	+	0	1	B1r.bmp	500	1	blank2r.bmp	700	1	NPLW	700	5	C1r.bmp	830	1	blank2r.bmp	870	2	geizig	870	1	!	1200	1	blank2r.bmp	1330
020118	09:27:52	1	7	5.0.10.0	dL_A12_A2_pleasB	dA12_valB_pract1	6	4	300	300	0	0	1699	23	1	1	blank2r.bmp	0	1	+	0	6	C2r.bmp	500	1	blank2r.bmp	700	1	DHJF	700	4	B4r.bmp	830	1	blank2r.bmp	870	6	kreativ	870	1	!	1200	1	blank2r.bmp	1330
020118	09:27:52	1	7	5.0.10.0	dL_A12_A2_pleasB	dA12_valB_pract1	6	5	300	300	0	0	656	23	1	1	blank2r.bmp	0	1	+	0	5	C1r.bmp	500	1	blank2r.bmp	700	1	DHJF	700	3	B3r.bmp	830	1	blank2r.bmp	870	5	begabt	870	1	!	1200	1	blank2r.bmp	1330
020118	09:27:52	1	7	5.0.10.0	dL_A12_A2_unplB	dA12_valB_pract1	6	6	300	300	0	0	1843	23	1	1	blank2r.bmp	0	1	+	0	8	C4r.bmp	500	1	blank2r.bmp	700	1	DHJF	700	6	C2r.bmp	830	1	blank2r.bmp	870	3	ärger	870	1	!	1200	1	blank2r.bmp	1330
020118	09:27:52	1	7	5.0.10.0	dL_A12_A1_unplB	dA12_valB_pract1	6	7	300	300	0	0	953	18	1	1	blank2r.bmp	0	1	+	0	2	B2r.bmp	500	1	blank2r.bmp	700	1	NPLW	700	8	C4r.bmp	830	1	blank2r.bmp	870	6	traurig	870	1	!	1200	1	blank2r.bmp	1330
020118	09:27:52	1	7	5.0.10.0	dL_A12_A2_unplB	dA12_valB_pract1	6	8	300	300	0	0	318	23	1	1	blank2r.bmp	0	1	+	0	7	C3r.bmp	500	1	blank2r.bmp	700	1	DHJF	700	2	B2r.bmp	830	1	blank2r.bmp	870	4	böse	870	1	!	1200	1	blank2r.bmp	1330
020118	09:27:52	1	7	5.0.10.0	dL_A12_A2_pleasB	dA12_valB_pract1	6	9	300	300	0	0	212	23	1	1	blank2r.bmp	0	1	+	0	8	C4r.bmp	500	1	blank2r.bmp	700	1	DHJF	700	2	B2r.bmp	830	1	blank2r.bmp	870	3	kuss	870	1	!	1200	1	blank2r.bmp	1330
020118	09:27:52	1	7	5.0.10.0	dL_A12_A1_pleasB	dA12_valB_pract1	6	10	300	300	0	0	228	18	1	1	blank2r.bmp	0	1	+	0	4	B4r.bmp	500	1	blank2r.bmp	700	1	NPLW	700	3	B3r.bmp	830	1	blank2r.bmp	870	2	mutig	870	1	!	1200	1	blank2r.bmp	1330
020118	09:27:52	1	7	5.0.10.0	dL_A12_A1_pleasB	dA12_valB_pract1	6	11	300	300	0	0	288	18	1	1	blank2r.bmp	0	1	+	0	7	C3r.bmp	500	1	blank2r.bmp	700	1	NPLW	700	5	C1r.bmp	830	1	blank2r.bmp	870	1	gut	870	1	!	1200	1	blank2r.bmp	1330
020118	09:27:52	1	7	5.0.10.0	dL_A12_A2_unplB	dA12_valB_pract1	6	12	300	300	0	0	99	23	1	1	blank2r.bmp	0	1	+	0	6	C2r.bmp	500	1	blank2r.bmp	700	1	DHJF	700	4	B4r.bmp	830	1	blank2r.bmp	870	5	kummer	870	1	!	1200	1	blank2r.bmp	1330
020118	09:27:52	1	7	5.0.10.0	dM_A12_A2_pleasB	dA12_valB_pract2	7	1	300	300	0	0	782	23	1	1	blank2r.bmp	0	1	+	0	2	B2r.bmp	500	1	blank2r.bmp	730	1	DHJF	730	6	C2r.bmp	830	1	blank2r.bmp	870	4	treu	870	1	!	1200	1	blank2r.bmp	1330
020118	09:27:52	1	7	5.0.10.0	dM_A12_A2_unplB	dA12_valB_pract2	7	2	300	300	0	0	2803	23	1	1	blank2r.bmp	0	1	+	0	1	B1r.bmp	500	1	blank2r.bmp	730	1	DHJF	730	8	C4r.bmp	830	1	blank2r.bmp	870	6	traurig	870	1	!	1200	1	blank2r.bmp	1330
020118	09:27:52	1	7	5.0.10.0	dM_A12_A2_pleasB	dA12_valB_pract2	7	3	300	300	0	0	115	23	1	1	blank2r.bmp	0	1	+	0	3	B3r.bmp	500	1	blank2r.bmp	730	1	DHJF	730	7	C3r.bmp	830	1	blank2r.bmp	870	1	gut	870	1	!	1200	1	blank2r.bmp	1330
020118	09:27:52	1	7	5.0.10.0	dM_A12_A2_pleasB	dA12_valB_pract2	7	4	300	300	0	0	174	23	1	1	blank2r.bmp	0	1	+	0	5	C1r.bmp	500	1	blank2r.bmp	730	1	DHJF	730	1	B1r.bmp	830	1	blank2r.bmp	870	5	begabt	870	1	!	1200	1	blank2r.bmp	1330
020118	09:27:52	1	7	5.0.10.0	dM_A12_A1_pleasB	dA12_valB_pract2	7	5	300	300	0	0	46	18	1	1	blank2r.bmp	0	1	+	0	5	C1r.bmp	500	1	blank2r.bmp	730	1	NPLW	730	7	C3r.bmp	830	1	blank2r.bmp	870	6	kreativ	870	1	!	1200	1	blank2r.bmp	1330
020118	09:27:52	1	7	5.0.10.0	dM_A12_A1_pleasB	dA12_valB_pract2	7	6	300	300	0	0	178	18	1	1	blank2r.bmp	0	1	+	0	1	B1r.bmp	500	1	blank2r.bmp	730	1	NPLW	730	6	C2r.bmp	830	1	blank2r.bmp	870	2	mutig	870	1	!	1200	1	blank2r.bmp	1330
020118	09:27:52	1	7	5.0.10.0	dM_A12_A2_unplB	dA12_valB_pract2	7	7	300	300	0	0	97	23	1	1	blank2r.bmp	0	1	+	0	3	B3r.bmp	500	1	blank2r.bmp	730	1	DHJF	730	1	B1r.bmp	830	1	blank2r.bmp	870	4	böse	870	1	!	1200	1	blank2r.bmp	1330
020118	09:27:52	1	7	5.0.10.0	dM_A12_A2_unplB	dA12_valB_pract2	7	8	300	300	0	0	1855	23	1	1	blank2r.bmp	0	1	+	0	2	B2r.bmp	500	1	blank2r.bmp	730	1	DHJF	730	8	C4r.bmp	830	1	blank2r.bmp	870	3	ärger	870	1	!	1200	1	blank2r.bmp	1330
020118	09:27:52	1	7	5.0.10.0	dM_A12_A1_unplB	dA12_valB_pract2	7	9	300	300	0	0	126	18	1	1	blank2r.bmp	0	1	+	0	7	C3r.bmp	500	1	blank2r.bmp	730	1	NPLW	730	4	B4r.bmp	830	1	blank2r.bmp	870	1	grausam	870	1	!	1200	1	blank2r.bmp	1330
020118	09:27:52	1	7	5.0.10.0	dM_A12_A1_pleasB	dA12_valB_pract2	7	10	300	300	0	0	215	18	1	1	blank2r.bmp	0	1	+	0	8	C4r.bmp	500	1	blank2r.bmp	730	1	NPLW	730	5	C1r.bmp	830	1	blank2r.bmp	870	3	kuss	870	1	!	1200	1	blank2r.bmp	1330
020118	09:27:52	1	7	5.0.10.0	dM_A12_A1_unplB	dA12_valB_pract2	7	11	300	300	0	0	117	18	1	1	blank2r.bmp	0	1	+	0	4	B4r.bmp	500	1	blank2r.bmp	730	1	NPLW	730	3	B3r.bmp	830	1	blank2r.bmp	870	2	geizig	870	1	!	1200	1	blank2r.bmp	1330
020118	09:27:52	1	7	5.0.10.0	dM_A12_A1_unplB	dA12_valB_pract2	7	12	300	300	0	0	440	18	1	1	blank2r.bmp	0	1	+	0	6	C2r.bmp	500	1	blank2r.bmp	730	1	NPLW	730	2	B2r.bmp	830	1	blank2r.bmp	870	5	kummer	870	1	!	1200	1	blank2r.bmp	1330
020118	09:27:52	1	7	5.0.10.0	d080_A12_A1_unplB	dA12_valB_080	8	1	300	300	0	0	212	18	1	1	blank2r.bmp	0	1	+	0	4	B4r.bmp	500	1	blank2r.bmp	800	1	NPLW	800	1	blank2r.bmp	880	5	kummer	880	1	!	1210	1	blank2r.bmp	1340	0	0	0
020118	09:27:52	1	7	5.0.10.0	d080_A12_A2_unplB	dA12_valB_080	8	2	300	300	0	0	147	23	1	1	blank2r.bmp	0	1	+	0	7	C3r.bmp	500	1	blank2r.bmp	800	1	DHJF	800	1	blank2r.bmp	880	2	geizig	880	1	!	1210	1	blank2r.bmp	1340	0	0	0
020118	09:27:52	1	7	5.0.10.0	d080_A12_A2_pleasB	dA12_valB_080	8	3	300	300	0	0	145	23	1	1	blank2r.bmp	0	1	+	0	6	C2r.bmp	500	1	blank2r.bmp	800	1	DHJF	800	1	blank2r.bmp	880	1	gut	880	1	!	1210	1	blank2r.bmp	1340	0	0	0
020118	09:27:52	1	7	5.0.10.0	d080_A12_A1_unplB	dA12_valB_080	8	4	300	300	0	0	172	18	1	1	blank2r.bmp	0	1	+	0	5	C1r.bmp	500	1	blank2r.bmp	800	1	NPLW	800	1	blank2r.bmp	880	4	böse	880	1	!	1210	1	blank2r.bmp	1340	0	0	0
020118	09:27:52	1	7	5.0.10.0	d080_A12_A1_pleasB	dA12_valB_080	8	5	300	300	0	0	200	18	1	1	blank2r.bmp	0	1	+	0	1	B1r.bmp	500	1	blank2r.bmp	800	1	NPLW	800	1	blank2r.bmp	880	5	begabt	880	1	!	1210	1	blank2r.bmp	1340	0	0	0
020118	09:27:52	1	7	5.0.10.0	d080_A12_A2_pleasB	dA12_valB_080	8	6	300	300	0	0	147	23	1	1	blank2r.bmp	0	1	+	0	3	B3r.bmp	500	1	blank2r.bmp	800	1	DHJF	800	1	blank2r.bmp	880	2	mutig	880	1	!	1210	1	blank2r.bmp	1340	0	0	0
020118	09:27:52	1	7	5.0.10.0	d080_A12_A1_unplB	dA12_valB_080	8	7	300	300	0	0	587	23	0	1	blank2r.bmp	0	1	+	0	2	B2r.bmp	500	1	blank2r.bmp	800	1	NPLW	800	1	blank2r.bmp	880	6	traurig	880	1	!	1210	1	blank2r.bmp	1340	0	0	0
020118	09:27:52	1	7	5.0.10.0	d080_A12_A2_pleasB	dA12_valB_080	8	8	300	300	0	0	102	23	1	1	blank2r.bmp	0	1	+	0	8	C4r.bmp	500	1	blank2r.bmp	800	1	DHJF	800	1	blank2r.bmp	880	3	kuss	880	1	!	1210	1	blank2r.bmp	1340	0	0	0
020118	09:27:52	1	7	5.0.10.0	d080_A12_A1_unplB	dA12_valB_080	8	9	300	300	0	0	74	18	1	1	blank2r.bmp	0	1	+	0	7	C3r.bmp	500	1	blank2r.bmp	800	1	NPLW	800	1	blank2r.bmp	880	1	grausam	880	1	!	1210	1	blank2r.bmp	1340	0	0	0
020118	09:27:52	1	7	5.0.10.0	d080_A12_A1_unplB	dA12_valB_080	8	10	300	300	0	0	233	18	1	1	blank2r.bmp	0	1	+	0	1	B1r.bmp	500	1	blank2r.bmp	800	1	NPLW	800	1	blank2r.bmp	880	3	ärger	880	1	!	1210	1	blank2r.bmp	1340	0	0	0
020118	09:27:52	1	7	5.0.10.0	d080_A12_A2_pleasB	dA12_valB_080	8	11	300	300	0	0	138	23	1	1	blank2r.bmp	0	1	+	0	8	C4r.bmp	500	1	blank2r.bmp	800	1	DHJF	800	1	blank2r.bmp	880	6	kreativ	880	1	!	1210	1	blank2r.bmp	1340	0	0	0
020118	09:27:52	1	7	5.0.10.0	d080_A12_A2_unplB	dA12_valB_080	8	12	300	300	0	0	39	23	1	1	blank2r.bmp	0	1	+	0	6	C2r.bmp	500	1	blank2r.bmp	800	1	DHJF	800	1	blank2r.bmp	880	6	traurig	880	1	!	1210	1	blank2r.bmp	1340	0	0	0
020118	09:27:52	1	7	5.0.10.0	d080_A12_A1_unplB	dA12_valB_080	8	13	300	300	0	0	1290	18	1	1	blank2r.bmp	0	1	+	0	5	C1r.bmp	500	1	blank2r.bmp	800	1	NPLW	800	1	blank2r.bmp	880	2	geizig	880	1	!	1210	1	blank2r.bmp	1340	0	0	0
020118	09:27:52	1	7	5.0.10.0	d080_A12_A1_pleasB	dA12_valB_080	8	14	300	300	0	0	200	18	1	1	blank2r.bmp	0	1	+	0	2	B2r.bmp	500	1	blank2r.bmp	800	1	NPLW	800	1	blank2r.bmp	880	4	treu	880	1	!	1210	1	blank2r.bmp	1340	0	0	0
020118	09:27:52	1	7	5.0.10.0	d080_A12_A2_pleasB	dA12_valB_080	8	15	300	300	0	0	103	23	1	1	blank2r.bmp	0	1	+	0	4	B4r.bmp	500	1	blank2r.bmp	800	1	DHJF	800	1	blank2r.bmp	880	3	kuss	880	1	!	1210	1	blank2r.bmp	1340	0	0	0
020118	09:27:52	1	7	5.0.10.0	d080_A12_A2_pleasB	dA12_valB_080	8	16	300	300	0	0	125	23	1	1	blank2r.bmp	0	1	+	0	3	B3r.bmp	500	1	blank2r.bmp	800	1	DHJF	800	1	blank2r.bmp	880	2	mutig	880	1	!	1210	1	blank2r.bmp	1340	0	0	0
020118	09:27:52	1	7	5.0.10.0	d080_A12_A2_unplB	dA12_valB_080	8	17	300	300	0	0	184	23	1	1	blank2r.bmp	0	1	+	0	5	C1r.bmp	500	1	blank2r.bmp	800	1	DHJF	800	1	blank2r.bmp	880	1	grausam	880	1	!	1210	1	blank2r.bmp	1340	0	0	0
020118	09:27:52	1	7	5.0.10.0	d080_A12_A1_unplB	dA12_valB_080	8	18	300	300	0	0	159	18	1	1	blank2r.bmp	0	1	+	0	6	C2r.bmp	500	1	blank2r.bmp	800	1	NPLW	800	1	blank2r.bmp	880	4	böse	880	1	!	1210	1	blank2r.bmp	1340	0	0	0
020118	09:27:52	1	7	5.0.10.0	d080_A12_A1_unplB	dA12_valB_080	8	19	300	300	0	0	1318	18	1	1	blank2r.bmp	0	1	+	0	8	C4r.bmp	500	1	blank2r.bmp	800	1	NPLW	800	1	blank2r.bmp	880	5	kummer	880	1	!	1210	1	blank2r.bmp	1340	0	0	0
020118	09:27:52	1	7	5.0.10.0	d080_A12_A1_pleasB	dA12_valB_080	8	20	300	300	0	0	271	18	1	1	blank2r.bmp	0	1	+	0	1	B1r.bmp	500	1	blank2r.bmp	800	1	NPLW	800	1	blank2r.bmp	880	5	begabt	880	1	!	1210	1	blank2r.bmp	1340	0	0	0
020118	09:27:52	1	7	5.0.10.0	d080_A12_A2_pleasB	dA12_valB_080	8	21	300	300	0	0	183	23	1	1	blank2r.bmp	0	1	+	0	4	B4r.bmp	500	1	blank2r.bmp	800	1	DHJF	800	1	blank2r.bmp	880	6	kreativ	880	1	!	1210	1	blank2r.bmp	1340	0	0	0
020118	09:27:52	1	7	5.0.10.0	d080_A12_A1_unplB	dA12_valB_080	8	22	300	300	0	0	148	18	1	1	blank2r.bmp	0	1	+	0	2	B2r.bmp	500	1	blank2r.bmp	800	1	NPLW	800	1	blank2r.bmp	880	3	ärger	880	1	!	1210	1	blank2r.bmp	1340	0	0	0
020118	09:27:52	1	7	5.0.10.0	d080_A12_A2_unplB	dA12_valB_080	8	23	300	300	0	0	115	23	1	1	blank2r.bmp	0	1	+	0	7	C3r.bmp	500	1	blank2r.bmp	800	1	DHJF	800	1	blank2r.bmp	880	4	böse	880	1	!	1210	1	blank2r.bmp	1340	0	0	0
020118	09:27:52	1	7	5.0.10.0	d080_A12_A1_pleasB	dA12_valB_080	8	24	300	300	0	0	1437	18	1	1	blank2r.bmp	0	1	+	0	3	B3r.bmp	500	1	blank2r.bmp	800	1	NPLW	800	1	blank2r.bmp	880	4	treu	880	1	!	1210	1	blank2r.bmp	1340	0	0	0
020118	09:27:52	1	7	5.0.10.0	d080_A12_A2_pleasB	dA12_valB_080	8	25	300	300	0	0	146	23	1	1	blank2r.bmp	0	1	+	0	3	B3r.bmp	500	1	blank2r.bmp	800	1	DHJF	800	1	blank2r.bmp	880	1	gut	880	1	!	1210	1	blank2r.bmp	1340	0	0	0
020118	09:27:52	1	7	5.0.10.0	d080_A12_A1_pleasB	dA12_valB_080	8	26	300	300	0	0	107	18	1	1	blank2r.bmp	0	1	+	0	1	B1r.bmp	500	1	blank2r.bmp	800	1	NPLW	800	1	blank2r.bmp	880	1	gut	880	1	!	1210	1	blank2r.bmp	1340	0	0	0
020118	09:27:52	1	7	5.0.10.0	d080_A12_A1_unplB	dA12_valB_080	8	27	300	300	0	0	135	23	0	1	blank2r.bmp	0	1	+	0	6	C2r.bmp	500	1	blank2r.bmp	800	1	NPLW	800	1	blank2r.bmp	880	6	traurig	880	1	!	1210	1	blank2r.bmp	1340	0	0	0
020118	09:27:52	1	7	5.0.10.0	d080_A12_A1_pleasB	dA12_valB_080	8	28	300	300	0	0	106	18	1	1	blank2r.bmp	0	1	+	0	8	C4r.bmp	500	1	blank2r.bmp	800	1	NPLW	800	1	blank2r.bmp	880	2	mutig	880	1	!	1210	1	blank2r.bmp	1340	0	0	0
020118	09:27:52	1	7	5.0.10.0	d080_A12_A2_unplB	dA12_valB_080	8	29	300	300	0	0	1816	23	1	1	blank2r.bmp	0	1	+	0	5	C1r.bmp	500	1	blank2r.bmp	800	1	DHJF	800	1	blank2r.bmp	880	3	ärger	880	1	!	1210	1	blank2r.bmp	1340	0	0	0
020118	09:27:52	1	7	5.0.10.0	d080_A12_A2_unplB	dA12_valB_080	8	30	300	300	0	0	141	23	1	1	blank2r.bmp	0	1	+	0	7	C3r.bmp	500	1	blank2r.bmp	800	1	DHJF	800	1	blank2r.bmp	880	5	kummer	880	1	!	1210	1	blank2r.bmp	1340	0	0	0
020118	09:27:52	1	7	5.0.10.0	d080_A12_A2_unplB	dA12_valB_080	8	31	300	300	0	0	59	23	1	1	blank2r.bmp	0	1	+	0	4	B4r.bmp	500	1	blank2r.bmp	800	1	DHJF	800	1	blank2r.bmp	880	2	geizig	880	1	!	1210	1	blank2r.bmp	1340	0	0	0
020118	09:27:52	1	7	5.0.10.0	d080_A12_A2_pleasB	dA12_valB_080	8	32	300	300	0	0	1194	23	1	1	blank2r.bmp	0	1	+	0	2	B2r.bmp	500	1	blank2r.bmp	800	1	DHJF	800	1	blank2r.bmp	880	6	kreativ	880	1	!	1210	1	blank2r.bmp	1340	0	0	0
020118	09:27:52	1	7	5.0.10.0	d080_A12_A1_pleasB	dA12_valB_080	8	33	300	300	0	0	1214	18	1	1	blank2r.bmp	0	1	+	0	5	C1r.bmp	500	1	blank2r.bmp	800	1	NPLW	800	1	blank2r.bmp	880	3	kuss	880	1	!	1210	1	blank2r.bmp	1340	0	0	0
020118	09:27:52	1	7	5.0.10.0	d080_A12_A1_pleasB	dA12_valB_080	8	34	300	300	0	0	278	18	1	1	blank2r.bmp	0	1	+	0	6	C2r.bmp	500	1	blank2r.bmp	800	1	NPLW	800	1	blank2r.bmp	880	5	begabt	880	1	!	1210	1	blank2r.bmp	1340	0	0	0
020118	09:27:52	1	7	5.0.10.0	d080_A12_A2_pleasB	dA12_valB_080	8	35	300	300	0	0	7	23	1	1	blank2r.bmp	0	1	+	0	3	B3r.bmp	500	1	blank2r.bmp	800	1	DHJF	800	1	blank2r.bmp	880	4	treu	880	1	!	1210	1	blank2r.bmp	1340	0	0	0
020118	09:27:52	1	7	5.0.10.0	d080_A12_A1_pleasB	dA12_valB_080	8	36	300	300	0	0	1334	18	1	1	blank2r.bmp	0	1	+	0	7	C3r.bmp	500	1	blank2r.bmp	800	1	NPLW	800	1	blank2r.bmp	880	5	begabt	880	1	!	1210	1	blank2r.bmp	1340	0	0	0
020118	09:27:52	1	7	5.0.10.0	d080_A12_A1_pleasB	dA12_valB_080	8	37	300	300	0	0	143	18	1	1	blank2r.bmp	0	1	+	0	1	B1r.bmp	500	1	blank2r.bmp	800	1	NPLW	800	1	blank2r.bmp	880	4	treu	880	1	!	1210	1	blank2r.bmp	1340	0	0	0
020118	09:27:52	1	7	5.0.10.0	d080_A12_A1_unplB	dA12_valB_080	8	38	300	300	0	0	186	18	1	1	blank2r.bmp	0	1	+	0	4	B4r.bmp	500	1	blank2r.bmp	800	1	NPLW	800	1	blank2r.bmp	880	1	grausam	880	1	!	1210	1	blank2r.bmp	1340	0	0	0
020118	09:27:52	1	7	5.0.10.0	d080_A12_A2_unplB	dA12_valB_080	8	39	300	300	0	0	865	23	1	1	blank2r.bmp	0	1	+	0	8	C4r.bmp	500	1	blank2r.bmp	800	1	DHJF	800	1	blank2r.bmp	880	4	böse	880	1	!	1210	1	blank2r.bmp	1340	0	0	0
020118	09:27:52	1	7	5.0.10.0	d080_A12_A2_unplB	dA12_valB_080	8	40	300	300	0	0	241	23	1	1	blank2r.bmp	0	1	+	0	2	B2r.bmp	500	1	blank2r.bmp	800	1	DHJF	800	1	blank2r.bmp	880	2	geizig	880	1	!	1210	1	blank2r.bmp	1340	0	0	0
020118	09:27:52	1	7	5.0.10.0	d080_A12_A2_unplB	dA12_valB_080	8	41	300	300	0	0	20	23	1	1	blank2r.bmp	0	1	+	0	7	C3r.bmp	500	1	blank2r.bmp	800	1	DHJF	800	1	blank2r.bmp	880	1	grausam	880	1	!	1210	1	blank2r.bmp	1340	0	0	0
020118	09:27:52	1	7	5.0.10.0	d080_A12_A1_pleasB	dA12_valB_080	8	42	300	300	0	0	68	18	1	1	blank2r.bmp	0	1	+	0	3	B3r.bmp	500	1	blank2r.bmp	800	1	NPLW	800	1	blank2r.bmp	880	3	kuss	880	1	!	1210	1	blank2r.bmp	1340	0	0	0
020118	09:27:52	1	7	5.0.10.0	d080_A12_A2_unplB	dA12_valB_080	8	43	300	300	0	0	131	23	1	1	blank2r.bmp	0	1	+	0	1	B1r.bmp	500	1	blank2r.bmp	800	1	DHJF	800	1	blank2r.bmp	880	5	kummer	880	1	!	1210	1	blank2r.bmp	1340	0	0	0
020118	09:27:52	1	7	5.0.10.0	d080_A12_A1_unplB	dA12_valB_080	8	44	300	300	0	0	27	18	1	1	blank2r.bmp	0	1	+	0	4	B4r.bmp	500	1	blank2r.bmp	800	1	NPLW	800	1	blank2r.bmp	880	6	traurig	880	1	!	1210	1	blank2r.bmp	1340	0	0	0
020118	09:27:52	1	7	5.0.10.0	d080_A12_A2_pleasB	dA12_valB_080	8	45	300	300	0	0	8	23	1	1	blank2r.bmp	0	1	+	0	2	B2r.bmp	500	1	blank2r.bmp	800	1	DHJF	800	1	blank2r.bmp	880	2	mutig	880	1	!	1210	1	blank2r.bmp	1340	0	0	0
020118	09:27:52	1	7	5.0.10.0	d080_A12_A2_pleasB	dA12_valB_080	8	46	300	300	0	0	1259	23	1	1	blank2r.bmp	0	1	+	0	5	C1r.bmp	500	1	blank2r.bmp	800	1	DHJF	800	1	blank2r.bmp	880	6	kreativ	880	1	!	1210	1	blank2r.bmp	1340	0	0	0
020118	09:27:52	1	7	5.0.10.0	d080_A12_A1_pleasB	dA12_valB_080	8	47	300	300	0	0	60	18	1	1	blank2r.bmp	0	1	+	0	6	C2r.bmp	500	1	blank2r.bmp	800	1	NPLW	800	1	blank2r.bmp	880	1	gut	880	1	!	1210	1	blank2r.bmp	1340	0	0	0
020118	09:27:52	1	7	5.0.10.0	d080_A12_A2_unplB	dA12_valB_080	8	48	300	300	0	0	1477	23	1	1	blank2r.bmp	0	1	+	0	8	C4r.bmp	500	1	blank2r.bmp	800	1	DHJF	800	1	blank2r.bmp	880	3	ärger	880	1	!	1210	1	blank2r.bmp	1340	0	0	0
020118	09:27:52	1	7	5.0.10.0	d080_A12_A1_pleasB	dA12_valB_080	9	1	300	300	0	0	194	18	1	1	blank2r.bmp	0	1	+	0	5	C1r.bmp	500	1	blank2r.bmp	800	1	NPLW	800	1	blank2r.bmp	880	5	begabt	880	1	!	1210	1	blank2r.bmp	1340	0	0	0
020118	09:27:52	1	7	5.0.10.0	d080_A12_A2_unplB	dA12_valB_080	9	2	300	300	0	0	190	23	1	1	blank2r.bmp	0	1	+	0	1	B1r.bmp	500	1	blank2r.bmp	800	1	DHJF	800	1	blank2r.bmp	880	2	geizig	880	1	!	1210	1	blank2r.bmp	1340	0	0	0
020118	09:27:52	1	7	5.0.10.0	d080_A12_A2_pleasB	dA12_valB_080	9	3	300	300	0	0	160	23	1	1	blank2r.bmp	0	1	+	0	4	B4r.bmp	500	1	blank2r.bmp	800	1	DHJF	800	1	blank2r.bmp	880	6	kreativ	880	1	!	1210	1	blank2r.bmp	1340	0	0	0
020118	09:27:52	1	7	5.0.10.0	d080_A12_A2_unplB	dA12_valB_080	9	4	300	300	0	0	169	23	1	1	blank2r.bmp	0	1	+	0	3	B3r.bmp	500	1	blank2r.bmp	800	1	DHJF	800	1	blank2r.bmp	880	1	grausam	880	1	!	1210	1	blank2r.bmp	1340	0	0	0
020118	09:27:52	1	7	5.0.10.0	d080_A12_A2_pleasB	dA12_valB_080	9	5	300	300	0	0	1416	23	1	1	blank2r.bmp	0	1	+	0	6	C2r.bmp	500	1	blank2r.bmp	800	1	DHJF	800	1	blank2r.bmp	880	1	gut	880	1	!	1210	1	blank2r.bmp	1340	0	0	0
020118	09:27:52	1	7	5.0.10.0	d080_A12_A1_pleasB	dA12_valB_080	9	6	300	300	0	0	105	18	1	1	blank2r.bmp	0	1	+	0	7	C3r.bmp	500	1	blank2r.bmp	800	1	NPLW	800	1	blank2r.bmp	880	4	treu	880	1	!	1210	1	blank2r.bmp	1340	0	0	0
020118	09:27:52	1	7	5.0.10.0	d080_A12_A2_unplB	dA12_valB_080	9	7	300	300	0	0	89	23	1	1	blank2r.bmp	0	1	+	0	2	B2r.bmp	500	1	blank2r.bmp	800	1	DHJF	800	1	blank2r.bmp	880	3	ärger	880	1	!	1210	1	blank2r.bmp	1340	0	0	0
020118	09:27:52	1	7	5.0.10.0	d080_A12_A1_pleasB	dA12_valB_080	9	8	300	300	0	0	60	18	1	1	blank2r.bmp	0	1	+	0	8	C4r.bmp	500	1	blank2r.bmp	800	1	NPLW	800	1	blank2r.bmp	880	3	kuss	880	1	!	1210	1	blank2r.bmp	1340	0	0	0
020118	09:27:52	1	7	5.0.10.0	d080_A12_A1_unplB	dA12_valB_080	9	9	300	300	0	0	105	18	1	1	blank2r.bmp	0	1	+	0	8	C4r.bmp	500	1	blank2r.bmp	800	1	NPLW	800	1	blank2r.bmp	880	4	böse	880	1	!	1210	1	blank2r.bmp	1340	0	0	0
020118	09:27:52	1	7	5.0.10.0	d080_A12_A1_unplB	dA12_valB_080	9	10	300	300	0	0	260	18	1	1	blank2r.bmp	0	1	+	0	3	B3r.bmp	500	1	blank2r.bmp	800	1	NPLW	800	1	blank2r.bmp	880	5	kummer	880	1	!	1210	1	blank2r.bmp	1340	0	0	0
020118	09:27:52	1	7	5.0.10.0	d080_A12_A1_pleasB	dA12_valB_080	9	11	300	300	0	0	253	18	1	1	blank2r.bmp	0	1	+	0	2	B2r.bmp	500	1	blank2r.bmp	800	1	NPLW	800	1	blank2r.bmp	880	2	mutig	880	1	!	1210	1	blank2r.bmp	1340	0	0	0
020118	09:27:52	1	7	5.0.10.0	d080_A12_A1_unplB	dA12_valB_080	9	12	300	300	0	0	219	18	1	1	blank2r.bmp	0	1	+	0	5	C1r.bmp	500	1	blank2r.bmp	800	1	NPLW	800	1	blank2r.bmp	880	6	traurig	880	1	!	1210	1	blank2r.bmp	1340	0	0	0
020118	09:27:52	1	7	5.0.10.0	d080_A12_A1_unplB	dA12_valB_080	9	13	300	300	0	0	158	18	1	1	blank2r.bmp	0	1	+	0	1	B1r.bmp	500	1	blank2r.bmp	800	1	NPLW	800	1	blank2r.bmp	880	4	böse	880	1	!	1210	1	blank2r.bmp	1340	0	0	0
020118	09:27:52	1	7	5.0.10.0	d080_A12_A2_pleasB	dA12_valB_080	9	14	300	300	0	0	1542	23	1	1	blank2r.bmp	0	1	+	0	6	C2r.bmp	500	1	blank2r.bmp	800	1	DHJF	800	1	blank2r.bmp	880	2	mutig	880	1	!	1210	1	blank2r.bmp	1340	0	0	0
020118	09:27:52	1	7	5.0.10.0	d080_A12_A1_pleasB	dA12_valB_080	9	15	300	300	0	0	236	18	1	1	blank2r.bmp	0	1	+	0	4	B4r.bmp	500	1	blank2r.bmp	800	1	NPLW	800	1	blank2r.bmp	880	4	treu	880	1	!	1210	1	blank2r.bmp	1340	0	0	0
020118	09:27:52	1	7	5.0.10.0	d080_A12_A1_pleasB	dA12_valB_080	9	16	300	300	0	0	53	18	1	1	blank2r.bmp	0	1	+	0	7	C3r.bmp	500	1	blank2r.bmp	800	1	NPLW	800	1	blank2r.bmp	880	1	gut	880	1	!	1210	1	blank2r.bmp	1340	0	0	0
020118	09:27:52	1	7	5.0.10.0	d080_A12_A2_unplB	dA12_valB_080	9	17	300	300	0	0	1565	23	1	1	blank2r.bmp	0	1	+	0	4	B4r.bmp	500	1	blank2r.bmp	800	1	DHJF	800	1	blank2r.bmp	880	3	ärger	880	1	!	1210	1	blank2r.bmp	1340	0	0	0
020118	09:27:52	1	7	5.0.10.0	d080_A12_A1_unplB	dA12_valB_080	9	18	300	300	0	0	149	18	1	1	blank2r.bmp	0	1	+	0	5	C1r.bmp	500	1	blank2r.bmp	800	1	NPLW	800	1	blank2r.bmp	880	2	geizig	880	1	!	1210	1	blank2r.bmp	1340	0	0	0
020118	09:27:52	1	7	5.0.10.0	d080_A12_A2_pleasB	dA12_valB_080	9	19	300	300	0	0	35	23	1	1	blank2r.bmp	0	1	+	0	3	B3r.bmp	500	1	blank2r.bmp	800	1	DHJF	800	1	blank2r.bmp	880	6	kreativ	880	1	!	1210	1	blank2r.bmp	1340	0	0	0
020118	09:27:52	1	7	5.0.10.0	d080_A12_A1_unplB	dA12_valB_080	9	20	300	300	0	0	1795	18	1	1	blank2r.bmp	0	1	+	0	1	B1r.bmp	500	1	blank2r.bmp	800	1	NPLW	800	1	blank2r.bmp	880	5	kummer	880	1	!	1210	1	blank2r.bmp	1340	0	0	0
020118	09:27:52	1	7	5.0.10.0	d080_A12_A2_pleasB	dA12_valB_080	9	21	300	300	0	0	28	23	1	1	blank2r.bmp	0	1	+	0	6	C2r.bmp	500	1	blank2r.bmp	800	1	DHJF	800	1	blank2r.bmp	880	3	kuss	880	1	!	1210	1	blank2r.bmp	1340	0	0	0
020118	09:27:52	1	7	5.0.10.0	d080_A12_A2_unplB	dA12_valB_080	9	22	300	300	0	0	93	23	1	1	blank2r.bmp	0	1	+	0	2	B2r.bmp	500	1	blank2r.bmp	800	1	DHJF	800	1	blank2r.bmp	880	1	grausam	880	1	!	1210	1	blank2r.bmp	1340	0	0	0
020118	09:27:52	1	7	5.0.10.0	d080_A12_A1_unplB	dA12_valB_080	9	23	300	300	0	0	161	18	1	1	blank2r.bmp	0	1	+	0	8	C4r.bmp	500	1	blank2r.bmp	800	1	NPLW	800	1	blank2r.bmp	880	6	traurig	880	1	!	1210	1	blank2r.bmp	1340	0	0	0
020118	09:27:52	1	7	5.0.10.0	d080_A12_A1_unplB	dA12_valB_080	9	24	300	300	0	0	261	18	1	1	blank2r.bmp	0	1	+	0	7	C3r.bmp	500	1	blank2r.bmp	800	1	NPLW	800	1	blank2r.bmp	880	1	grausam	880	1	!	1210	1	blank2r.bmp	1340	0	0	0
020118	09:27:52	1	7	5.0.10.0	d080_A12_A2_unplB	dA12_valB_080	9	25	300	300	0	0	16	23	1	1	blank2r.bmp	0	1	+	0	2	B2r.bmp	500	1	blank2r.bmp	800	1	DHJF	800	1	blank2r.bmp	880	5	kummer	880	1	!	1210	1	blank2r.bmp	1340	0	0	0
020118	09:27:52	1	7	5.0.10.0	d080_A12_A2_pleasB	dA12_valB_080	9	26	300	300	0	0	88	23	1	1	blank2r.bmp	0	1	+	0	8	C4r.bmp	500	1	blank2r.bmp	800	1	DHJF	800	1	blank2r.bmp	880	5	begabt	880	1	!	1210	1	blank2r.bmp	1340	0	0	0
020118	09:27:52	1	7	5.0.10.0	d080_A12_A2_pleasB	dA12_valB_080	9	27	300	300	0	0	5	23	1	1	blank2r.bmp	0	1	+	0	6	C2r.bmp	500	1	blank2r.bmp	800	1	DHJF	800	1	blank2r.bmp	880	1	gut	880	1	!	1210	1	blank2r.bmp	1340	0	0	0
020118	09:27:52	1	7	5.0.10.0	d080_A12_A2_pleasB	dA12_valB_080	9	28	300	300	0	0	1434	23	1	1	blank2r.bmp	0	1	+	0	7	C3r.bmp	500	1	blank2r.bmp	800	1	DHJF	800	1	blank2r.bmp	880	6	kreativ	880	1	!	1210	1	blank2r.bmp	1340	0	0	0
020118	09:27:52	1	7	5.0.10.0	d080_A12_A1_pleasB	dA12_valB_080	9	29	300	300	0	0	265	18	1	1	blank2r.bmp	0	1	+	0	1	B1r.bmp	500	1	blank2r.bmp	800	1	NPLW	800	1	blank2r.bmp	880	3	kuss	880	1	!	1210	1	blank2r.bmp	1340	0	0	0
020118	09:27:52	1	7	5.0.10.0	d080_A12_A2_pleasB	dA12_valB_080	9	30	300	300	0	0	62	23	1	1	blank2r.bmp	0	1	+	0	4	B4r.bmp	500	1	blank2r.bmp	800	1	DHJF	800	1	blank2r.bmp	880	4	treu	880	1	!	1210	1	blank2r.bmp	1340	0	0	0
020118	09:27:52	1	7	5.0.10.0	d080_A12_A2_unplB	dA12_valB_080	9	31	300	300	0	0	117	23	1	1	blank2r.bmp	0	1	+	0	5	C1r.bmp	500	1	blank2r.bmp	800	1	DHJF	800	1	blank2r.bmp	880	4	böse	880	1	!	1210	1	blank2r.bmp	1340	0	0	0
020118	09:27:52	1	7	5.0.10.0	d080_A12_A2_pleasB	dA12_valB_080	9	32	300	300	0	0	63	23	1	1	blank2r.bmp	0	1	+	0	3	B3r.bmp	500	1	blank2r.bmp	800	1	DHJF	800	1	blank2r.bmp	880	5	begabt	880	1	!	1210	1	blank2r.bmp	1340	0	0	0
020118	09:27:52	1	7	5.0.10.0	d080_A12_A1_unplB	dA12_valB_080	9	33	300	300	0	0	54	18	1	1	blank2r.bmp	0	1	+	0	7	C3r.bmp	500	1	blank2r.bmp	800	1	NPLW	800	1	blank2r.bmp	880	3	ärger	880	1	!	1210	1	blank2r.bmp	1340	0	0	0
020118	09:27:52	1	7	5.0.10.0	d080_A12_A2_unplB	dA12_valB_080	9	34	300	300	0	0	92	23	1	1	blank2r.bmp	0	1	+	0	8	C4r.bmp	500	1	blank2r.bmp	800	1	DHJF	800	1	blank2r.bmp	880	2	geizig	880	1	!	1210	1	blank2r.bmp	1340	0	0	0
020118	09:27:52	1	7	5.0.10.0	d080_A12_A2_unplB	dA12_valB_080	9	35	300	300	0	0	47	23	1	1	blank2r.bmp	0	1	+	0	6	C2r.bmp	500	1	blank2r.bmp	800	1	DHJF	800	1	blank2r.bmp	880	6	traurig	880	1	!	1210	1	blank2r.bmp	1340	0	0	0
020118	09:27:52	1	7	5.0.10.0	d080_A12_A1_pleasB	dA12_valB_080	9	36	300	300	0	0	15	18	1	1	blank2r.bmp	0	1	+	0	5	C1r.bmp	500	1	blank2r.bmp	800	1	NPLW	800	1	blank2r.bmp	880	2	mutig	880	1	!	1210	1	blank2r.bmp	1340	0	0	0
020118	09:27:52	1	7	5.0.10.0	d080_A12_A2_pleasB	dA12_valB_080	9	37	300	300	0	0	632	18	0	1	blank2r.bmp	0	1	+	0	4	B4r.bmp	500	1	blank2r.bmp	800	1	DHJF	800	1	blank2r.bmp	880	2	mutig	880	1	!	1210	1	blank2r.bmp	1340	0	0	0
020118	09:27:52	1	7	5.0.10.0	d080_A12_A2_unplB	dA12_valB_080	9	38	300	300	0	0	220	23	1	1	blank2r.bmp	0	1	+	0	2	B2r.bmp	500	1	blank2r.bmp	800	1	DHJF	800	1	blank2r.bmp	880	2	geizig	880	1	!	1210	1	blank2r.bmp	1340	0	0	0
020118	09:27:52	1	7	5.0.10.0	d080_A12_A2_unplB	dA12_valB_080	9	39	300	300	0	0	64	23	1	1	blank2r.bmp	0	1	+	0	3	B3r.bmp	500	1	blank2r.bmp	800	1	DHJF	800	1	blank2r.bmp	880	3	ärger	880	1	!	1210	1	blank2r.bmp	1340	0	0	0
020118	09:27:52	1	7	5.0.10.0	d080_A12_A1_pleasB	dA12_valB_080	9	40	300	300	0	0	1502	18	1	1	blank2r.bmp	0	1	+	0	1	B1r.bmp	500	1	blank2r.bmp	800	1	NPLW	800	1	blank2r.bmp	880	3	kuss	880	1	!	1210	1	blank2r.bmp	1340	0	0	0
020118	09:27:52	1	7	5.0.10.0	d080_A12_A1_unplB	dA12_valB_080	9	41	300	300	0	0	165	18	1	1	blank2r.bmp	0	1	+	0	6	C2r.bmp	500	1	blank2r.bmp	800	1	NPLW	800	1	blank2r.bmp	880	1	grausam	880	1	!	1210	1	blank2r.bmp	1340	0	0	0
020118	09:27:52	1	7	5.0.10.0	d080_A12_A1_pleasB	dA12_valB_080	9	42	300	300	0	0	260	18	1	1	blank2r.bmp	0	1	+	0	5	C1r.bmp	500	1	blank2r.bmp	800	1	NPLW	800	1	blank2r.bmp	880	5	begabt	880	1	!	1210	1	blank2r.bmp	1340	0	0	0
020118	09:27:52	1	7	5.0.10.0	d080_A12_A1_pleasB	dA12_valB_080	9	43	300	300	0	0	1583	18	1	1	blank2r.bmp	0	1	+	0	4	B4r.bmp	500	1	blank2r.bmp	800	1	NPLW	800	1	blank2r.bmp	880	4	treu	880	1	!	1210	1	blank2r.bmp	1340	0	0	0
020118	09:27:52	1	7	5.0.10.0	d080_A12_A1_unplB	dA12_valB_080	9	44	300	300	0	0	150	18	1	1	blank2r.bmp	0	1	+	0	8	C4r.bmp	500	1	blank2r.bmp	800	1	NPLW	800	1	blank2r.bmp	880	6	traurig	880	1	!	1210	1	blank2r.bmp	1340	0	0	0
020118	09:27:52	1	7	5.0.10.0	d080_A12_A1_pleasB	dA12_valB_080	9	45	300	300	0	0	114	18	1	1	blank2r.bmp	0	1	+	0	1	B1r.bmp	500	1	blank2r.bmp	800	1	NPLW	800	1	blank2r.bmp	880	1	gut	880	1	!	1210	1	blank2r.bmp	1340	0	0	0
020118	09:27:52	1	7	5.0.10.0	d080_A12_A2_unplB	dA12_valB_080	9	46	300	300	0	0	47	23	1	1	blank2r.bmp	0	1	+	0	2	B2r.bmp	500	1	blank2r.bmp	800	1	DHJF	800	1	blank2r.bmp	880	4	böse	880	1	!	1210	1	blank2r.bmp	1340	0	0	0
020118	09:27:52	1	7	5.0.10.0	d080_A12_A2_pleasB	dA12_valB_080	9	47	300	300	0	0	139	23	1	1	blank2r.bmp	0	1	+	0	3	B3r.bmp	500	1	blank2r.bmp	800	1	DHJF	800	1	blank2r.bmp	880	6	kreativ	880	1	!	1210	1	blank2r.bmp	1340	0	0	0
020118	09:27:52	1	7	5.0.10.0	d080_A12_A1_unplB	dA12_valB_080	9	48	300	300	0	0	1633	18	1	1	blank2r.bmp	0	1	+	0	7	C3r.bmp	500	1	blank2r.bmp	800	1	NPLW	800	1	blank2r.bmp	880	5	kummer	880	1	!	1210	1	blank2r.bmp	1340	0	0	0
020118	09:27:52	1	7	5.0.10.0	endtrial	endblock	10	1	300	300	0	0	381021	21	0	0	0	0	0	0	0	0	0	0	0	0	0	0	0	0	0	0	0	0	0	0	0	0	0	0	0	0	0	0	0
