date	time	group	subject	build	trialcode	blockcode	blocknum	trialnum	pretrialpause	posttrialpause	trialduration	trialtimeout	latency	response	correct	stimulusnumber1	stimulusitem1	stimulusonset1	stimulusnumber2	stimulusitem2	stimulusonset2	stimulusnumber3	stimulusitem3	stimulusonset3	stimulusnumber4	stimulusitem4	stimulusonset4	stimulusnumber5	stimulusitem5	stimulusonset5	stimulusnumber6	stimulusitem6	stimulusonset6	stimulusnumber7	stimulusitem7	stimulusonset7	stimulusnumber8	stimulusitem8	stimulusonset8	stimulusnumber9	stimulusitem9	stimulusonset9	stimulusnumber10	stimulusitem10	stimulusonset10
020518	12:52:33	1	20	5.0.10.0	dL_B21_B2_unplA	dB21_valA_pract1	1	1	300	300	0	0	29927	23	0	1	blank2r.bmp	0	1	+	0	8	C4r.bmp	500	1	blank2r.bmp	700	1	GKQX	700	7	C3r.bmp	830	1	blank2r.bmp	870	6	leiden	870	1	!	1200	1	blank2r.bmp	1330
020518	12:52:33	1	20	5.0.10.0	dL_B21_B1_unplA	dB21_valA_pract1	1	2	300	300	0	0	851	23	1	1	blank2r.bmp	0	1	+	0	7	C3r.bmp	500	1	blank2r.bmp	700	1	BMVZ	700	4	B4r.bmp	830	1	blank2r.bmp	870	5	schlecht	870	1	!	1200	1	blank2r.bmp	1330
020518	12:52:33	1	20	5.0.10.0	dL_B21_B2_unplA	dB21_valA_pract1	1	3	300	300	0	0	208	18	1	1	blank2r.bmp	0	1	+	0	4	B4r.bmp	500	1	blank2r.bmp	700	1	GKQX	700	6	C2r.bmp	830	1	blank2r.bmp	870	4	elend	870	1	!	1200	1	blank2r.bmp	1330
020518	12:52:33	1	20	5.0.10.0	dL_B21_B2_pleasA	dB21_valA_pract1	1	4	300	300	0	0	171	18	1	1	blank2r.bmp	0	1	+	0	6	C2r.bmp	500	1	blank2r.bmp	700	1	GKQX	700	1	B1r.bmp	830	1	blank2r.bmp	870	2	schön	870	1	!	1200	1	blank2r.bmp	1330
020518	12:52:33	1	20	5.0.10.0	dL_B21_B1_unplA	dB21_valA_pract1	1	5	300	300	0	0	129	23	1	1	blank2r.bmp	0	1	+	0	2	B2r.bmp	500	1	blank2r.bmp	700	1	BMVZ	700	3	B3r.bmp	830	1	blank2r.bmp	870	1	unfair	870	1	!	1200	1	blank2r.bmp	1330
020518	12:52:33	1	20	5.0.10.0	dL_B21_B2_pleasA	dB21_valA_pract1	1	6	300	300	0	0	103	18	1	1	blank2r.bmp	0	1	+	0	3	B3r.bmp	500	1	blank2r.bmp	700	1	GKQX	700	5	C1r.bmp	830	1	blank2r.bmp	870	3	freund	870	1	!	1200	1	blank2r.bmp	1330
020518	12:52:33	1	20	5.0.10.0	dL_B21_B1_pleasA	dB21_valA_pract1	1	7	300	300	0	0	125	23	1	1	blank2r.bmp	0	1	+	0	5	C1r.bmp	500	1	blank2r.bmp	700	1	BMVZ	700	8	C4r.bmp	830	1	blank2r.bmp	870	5	friedlich	870	1	!	1200	1	blank2r.bmp	1330
020518	12:52:33	1	20	5.0.10.0	dL_B21_B2_unplA	dB21_valA_pract1	1	8	300	300	0	0	37	18	1	1	blank2r.bmp	0	1	+	0	1	B1r.bmp	500	1	blank2r.bmp	700	1	GKQX	700	2	B2r.bmp	830	1	blank2r.bmp	870	2	neidisch	870	1	!	1200	1	blank2r.bmp	1330
020518	12:52:33	1	20	5.0.10.0	dL_B21_B1_pleasA	dB21_valA_pract1	1	9	300	300	0	0	137	23	1	1	blank2r.bmp	0	1	+	0	8	C4r.bmp	500	1	blank2r.bmp	700	1	BMVZ	700	6	C2r.bmp	830	1	blank2r.bmp	870	1	toll	870	1	!	1200	1	blank2r.bmp	1330
020518	12:52:33	1	20	5.0.10.0	dL_B21_B2_pleasA	dB21_valA_pract1	1	10	300	300	0	0	257	18	1	1	blank2r.bmp	0	1	+	0	2	B2r.bmp	500	1	blank2r.bmp	700	1	GKQX	700	8	C4r.bmp	830	1	blank2r.bmp	870	4	heiter	870	1	!	1200	1	blank2r.bmp	1330
020518	12:52:33	1	20	5.0.10.0	dL_B21_B1_pleasA	dB21_valA_pract1	1	11	300	300	0	0	207	23	1	1	blank2r.bmp	0	1	+	0	3	B3r.bmp	500	1	blank2r.bmp	700	1	BMVZ	700	5	C1r.bmp	830	1	blank2r.bmp	870	6	froh	870	1	!	1200	1	blank2r.bmp	1330
020518	12:52:33	1	20	5.0.10.0	dL_B21_B1_unplA	dB21_valA_pract1	1	12	300	300	0	0	104	23	1	1	blank2r.bmp	0	1	+	0	6	C2r.bmp	500	1	blank2r.bmp	700	1	BMVZ	700	2	B2r.bmp	830	1	blank2r.bmp	870	3	töten	870	1	!	1200	1	blank2r.bmp	1330
020518	12:52:33	1	20	5.0.10.0	dM_B21_B2_unplA	dB21_valA_pract2	2	1	300	300	0	0	68	18	1	1	blank2r.bmp	0	1	+	0	7	C3r.bmp	500	1	blank2r.bmp	730	1	GKQX	730	3	B3r.bmp	830	1	blank2r.bmp	870	4	elend	870	1	!	1200	1	blank2r.bmp	1330
020518	12:52:33	1	20	5.0.10.0	dM_B21_B1_unplA	dB21_valA_pract2	2	2	300	300	0	0	348	23	1	1	blank2r.bmp	0	1	+	0	5	C1r.bmp	500	1	blank2r.bmp	730	1	BMVZ	730	1	B1r.bmp	830	1	blank2r.bmp	870	2	neidisch	870	1	!	1200	1	blank2r.bmp	1330
020518	12:52:33	1	20	5.0.10.0	dM_B21_B2_pleasA	dB21_valA_pract2	2	3	300	300	0	0	72	18	1	1	blank2r.bmp	0	1	+	0	4	B4r.bmp	500	1	blank2r.bmp	730	1	GKQX	730	7	C3r.bmp	830	1	blank2r.bmp	870	6	froh	870	1	!	1200	1	blank2r.bmp	1330
020518	12:52:33	1	20	5.0.10.0	dM_B21_B1_pleasA	dB21_valA_pract2	2	4	300	300	0	0	67	23	1	1	blank2r.bmp	0	1	+	0	1	B1r.bmp	500	1	blank2r.bmp	730	1	BMVZ	730	4	B4r.bmp	830	1	blank2r.bmp	870	1	toll	870	1	!	1200	1	blank2r.bmp	1330
020518	12:52:33	1	20	5.0.10.0	dM_B21_B1_unplA	dB21_valA_pract2	2	5	300	300	0	0	194	18	0	1	blank2r.bmp	0	1	+	0	4	B4r.bmp	500	1	blank2r.bmp	730	1	BMVZ	730	1	B1r.bmp	830	1	blank2r.bmp	870	6	leiden	870	1	!	1200	1	blank2r.bmp	1330
020518	12:52:33	1	20	5.0.10.0	dM_B21_B2_unplA	dB21_valA_pract2	2	6	300	300	0	0	277	18	1	1	blank2r.bmp	0	1	+	0	2	B2r.bmp	500	1	blank2r.bmp	730	1	GKQX	730	3	B3r.bmp	830	1	blank2r.bmp	870	5	schlecht	870	1	!	1200	1	blank2r.bmp	1330
020518	12:52:33	1	20	5.0.10.0	dM_B21_B1_unplA	dB21_valA_pract2	2	7	300	300	0	0	103	23	1	1	blank2r.bmp	0	1	+	0	6	C2r.bmp	500	1	blank2r.bmp	730	1	BMVZ	730	2	B2r.bmp	830	1	blank2r.bmp	870	3	töten	870	1	!	1200	1	blank2r.bmp	1330
020518	12:52:33	1	20	5.0.10.0	dM_B21_B2_unplA	dB21_valA_pract2	2	8	300	300	0	0	327	18	1	1	blank2r.bmp	0	1	+	0	1	B1r.bmp	500	1	blank2r.bmp	730	1	GKQX	730	5	C1r.bmp	830	1	blank2r.bmp	870	1	unfair	870	1	!	1200	1	blank2r.bmp	1330
020518	12:52:33	1	20	5.0.10.0	dM_B21_B2_pleasA	dB21_valA_pract2	2	9	300	300	0	0	531	18	1	1	blank2r.bmp	0	1	+	0	5	C1r.bmp	500	1	blank2r.bmp	730	1	GKQX	730	7	C3r.bmp	830	1	blank2r.bmp	870	4	heiter	870	1	!	1200	1	blank2r.bmp	1330
020518	12:52:33	1	20	5.0.10.0	dM_B21_B1_pleasA	dB21_valA_pract2	2	10	300	300	0	0	27	23	1	1	blank2r.bmp	0	1	+	0	7	C3r.bmp	500	1	blank2r.bmp	730	1	BMVZ	730	8	C4r.bmp	830	1	blank2r.bmp	870	2	schön	870	1	!	1200	1	blank2r.bmp	1330
020518	12:52:33	1	20	5.0.10.0	dM_B21_B2_pleasA	dB21_valA_pract2	2	11	300	300	0	0	2424	18	1	1	blank2r.bmp	0	1	+	0	8	C4r.bmp	500	1	blank2r.bmp	730	1	GKQX	730	6	C2r.bmp	830	1	blank2r.bmp	870	3	freund	870	1	!	1200	1	blank2r.bmp	1330
020518	12:52:33	1	20	5.0.10.0	dM_B21_B1_pleasA	dB21_valA_pract2	2	12	300	300	0	0	55	23	1	1	blank2r.bmp	0	1	+	0	3	B3r.bmp	500	1	blank2r.bmp	730	1	BMVZ	730	4	B4r.bmp	830	1	blank2r.bmp	870	5	friedlich	870	1	!	1200	1	blank2r.bmp	1330
020518	12:52:33	1	20	5.0.10.0	d070_B21_B1_pleasA	dB21_valA_070	3	1	300	300	0	0	1324	23	1	1	blank2r.bmp	0	1	+	0	4	B4r.bmp	500	1	blank2r.bmp	800	1	BMVZ	800	1	blank2r.bmp	870	3	freund	870	1	!	1200	1	blank2r.bmp	1330	0	0	0
020518	12:52:33	1	20	5.0.10.0	d070_B21_B2_pleasA	dB21_valA_070	3	2	300	300	0	0	255	18	1	1	blank2r.bmp	0	1	+	0	7	C3r.bmp	500	1	blank2r.bmp	800	1	GKQX	800	1	blank2r.bmp	870	6	froh	870	1	!	1200	1	blank2r.bmp	1330	0	0	0
020518	12:52:33	1	20	5.0.10.0	d070_B21_B2_pleasA	dB21_valA_070	3	3	300	300	0	0	463	18	1	1	blank2r.bmp	0	1	+	0	3	B3r.bmp	500	1	blank2r.bmp	800	1	GKQX	800	1	blank2r.bmp	870	5	friedlich	870	1	!	1200	1	blank2r.bmp	1330	0	0	0
020518	12:52:33	1	20	5.0.10.0	d070_B21_B2_unplA	dB21_valA_070	3	4	300	300	0	0	263	18	1	1	blank2r.bmp	0	1	+	0	2	B2r.bmp	500	1	blank2r.bmp	800	1	GKQX	800	1	blank2r.bmp	870	6	leiden	870	1	!	1200	1	blank2r.bmp	1330	0	0	0
020518	12:52:33	1	20	5.0.10.0	d070_B21_B2_unplA	dB21_valA_070	3	5	300	300	0	0	778	18	1	1	blank2r.bmp	0	1	+	0	6	C2r.bmp	500	1	blank2r.bmp	800	1	GKQX	800	1	blank2r.bmp	870	1	unfair	870	1	!	1200	1	blank2r.bmp	1330	0	0	0
020518	12:52:33	1	20	5.0.10.0	d070_B21_B1_pleasA	dB21_valA_070	3	6	300	300	0	0	127	23	1	1	blank2r.bmp	0	1	+	0	5	C1r.bmp	500	1	blank2r.bmp	800	1	BMVZ	800	1	blank2r.bmp	870	1	toll	870	1	!	1200	1	blank2r.bmp	1330	0	0	0
020518	12:52:33	1	20	5.0.10.0	d070_B21_B1_pleasA	dB21_valA_070	3	7	300	300	0	0	363	23	1	1	blank2r.bmp	0	1	+	0	1	B1r.bmp	500	1	blank2r.bmp	800	1	BMVZ	800	1	blank2r.bmp	870	4	heiter	870	1	!	1200	1	blank2r.bmp	1330	0	0	0
020518	12:52:33	1	20	5.0.10.0	d070_B21_B2_unplA	dB21_valA_070	3	8	300	300	0	0	178	18	1	1	blank2r.bmp	0	1	+	0	8	C4r.bmp	500	1	blank2r.bmp	800	1	GKQX	800	1	blank2r.bmp	870	5	schlecht	870	1	!	1200	1	blank2r.bmp	1330	0	0	0
020518	12:52:33	1	20	5.0.10.0	d070_B21_B1_unplA	dB21_valA_070	3	9	300	300	0	0	314	23	1	1	blank2r.bmp	0	1	+	0	6	C2r.bmp	500	1	blank2r.bmp	800	1	BMVZ	800	1	blank2r.bmp	870	2	neidisch	870	1	!	1200	1	blank2r.bmp	1330	0	0	0
020518	12:52:33	1	20	5.0.10.0	d070_B21_B1_pleasA	dB21_valA_070	3	10	300	300	0	0	861	18	0	1	blank2r.bmp	0	1	+	0	7	C3r.bmp	500	1	blank2r.bmp	800	1	BMVZ	800	1	blank2r.bmp	870	2	schön	870	1	!	1200	1	blank2r.bmp	1330	0	0	0
020518	12:52:33	1	20	5.0.10.0	d070_B21_B2_unplA	dB21_valA_070	3	11	300	300	0	0	398	18	1	1	blank2r.bmp	0	1	+	0	2	B2r.bmp	500	1	blank2r.bmp	800	1	GKQX	800	1	blank2r.bmp	870	4	elend	870	1	!	1200	1	blank2r.bmp	1330	0	0	0
020518	12:52:33	1	20	5.0.10.0	d070_B21_B2_unplA	dB21_valA_070	3	12	300	300	0	0	261	18	1	1	blank2r.bmp	0	1	+	0	5	C1r.bmp	500	1	blank2r.bmp	800	1	GKQX	800	1	blank2r.bmp	870	3	töten	870	1	!	1200	1	blank2r.bmp	1330	0	0	0
020518	12:52:33	1	20	5.0.10.0	d070_B21_B1_pleasA	dB21_valA_070	3	13	300	300	0	0	366	23	1	1	blank2r.bmp	0	1	+	0	1	B1r.bmp	500	1	blank2r.bmp	800	1	BMVZ	800	1	blank2r.bmp	870	5	friedlich	870	1	!	1200	1	blank2r.bmp	1330	0	0	0
020518	12:52:33	1	20	5.0.10.0	d070_B21_B2_pleasA	dB21_valA_070	3	14	300	300	0	0	270	18	1	1	blank2r.bmp	0	1	+	0	8	C4r.bmp	500	1	blank2r.bmp	800	1	GKQX	800	1	blank2r.bmp	870	6	froh	870	1	!	1200	1	blank2r.bmp	1330	0	0	0
020518	12:52:33	1	20	5.0.10.0	d070_B21_B1_unplA	dB21_valA_070	3	15	300	300	0	0	405	23	1	1	blank2r.bmp	0	1	+	0	3	B3r.bmp	500	1	blank2r.bmp	800	1	BMVZ	800	1	blank2r.bmp	870	1	unfair	870	1	!	1200	1	blank2r.bmp	1330	0	0	0
020518	12:52:33	1	20	5.0.10.0	d070_B21_B1_pleasA	dB21_valA_070	3	16	300	300	0	0	5765	23	1	1	blank2r.bmp	0	1	+	0	4	B4r.bmp	500	1	blank2r.bmp	800	1	BMVZ	800	1	blank2r.bmp	870	1	toll	870	1	!	1200	1	blank2r.bmp	1330	0	0	0
020518	12:52:33	1	20	5.0.10.0	d070_B21_B2_pleasA	dB21_valA_070	3	17	300	300	0	0	124	18	1	1	blank2r.bmp	0	1	+	0	3	B3r.bmp	500	1	blank2r.bmp	800	1	GKQX	800	1	blank2r.bmp	870	2	schön	870	1	!	1200	1	blank2r.bmp	1330	0	0	0
020518	12:52:33	1	20	5.0.10.0	d070_B21_B1_pleasA	dB21_valA_070	3	18	300	300	0	0	64	23	1	1	blank2r.bmp	0	1	+	0	4	B4r.bmp	500	1	blank2r.bmp	800	1	BMVZ	800	1	blank2r.bmp	870	3	freund	870	1	!	1200	1	blank2r.bmp	1330	0	0	0
020518	12:52:33	1	20	5.0.10.0	d070_B21_B2_pleasA	dB21_valA_070	3	19	300	300	0	0	92	18	1	1	blank2r.bmp	0	1	+	0	7	C3r.bmp	500	1	blank2r.bmp	800	1	GKQX	800	1	blank2r.bmp	870	4	heiter	870	1	!	1200	1	blank2r.bmp	1330	0	0	0
020518	12:52:33	1	20	5.0.10.0	d070_B21_B1_unplA	dB21_valA_070	3	20	300	300	0	0	274	23	1	1	blank2r.bmp	0	1	+	0	6	C2r.bmp	500	1	blank2r.bmp	800	1	BMVZ	800	1	blank2r.bmp	870	6	leiden	870	1	!	1200	1	blank2r.bmp	1330	0	0	0
020518	12:52:33	1	20	5.0.10.0	d070_B21_B2_pleasA	dB21_valA_070	3	21	300	300	0	0	477	18	1	1	blank2r.bmp	0	1	+	0	2	B2r.bmp	500	1	blank2r.bmp	800	1	GKQX	800	1	blank2r.bmp	870	3	freund	870	1	!	1200	1	blank2r.bmp	1330	0	0	0
020518	12:52:33	1	20	5.0.10.0	d070_B21_B1_unplA	dB21_valA_070	3	22	300	300	0	0	194	23	1	1	blank2r.bmp	0	1	+	0	5	C1r.bmp	500	1	blank2r.bmp	800	1	BMVZ	800	1	blank2r.bmp	870	4	elend	870	1	!	1200	1	blank2r.bmp	1330	0	0	0
020518	12:52:33	1	20	5.0.10.0	d070_B21_B1_unplA	dB21_valA_070	3	23	300	300	0	0	978	18	0	1	blank2r.bmp	0	1	+	0	1	B1r.bmp	500	1	blank2r.bmp	800	1	BMVZ	800	1	blank2r.bmp	870	5	schlecht	870	1	!	1200	1	blank2r.bmp	1330	0	0	0
020518	12:52:33	1	20	5.0.10.0	d070_B21_B2_unplA	dB21_valA_070	3	24	300	300	0	0	933	18	1	1	blank2r.bmp	0	1	+	0	8	C4r.bmp	500	1	blank2r.bmp	800	1	GKQX	800	1	blank2r.bmp	870	2	neidisch	870	1	!	1200	1	blank2r.bmp	1330	0	0	0
020518	12:52:33	1	20	5.0.10.0	d070_B21_B1_unplA	dB21_valA_070	3	25	300	300	0	0	905	23	1	1	blank2r.bmp	0	1	+	0	6	C2r.bmp	500	1	blank2r.bmp	800	1	BMVZ	800	1	blank2r.bmp	870	3	töten	870	1	!	1200	1	blank2r.bmp	1330	0	0	0
020518	12:52:33	1	20	5.0.10.0	d070_B21_B2_unplA	dB21_valA_070	3	26	300	300	0	0	67	18	1	1	blank2r.bmp	0	1	+	0	4	B4r.bmp	500	1	blank2r.bmp	800	1	GKQX	800	1	blank2r.bmp	870	1	unfair	870	1	!	1200	1	blank2r.bmp	1330	0	0	0
020518	12:52:33	1	20	5.0.10.0	d070_B21_B1_pleasA	dB21_valA_070	3	27	300	300	0	0	162	23	1	1	blank2r.bmp	0	1	+	0	3	B3r.bmp	500	1	blank2r.bmp	800	1	BMVZ	800	1	blank2r.bmp	870	2	schön	870	1	!	1200	1	blank2r.bmp	1330	0	0	0
020518	12:52:33	1	20	5.0.10.0	d070_B21_B2_pleasA	dB21_valA_070	3	28	300	300	0	0	237	18	1	1	blank2r.bmp	0	1	+	0	2	B2r.bmp	500	1	blank2r.bmp	800	1	GKQX	800	1	blank2r.bmp	870	6	froh	870	1	!	1200	1	blank2r.bmp	1330	0	0	0
020518	12:52:33	1	20	5.0.10.0	d070_B21_B1_pleasA	dB21_valA_070	3	29	300	300	0	0	1133	23	1	1	blank2r.bmp	0	1	+	0	8	C4r.bmp	500	1	blank2r.bmp	800	1	BMVZ	800	1	blank2r.bmp	870	5	friedlich	870	1	!	1200	1	blank2r.bmp	1330	0	0	0
020518	12:52:33	1	20	5.0.10.0	d070_B21_B2_unplA	dB21_valA_070	3	30	300	300	0	0	483	18	1	1	blank2r.bmp	0	1	+	0	1	B1r.bmp	500	1	blank2r.bmp	800	1	GKQX	800	1	blank2r.bmp	870	3	töten	870	1	!	1200	1	blank2r.bmp	1330	0	0	0
020518	12:52:33	1	20	5.0.10.0	d070_B21_B1_pleasA	dB21_valA_070	3	31	300	300	0	0	251	18	0	1	blank2r.bmp	0	1	+	0	5	C1r.bmp	500	1	blank2r.bmp	800	1	BMVZ	800	1	blank2r.bmp	870	4	heiter	870	1	!	1200	1	blank2r.bmp	1330	0	0	0
020518	12:52:33	1	20	5.0.10.0	d070_B21_B2_unplA	dB21_valA_070	3	32	300	300	0	0	247	18	1	1	blank2r.bmp	0	1	+	0	7	C3r.bmp	500	1	blank2r.bmp	800	1	GKQX	800	1	blank2r.bmp	870	2	neidisch	870	1	!	1200	1	blank2r.bmp	1330	0	0	0
020518	12:52:33	1	20	5.0.10.0	d070_B21_B1_pleasA	dB21_valA_070	3	33	300	300	0	0	23	23	1	1	blank2r.bmp	0	1	+	0	3	B3r.bmp	500	1	blank2r.bmp	800	1	BMVZ	800	1	blank2r.bmp	870	1	toll	870	1	!	1200	1	blank2r.bmp	1330	0	0	0
020518	12:52:33	1	20	5.0.10.0	d070_B21_B2_pleasA	dB21_valA_070	3	34	300	300	0	0	180	18	1	1	blank2r.bmp	0	1	+	0	1	B1r.bmp	500	1	blank2r.bmp	800	1	GKQX	800	1	blank2r.bmp	870	5	friedlich	870	1	!	1200	1	blank2r.bmp	1330	0	0	0
020518	12:52:33	1	20	5.0.10.0	d070_B21_B2_unplA	dB21_valA_070	3	35	300	300	0	0	694	18	1	1	blank2r.bmp	0	1	+	0	5	C1r.bmp	500	1	blank2r.bmp	800	1	GKQX	800	1	blank2r.bmp	870	4	elend	870	1	!	1200	1	blank2r.bmp	1330	0	0	0
020518	12:52:33	1	20	5.0.10.0	d070_B21_B1_unplA	dB21_valA_070	3	36	300	300	0	0	749	23	1	1	blank2r.bmp	0	1	+	0	6	C2r.bmp	500	1	blank2r.bmp	800	1	BMVZ	800	1	blank2r.bmp	870	5	schlecht	870	1	!	1200	1	blank2r.bmp	1330	0	0	0
020518	12:52:33	1	20	5.0.10.0	d070_B21_B2_unplA	dB21_valA_070	3	37	300	300	0	0	111	18	1	1	blank2r.bmp	0	1	+	0	8	C4r.bmp	500	1	blank2r.bmp	800	1	GKQX	800	1	blank2r.bmp	870	6	leiden	870	1	!	1200	1	blank2r.bmp	1330	0	0	0
020518	12:52:33	1	20	5.0.10.0	d070_B21_B1_unplA	dB21_valA_070	3	38	300	300	0	0	1711	18	0	1	blank2r.bmp	0	1	+	0	2	B2r.bmp	500	1	blank2r.bmp	800	1	BMVZ	800	1	blank2r.bmp	870	6	leiden	870	1	!	1200	1	blank2r.bmp	1330	0	0	0
020518	12:52:33	1	20	5.0.10.0	d070_B21_B1_unplA	dB21_valA_070	3	39	300	300	0	0	257	23	1	1	blank2r.bmp	0	1	+	0	4	B4r.bmp	500	1	blank2r.bmp	800	1	BMVZ	800	1	blank2r.bmp	870	3	töten	870	1	!	1200	1	blank2r.bmp	1330	0	0	0
020518	12:52:33	1	20	5.0.10.0	d070_B21_B1_pleasA	dB21_valA_070	3	40	300	300	0	0	671	23	1	1	blank2r.bmp	0	1	+	0	7	C3r.bmp	500	1	blank2r.bmp	800	1	BMVZ	800	1	blank2r.bmp	870	6	froh	870	1	!	1200	1	blank2r.bmp	1330	0	0	0
020518	12:52:33	1	20	5.0.10.0	d070_B21_B2_pleasA	dB21_valA_070	3	41	300	300	0	0	2957	18	1	1	blank2r.bmp	0	1	+	0	5	C1r.bmp	500	1	blank2r.bmp	800	1	GKQX	800	1	blank2r.bmp	870	4	heiter	870	1	!	1200	1	blank2r.bmp	1330	0	0	0
020518	12:52:33	1	20	5.0.10.0	d070_B21_B1_unplA	dB21_valA_070	3	42	300	300	0	0	172	23	1	1	blank2r.bmp	0	1	+	0	8	C4r.bmp	500	1	blank2r.bmp	800	1	BMVZ	800	1	blank2r.bmp	870	1	unfair	870	1	!	1200	1	blank2r.bmp	1330	0	0	0
020518	12:52:33	1	20	5.0.10.0	d070_B21_B1_unplA	dB21_valA_070	3	43	300	300	0	0	61	18	0	1	blank2r.bmp	0	1	+	0	6	C2r.bmp	500	1	blank2r.bmp	800	1	BMVZ	800	1	blank2r.bmp	870	5	schlecht	870	1	!	1200	1	blank2r.bmp	1330	0	0	0
020518	12:52:33	1	20	5.0.10.0	d070_B21_B2_pleasA	dB21_valA_070	3	44	300	300	0	0	2213	18	1	1	blank2r.bmp	0	1	+	0	7	C3r.bmp	500	1	blank2r.bmp	800	1	GKQX	800	1	blank2r.bmp	870	1	toll	870	1	!	1200	1	blank2r.bmp	1330	0	0	0
020518	12:52:33	1	20	5.0.10.0	d070_B21_B1_unplA	dB21_valA_070	3	45	300	300	0	0	86	23	1	1	blank2r.bmp	0	1	+	0	3	B3r.bmp	500	1	blank2r.bmp	800	1	BMVZ	800	1	blank2r.bmp	870	2	neidisch	870	1	!	1200	1	blank2r.bmp	1330	0	0	0
020518	12:52:33	1	20	5.0.10.0	d070_B21_B2_pleasA	dB21_valA_070	3	46	300	300	0	0	28	18	1	1	blank2r.bmp	0	1	+	0	2	B2r.bmp	500	1	blank2r.bmp	800	1	GKQX	800	1	blank2r.bmp	870	2	schön	870	1	!	1200	1	blank2r.bmp	1330	0	0	0
020518	12:52:33	1	20	5.0.10.0	d070_B21_B2_unplA	dB21_valA_070	3	47	300	300	0	0	294	18	1	1	blank2r.bmp	0	1	+	0	4	B4r.bmp	500	1	blank2r.bmp	800	1	GKQX	800	1	blank2r.bmp	870	4	elend	870	1	!	1200	1	blank2r.bmp	1330	0	0	0
020518	12:52:33	1	20	5.0.10.0	d070_B21_B2_pleasA	dB21_valA_070	3	48	300	300	0	0	517	18	1	1	blank2r.bmp	0	1	+	0	1	B1r.bmp	500	1	blank2r.bmp	800	1	GKQX	800	1	blank2r.bmp	870	3	freund	870	1	!	1200	1	blank2r.bmp	1330	0	0	0
020518	12:52:33	1	20	5.0.10.0	d070_B21_B1_pleasA	dB21_valA_070	4	1	300	300	0	0	2162	18	0	1	blank2r.bmp	0	1	+	0	5	C1r.bmp	500	1	blank2r.bmp	800	1	BMVZ	800	1	blank2r.bmp	870	5	friedlich	870	1	!	1200	1	blank2r.bmp	1330	0	0	0
020518	12:52:33	1	20	5.0.10.0	d070_B21_B1_pleasA	dB21_valA_070	4	2	300	300	0	0	1140	18	0	1	blank2r.bmp	0	1	+	0	7	C3r.bmp	500	1	blank2r.bmp	800	1	BMVZ	800	1	blank2r.bmp	870	3	freund	870	1	!	1200	1	blank2r.bmp	1330	0	0	0
020518	12:52:33	1	20	5.0.10.0	d070_B21_B1_pleasA	dB21_valA_070	4	3	300	300	0	0	421	23	1	1	blank2r.bmp	0	1	+	0	6	C2r.bmp	500	1	blank2r.bmp	800	1	BMVZ	800	1	blank2r.bmp	870	4	heiter	870	1	!	1200	1	blank2r.bmp	1330	0	0	0
020518	12:52:33	1	20	5.0.10.0	d070_B21_B1_pleasA	dB21_valA_070	4	4	300	300	0	0	296	23	1	1	blank2r.bmp	0	1	+	0	2	B2r.bmp	500	1	blank2r.bmp	800	1	BMVZ	800	1	blank2r.bmp	870	1	toll	870	1	!	1200	1	blank2r.bmp	1330	0	0	0
020518	12:52:33	1	20	5.0.10.0	d070_B21_B1_unplA	dB21_valA_070	4	5	300	300	0	0	153	18	0	1	blank2r.bmp	0	1	+	0	1	B1r.bmp	500	1	blank2r.bmp	800	1	BMVZ	800	1	blank2r.bmp	870	4	elend	870	1	!	1200	1	blank2r.bmp	1330	0	0	0
020518	12:52:33	1	20	5.0.10.0	d070_B21_B1_unplA	dB21_valA_070	4	6	300	300	0	0	566	18	0	1	blank2r.bmp	0	1	+	0	3	B3r.bmp	500	1	blank2r.bmp	800	1	BMVZ	800	1	blank2r.bmp	870	1	unfair	870	1	!	1200	1	blank2r.bmp	1330	0	0	0
020518	12:52:33	1	20	5.0.10.0	d070_B21_B2_unplA	dB21_valA_070	4	7	300	300	0	0	497	18	1	1	blank2r.bmp	0	1	+	0	4	B4r.bmp	500	1	blank2r.bmp	800	1	GKQX	800	1	blank2r.bmp	870	6	leiden	870	1	!	1200	1	blank2r.bmp	1330	0	0	0
020518	12:52:33	1	20	5.0.10.0	d070_B21_B1_pleasA	dB21_valA_070	4	8	300	300	0	0	114	23	1	1	blank2r.bmp	0	1	+	0	8	C4r.bmp	500	1	blank2r.bmp	800	1	BMVZ	800	1	blank2r.bmp	870	6	froh	870	1	!	1200	1	blank2r.bmp	1330	0	0	0
020518	12:52:33	1	20	5.0.10.0	d070_B21_B1_unplA	dB21_valA_070	4	9	300	300	0	0	150	18	0	1	blank2r.bmp	0	1	+	0	4	B4r.bmp	500	1	blank2r.bmp	800	1	BMVZ	800	1	blank2r.bmp	870	2	neidisch	870	1	!	1200	1	blank2r.bmp	1330	0	0	0
020518	12:52:33	1	20	5.0.10.0	d070_B21_B2_pleasA	dB21_valA_070	4	10	300	300	0	0	103	18	1	1	blank2r.bmp	0	1	+	0	6	C2r.bmp	500	1	blank2r.bmp	800	1	GKQX	800	1	blank2r.bmp	870	2	schön	870	1	!	1200	1	blank2r.bmp	1330	0	0	0
020518	12:52:33	1	20	5.0.10.0	d070_B21_B2_unplA	dB21_valA_070	4	11	300	300	0	0	53	18	1	1	blank2r.bmp	0	1	+	0	5	C1r.bmp	500	1	blank2r.bmp	800	1	GKQX	800	1	blank2r.bmp	870	5	schlecht	870	1	!	1200	1	blank2r.bmp	1330	0	0	0
020518	12:52:33	1	20	5.0.10.0	d070_B21_B2_pleasA	dB21_valA_070	4	12	300	300	0	0	99	18	1	1	blank2r.bmp	0	1	+	0	7	C3r.bmp	500	1	blank2r.bmp	800	1	GKQX	800	1	blank2r.bmp	870	4	heiter	870	1	!	1200	1	blank2r.bmp	1330	0	0	0
020518	12:52:33	1	20	5.0.10.0	d070_B21_B1_pleasA	dB21_valA_070	4	13	300	300	0	0	14	23	1	1	blank2r.bmp	0	1	+	0	3	B3r.bmp	500	1	blank2r.bmp	800	1	BMVZ	800	1	blank2r.bmp	870	1	toll	870	1	!	1200	1	blank2r.bmp	1330	0	0	0
020518	12:52:33	1	20	5.0.10.0	d070_B21_B2_pleasA	dB21_valA_070	4	14	300	300	0	0	171	18	1	1	blank2r.bmp	0	1	+	0	1	B1r.bmp	500	1	blank2r.bmp	800	1	GKQX	800	1	blank2r.bmp	870	5	friedlich	870	1	!	1200	1	blank2r.bmp	1330	0	0	0
020518	12:52:33	1	20	5.0.10.0	d070_B21_B2_unplA	dB21_valA_070	4	15	300	300	0	0	231	18	1	1	blank2r.bmp	0	1	+	0	2	B2r.bmp	500	1	blank2r.bmp	800	1	GKQX	800	1	blank2r.bmp	870	3	töten	870	1	!	1200	1	blank2r.bmp	1330	0	0	0
020518	12:52:33	1	20	5.0.10.0	d070_B21_B1_pleasA	dB21_valA_070	4	16	300	300	0	0	793	23	1	1	blank2r.bmp	0	1	+	0	8	C4r.bmp	500	1	blank2r.bmp	800	1	BMVZ	800	1	blank2r.bmp	870	2	schön	870	1	!	1200	1	blank2r.bmp	1330	0	0	0
020518	12:52:33	1	20	5.0.10.0	d070_B21_B1_pleasA	dB21_valA_070	4	17	300	300	0	0	89	23	1	1	blank2r.bmp	0	1	+	0	3	B3r.bmp	500	1	blank2r.bmp	800	1	BMVZ	800	1	blank2r.bmp	870	6	froh	870	1	!	1200	1	blank2r.bmp	1330	0	0	0
020518	12:52:33	1	20	5.0.10.0	d070_B21_B2_pleasA	dB21_valA_070	4	18	300	300	0	0	1800	18	1	1	blank2r.bmp	0	1	+	0	5	C1r.bmp	500	1	blank2r.bmp	800	1	GKQX	800	1	blank2r.bmp	870	3	freund	870	1	!	1200	1	blank2r.bmp	1330	0	0	0
020518	12:52:33	1	20	5.0.10.0	d070_B21_B2_unplA	dB21_valA_070	4	19	300	300	0	0	345	18	1	1	blank2r.bmp	0	1	+	0	8	C4r.bmp	500	1	blank2r.bmp	800	1	GKQX	800	1	blank2r.bmp	870	4	elend	870	1	!	1200	1	blank2r.bmp	1330	0	0	0
020518	12:52:33	1	20	5.0.10.0	d070_B21_B2_unplA	dB21_valA_070	4	20	300	300	0	0	245	18	1	1	blank2r.bmp	0	1	+	0	7	C3r.bmp	500	1	blank2r.bmp	800	1	GKQX	800	1	blank2r.bmp	870	6	leiden	870	1	!	1200	1	blank2r.bmp	1330	0	0	0
020518	12:52:33	1	20	5.0.10.0	d070_B21_B1_unplA	dB21_valA_070	4	21	300	300	0	0	4	23	1	1	blank2r.bmp	0	1	+	0	1	B1r.bmp	500	1	blank2r.bmp	800	1	BMVZ	800	1	blank2r.bmp	870	2	neidisch	870	1	!	1200	1	blank2r.bmp	1330	0	0	0
020518	12:52:33	1	20	5.0.10.0	d070_B21_B2_pleasA	dB21_valA_070	4	22	300	300	0	0	187	18	1	1	blank2r.bmp	0	1	+	0	2	B2r.bmp	500	1	blank2r.bmp	800	1	GKQX	800	1	blank2r.bmp	870	1	toll	870	1	!	1200	1	blank2r.bmp	1330	0	0	0
020518	12:52:33	1	20	5.0.10.0	d070_B21_B1_unplA	dB21_valA_070	4	23	300	300	0	0	164	18	0	1	blank2r.bmp	0	1	+	0	4	B4r.bmp	500	1	blank2r.bmp	800	1	BMVZ	800	1	blank2r.bmp	870	5	schlecht	870	1	!	1200	1	blank2r.bmp	1330	0	0	0
020518	12:52:33	1	20	5.0.10.0	d070_B21_B2_unplA	dB21_valA_070	4	24	300	300	0	0	100	18	1	1	blank2r.bmp	0	1	+	0	6	C2r.bmp	500	1	blank2r.bmp	800	1	GKQX	800	1	blank2r.bmp	870	1	unfair	870	1	!	1200	1	blank2r.bmp	1330	0	0	0
020518	12:52:33	1	20	5.0.10.0	d070_B21_B2_pleasA	dB21_valA_070	4	25	300	300	0	0	44	18	1	1	blank2r.bmp	0	1	+	0	8	C4r.bmp	500	1	blank2r.bmp	800	1	GKQX	800	1	blank2r.bmp	870	5	friedlich	870	1	!	1200	1	blank2r.bmp	1330	0	0	0
020518	12:52:33	1	20	5.0.10.0	d070_B21_B1_pleasA	dB21_valA_070	4	26	300	300	0	0	107	23	1	1	blank2r.bmp	0	1	+	0	5	C1r.bmp	500	1	blank2r.bmp	800	1	BMVZ	800	1	blank2r.bmp	870	3	freund	870	1	!	1200	1	blank2r.bmp	1330	0	0	0
020518	12:52:33	1	20	5.0.10.0	d070_B21_B2_unplA	dB21_valA_070	4	27	300	300	0	0	375	18	1	1	blank2r.bmp	0	1	+	0	6	C2r.bmp	500	1	blank2r.bmp	800	1	GKQX	800	1	blank2r.bmp	870	3	töten	870	1	!	1200	1	blank2r.bmp	1330	0	0	0
020518	12:52:33	1	20	5.0.10.0	d070_B21_B1_pleasA	dB21_valA_070	4	28	300	300	0	0	33	23	1	1	blank2r.bmp	0	1	+	0	1	B1r.bmp	500	1	blank2r.bmp	800	1	BMVZ	800	1	blank2r.bmp	870	6	froh	870	1	!	1200	1	blank2r.bmp	1330	0	0	0
020518	12:52:33	1	20	5.0.10.0	d070_B21_B2_pleasA	dB21_valA_070	4	29	300	300	0	0	125	18	1	1	blank2r.bmp	0	1	+	0	3	B3r.bmp	500	1	blank2r.bmp	800	1	GKQX	800	1	blank2r.bmp	870	4	heiter	870	1	!	1200	1	blank2r.bmp	1330	0	0	0
020518	12:52:33	1	20	5.0.10.0	d070_B21_B2_unplA	dB21_valA_070	4	30	300	300	0	0	124	18	1	1	blank2r.bmp	0	1	+	0	2	B2r.bmp	500	1	blank2r.bmp	800	1	GKQX	800	1	blank2r.bmp	870	5	schlecht	870	1	!	1200	1	blank2r.bmp	1330	0	0	0
020518	12:52:33	1	20	5.0.10.0	d070_B21_B2_unplA	dB21_valA_070	4	31	300	300	0	0	247	18	1	1	blank2r.bmp	0	1	+	0	4	B4r.bmp	500	1	blank2r.bmp	800	1	GKQX	800	1	blank2r.bmp	870	6	leiden	870	1	!	1200	1	blank2r.bmp	1330	0	0	0
020518	12:52:33	1	20	5.0.10.0	d070_B21_B2_pleasA	dB21_valA_070	4	32	300	300	0	0	59	18	1	1	blank2r.bmp	0	1	+	0	7	C3r.bmp	500	1	blank2r.bmp	800	1	GKQX	800	1	blank2r.bmp	870	2	schön	870	1	!	1200	1	blank2r.bmp	1330	0	0	0
020518	12:52:33	1	20	5.0.10.0	d070_B21_B1_unplA	dB21_valA_070	4	33	300	300	0	0	34	23	1	1	blank2r.bmp	0	1	+	0	5	C1r.bmp	500	1	blank2r.bmp	800	1	BMVZ	800	1	blank2r.bmp	870	1	unfair	870	1	!	1200	1	blank2r.bmp	1330	0	0	0
020518	12:52:33	1	20	5.0.10.0	d070_B21_B1_unplA	dB21_valA_070	4	34	300	300	0	0	354	23	1	1	blank2r.bmp	0	1	+	0	6	C2r.bmp	500	1	blank2r.bmp	800	1	BMVZ	800	1	blank2r.bmp	870	3	töten	870	1	!	1200	1	blank2r.bmp	1330	0	0	0
020518	12:52:33	1	20	5.0.10.0	d070_B21_B1_unplA	dB21_valA_070	4	35	300	300	0	0	76	18	0	1	blank2r.bmp	0	1	+	0	2	B2r.bmp	500	1	blank2r.bmp	800	1	BMVZ	800	1	blank2r.bmp	870	2	neidisch	870	1	!	1200	1	blank2r.bmp	1330	0	0	0
020518	12:52:33	1	20	5.0.10.0	d070_B21_B2_pleasA	dB21_valA_070	4	36	300	300	0	0	272	18	1	1	blank2r.bmp	0	1	+	0	3	B3r.bmp	500	1	blank2r.bmp	800	1	GKQX	800	1	blank2r.bmp	870	2	schön	870	1	!	1200	1	blank2r.bmp	1330	0	0	0
020518	12:52:33	1	20	5.0.10.0	d070_B21_B2_unplA	dB21_valA_070	4	37	300	300	0	0	148	18	1	1	blank2r.bmp	0	1	+	0	1	B1r.bmp	500	1	blank2r.bmp	800	1	GKQX	800	1	blank2r.bmp	870	4	elend	870	1	!	1200	1	blank2r.bmp	1330	0	0	0
020518	12:52:33	1	20	5.0.10.0	d070_B21_B1_pleasA	dB21_valA_070	4	38	300	300	0	0	1116	23	1	1	blank2r.bmp	0	1	+	0	7	C3r.bmp	500	1	blank2r.bmp	800	1	BMVZ	800	1	blank2r.bmp	870	5	friedlich	870	1	!	1200	1	blank2r.bmp	1330	0	0	0
020518	12:52:33	1	20	5.0.10.0	d070_B21_B1_unplA	dB21_valA_070	4	39	300	300	0	0	633	18	0	1	blank2r.bmp	0	1	+	0	8	C4r.bmp	500	1	blank2r.bmp	800	1	BMVZ	800	1	blank2r.bmp	870	5	schlecht	870	1	!	1200	1	blank2r.bmp	1330	0	0	0
020518	12:52:33	1	20	5.0.10.0	d070_B21_B2_pleasA	dB21_valA_070	4	40	300	300	0	0	70	18	1	1	blank2r.bmp	0	1	+	0	4	B4r.bmp	500	1	blank2r.bmp	800	1	GKQX	800	1	blank2r.bmp	870	3	freund	870	1	!	1200	1	blank2r.bmp	1330	0	0	0
020518	12:52:33	1	20	5.0.10.0	d070_B21_B1_unplA	dB21_valA_070	4	41	300	300	0	0	1401	23	1	1	blank2r.bmp	0	1	+	0	4	B4r.bmp	500	1	blank2r.bmp	800	1	BMVZ	800	1	blank2r.bmp	870	2	neidisch	870	1	!	1200	1	blank2r.bmp	1330	0	0	0
020518	12:52:33	1	20	5.0.10.0	d070_B21_B2_pleasA	dB21_valA_070	4	42	300	300	0	0	30	18	1	1	blank2r.bmp	0	1	+	0	7	C3r.bmp	500	1	blank2r.bmp	800	1	GKQX	800	1	blank2r.bmp	870	6	froh	870	1	!	1200	1	blank2r.bmp	1330	0	0	0
020518	12:52:33	1	20	5.0.10.0	d070_B21_B2_unplA	dB21_valA_070	4	43	300	300	0	0	34	18	1	1	blank2r.bmp	0	1	+	0	8	C4r.bmp	500	1	blank2r.bmp	800	1	GKQX	800	1	blank2r.bmp	870	3	töten	870	1	!	1200	1	blank2r.bmp	1330	0	0	0
020518	12:52:33	1	20	5.0.10.0	d070_B21_B2_unplA	dB21_valA_070	4	44	300	300	0	0	39	18	1	1	blank2r.bmp	0	1	+	0	5	C1r.bmp	500	1	blank2r.bmp	800	1	GKQX	800	1	blank2r.bmp	870	6	leiden	870	1	!	1200	1	blank2r.bmp	1330	0	0	0
020518	12:52:33	1	20	5.0.10.0	d070_B21_B1_unplA	dB21_valA_070	4	45	300	300	0	0	128	23	1	1	blank2r.bmp	0	1	+	0	6	C2r.bmp	500	1	blank2r.bmp	800	1	BMVZ	800	1	blank2r.bmp	870	1	unfair	870	1	!	1200	1	blank2r.bmp	1330	0	0	0
020518	12:52:33	1	20	5.0.10.0	d070_B21_B1_pleasA	dB21_valA_070	4	46	300	300	0	0	142	23	1	1	blank2r.bmp	0	1	+	0	1	B1r.bmp	500	1	blank2r.bmp	800	1	BMVZ	800	1	blank2r.bmp	870	1	toll	870	1	!	1200	1	blank2r.bmp	1330	0	0	0
020518	12:52:33	1	20	5.0.10.0	d070_B21_B2_pleasA	dB21_valA_070	4	47	300	300	0	0	124	18	1	1	blank2r.bmp	0	1	+	0	2	B2r.bmp	500	1	blank2r.bmp	800	1	GKQX	800	1	blank2r.bmp	870	4	heiter	870	1	!	1200	1	blank2r.bmp	1330	0	0	0
020518	12:52:33	1	20	5.0.10.0	d070_B21_B1_unplA	dB21_valA_070	4	48	300	300	0	0	302	18	0	1	blank2r.bmp	0	1	+	0	3	B3r.bmp	500	1	blank2r.bmp	800	1	BMVZ	800	1	blank2r.bmp	870	4	elend	870	1	!	1200	1	blank2r.bmp	1330	0	0	0
020518	12:52:33	1	20	5.0.10.0	dL_A21_A2_pleasB	dA21_valB_pract1	6	1	300	300	0	0	581	23	0	1	blank2r.bmp	0	1	+	0	2	B2r.bmp	500	1	blank2r.bmp	700	1	DHJF	700	4	B4r.bmp	830	1	blank2r.bmp	870	5	begabt	870	1	!	1200	1	blank2r.bmp	1330
020518	12:52:33	1	20	5.0.10.0	dL_A21_A1_pleasB	dA21_valB_pract1	6	2	300	300	0	0	349	23	1	1	blank2r.bmp	0	1	+	0	7	C3r.bmp	500	1	blank2r.bmp	700	1	NPLW	700	8	C4r.bmp	830	1	blank2r.bmp	870	2	mutig	870	1	!	1200	1	blank2r.bmp	1330
020518	12:52:33	1	20	5.0.10.0	dL_A21_A1_unplB	dA21_valB_pract1	6	3	300	300	0	0	78	23	1	1	blank2r.bmp	0	1	+	0	6	C2r.bmp	500	1	blank2r.bmp	700	1	NPLW	700	3	B3r.bmp	830	1	blank2r.bmp	870	5	kummer	870	1	!	1200	1	blank2r.bmp	1330
020518	12:52:33	1	20	5.0.10.0	dL_A21_A1_unplB	dA21_valB_pract1	6	4	300	300	0	0	80	23	1	1	blank2r.bmp	0	1	+	0	5	C1r.bmp	500	1	blank2r.bmp	700	1	NPLW	700	7	C3r.bmp	830	1	blank2r.bmp	870	4	böse	870	1	!	1200	1	blank2r.bmp	1330
020518	12:52:33	1	20	5.0.10.0	dL_A21_A2_unplB	dA21_valB_pract1	6	5	300	300	0	0	15	18	1	1	blank2r.bmp	0	1	+	0	8	C4r.bmp	500	1	blank2r.bmp	700	1	DHJF	700	1	B1r.bmp	830	1	blank2r.bmp	870	3	ärger	870	1	!	1200	1	blank2r.bmp	1330
020518	12:52:33	1	20	5.0.10.0	dL_A21_A1_unplB	dA21_valB_pract1	6	6	300	300	0	0	0	23	1	1	blank2r.bmp	0	1	+	0	4	B4r.bmp	500	1	blank2r.bmp	700	1	NPLW	700	6	C2r.bmp	830	1	blank2r.bmp	870	1	grausam	870	1	!	1200	1	blank2r.bmp	1330
020518	12:52:33	1	20	5.0.10.0	dL_A21_A2_unplB	dA21_valB_pract1	6	7	300	300	0	0	490	18	1	1	blank2r.bmp	0	1	+	0	1	B1r.bmp	500	1	blank2r.bmp	700	1	DHJF	700	2	B2r.bmp	830	1	blank2r.bmp	870	2	geizig	870	1	!	1200	1	blank2r.bmp	1330
020518	12:52:33	1	20	5.0.10.0	dL_A21_A1_pleasB	dA21_valB_pract1	6	8	300	300	0	0	1753	23	1	1	blank2r.bmp	0	1	+	0	3	B3r.bmp	500	1	blank2r.bmp	700	1	NPLW	700	5	C1r.bmp	830	1	blank2r.bmp	870	4	treu	870	1	!	1200	1	blank2r.bmp	1330
020518	12:52:33	1	20	5.0.10.0	dL_A21_A1_pleasB	dA21_valB_pract1	6	9	300	300	0	0	79	23	1	1	blank2r.bmp	0	1	+	0	8	C4r.bmp	500	1	blank2r.bmp	700	1	NPLW	700	1	B1r.bmp	830	1	blank2r.bmp	870	1	gut	870	1	!	1200	1	blank2r.bmp	1330
020518	12:52:33	1	20	5.0.10.0	dL_A21_A2_pleasB	dA21_valB_pract1	6	10	300	300	0	0	160	18	1	1	blank2r.bmp	0	1	+	0	7	C3r.bmp	500	1	blank2r.bmp	700	1	DHJF	700	5	C1r.bmp	830	1	blank2r.bmp	870	3	kuss	870	1	!	1200	1	blank2r.bmp	1330
020518	12:52:33	1	20	5.0.10.0	dL_A21_A2_pleasB	dA21_valB_pract1	6	11	300	300	0	0	126	18	1	1	blank2r.bmp	0	1	+	0	2	B2r.bmp	500	1	blank2r.bmp	700	1	DHJF	700	3	B3r.bmp	830	1	blank2r.bmp	870	6	kreativ	870	1	!	1200	1	blank2r.bmp	1330
020518	12:52:33	1	20	5.0.10.0	dL_A21_A2_unplB	dA21_valB_pract1	6	12	300	300	0	0	26	18	1	1	blank2r.bmp	0	1	+	0	6	C2r.bmp	500	1	blank2r.bmp	700	1	DHJF	700	8	C4r.bmp	830	1	blank2r.bmp	870	6	traurig	870	1	!	1200	1	blank2r.bmp	1330
020518	12:52:33	1	20	5.0.10.0	dM_A21_A2_unplB	dA21_valB_pract2	7	1	300	300	0	0	90	18	1	1	blank2r.bmp	0	1	+	0	3	B3r.bmp	500	1	blank2r.bmp	730	1	DHJF	730	4	B4r.bmp	830	1	blank2r.bmp	870	1	grausam	870	1	!	1200	1	blank2r.bmp	1330
020518	12:52:33	1	20	5.0.10.0	dM_A21_A1_unplB	dA21_valB_pract2	7	2	300	300	0	0	1634	23	1	1	blank2r.bmp	0	1	+	0	5	C1r.bmp	500	1	blank2r.bmp	730	1	NPLW	730	7	C3r.bmp	830	1	blank2r.bmp	870	3	ärger	870	1	!	1200	1	blank2r.bmp	1330
020518	12:52:33	1	20	5.0.10.0	dM_A21_A1_pleasB	dA21_valB_pract2	7	3	300	300	0	0	179	23	1	1	blank2r.bmp	0	1	+	0	1	B1r.bmp	500	1	blank2r.bmp	730	1	NPLW	730	2	B2r.bmp	830	1	blank2r.bmp	870	3	kuss	870	1	!	1200	1	blank2r.bmp	1330
020518	12:52:33	1	20	5.0.10.0	dM_A21_A2_pleasB	dA21_valB_pract2	7	4	300	300	0	0	1257	18	1	1	blank2r.bmp	0	1	+	0	4	B4r.bmp	500	1	blank2r.bmp	730	1	DHJF	730	6	C2r.bmp	830	1	blank2r.bmp	870	4	treu	870	1	!	1200	1	blank2r.bmp	1330
020518	12:52:33	1	20	5.0.10.0	dM_A21_A2_unplB	dA21_valB_pract2	7	5	300	300	0	0	180	18	1	1	blank2r.bmp	0	1	+	0	6	C2r.bmp	500	1	blank2r.bmp	730	1	DHJF	730	5	C1r.bmp	830	1	blank2r.bmp	870	5	kummer	870	1	!	1200	1	blank2r.bmp	1330
020518	12:52:33	1	20	5.0.10.0	dM_A21_A1_unplB	dA21_valB_pract2	7	6	300	300	0	0	103	23	1	1	blank2r.bmp	0	1	+	0	5	C1r.bmp	500	1	blank2r.bmp	730	1	NPLW	730	1	B1r.bmp	830	1	blank2r.bmp	870	6	traurig	870	1	!	1200	1	blank2r.bmp	1330
020518	12:52:33	1	20	5.0.10.0	dM_A21_A2_unplB	dA21_valB_pract2	7	7	300	300	0	0	1925	18	1	1	blank2r.bmp	0	1	+	0	2	B2r.bmp	500	1	blank2r.bmp	730	1	DHJF	730	3	B3r.bmp	830	1	blank2r.bmp	870	4	böse	870	1	!	1200	1	blank2r.bmp	1330
020518	12:52:33	1	20	5.0.10.0	dM_A21_A1_pleasB	dA21_valB_pract2	7	8	300	300	0	0	26	23	1	1	blank2r.bmp	0	1	+	0	3	B3r.bmp	500	1	blank2r.bmp	730	1	NPLW	730	6	C2r.bmp	830	1	blank2r.bmp	870	1	gut	870	1	!	1200	1	blank2r.bmp	1330
020518	12:52:33	1	20	5.0.10.0	dM_A21_A2_pleasB	dA21_valB_pract2	7	9	300	300	0	0	1734	18	1	1	blank2r.bmp	0	1	+	0	1	B1r.bmp	500	1	blank2r.bmp	730	1	DHJF	730	4	B4r.bmp	830	1	blank2r.bmp	870	5	begabt	870	1	!	1200	1	blank2r.bmp	1330
020518	12:52:33	1	20	5.0.10.0	dM_A21_A1_pleasB	dA21_valB_pract2	7	10	300	300	0	0	1965	23	1	1	blank2r.bmp	0	1	+	0	8	C4r.bmp	500	1	blank2r.bmp	730	1	NPLW	730	7	C3r.bmp	830	1	blank2r.bmp	870	6	kreativ	870	1	!	1200	1	blank2r.bmp	1330
020518	12:52:33	1	20	5.0.10.0	dM_A21_A1_unplB	dA21_valB_pract2	7	11	300	300	0	0	783	23	1	1	blank2r.bmp	0	1	+	0	7	C3r.bmp	500	1	blank2r.bmp	730	1	NPLW	730	8	C4r.bmp	830	1	blank2r.bmp	870	2	geizig	870	1	!	1200	1	blank2r.bmp	1330
020518	12:52:33	1	20	5.0.10.0	dM_A21_A2_pleasB	dA21_valB_pract2	7	12	300	300	0	0	178	18	1	1	blank2r.bmp	0	1	+	0	4	B4r.bmp	500	1	blank2r.bmp	730	1	DHJF	730	2	B2r.bmp	830	1	blank2r.bmp	870	2	mutig	870	1	!	1200	1	blank2r.bmp	1330
020518	12:52:33	1	20	5.0.10.0	d080_A21_A1_pleasB	dA21_valB_080	8	1	300	300	0	0	163	23	1	1	blank2r.bmp	0	1	+	0	8	C4r.bmp	500	1	blank2r.bmp	800	1	NPLW	800	1	blank2r.bmp	880	6	kreativ	880	1	!	1210	1	blank2r.bmp	1340	0	0	0
020518	12:52:33	1	20	5.0.10.0	d080_A21_A2_pleasB	dA21_valB_080	8	2	300	300	0	0	42	18	1	1	blank2r.bmp	0	1	+	0	7	C3r.bmp	500	1	blank2r.bmp	800	1	DHJF	800	1	blank2r.bmp	880	4	treu	880	1	!	1210	1	blank2r.bmp	1340	0	0	0
020518	12:52:33	1	20	5.0.10.0	d080_A21_A1_unplB	dA21_valB_080	8	3	300	300	0	0	37	23	1	1	blank2r.bmp	0	1	+	0	6	C2r.bmp	500	1	blank2r.bmp	800	1	NPLW	800	1	blank2r.bmp	880	3	ärger	880	1	!	1210	1	blank2r.bmp	1340	0	0	0
020518	12:52:33	1	20	5.0.10.0	d080_A21_A1_unplB	dA21_valB_080	8	4	300	300	0	0	376	23	1	1	blank2r.bmp	0	1	+	0	5	C1r.bmp	500	1	blank2r.bmp	800	1	NPLW	800	1	blank2r.bmp	880	1	grausam	880	1	!	1210	1	blank2r.bmp	1340	0	0	0
020518	12:52:33	1	20	5.0.10.0	d080_A21_A1_pleasB	dA21_valB_080	8	5	300	300	0	0	111	23	1	1	blank2r.bmp	0	1	+	0	2	B2r.bmp	500	1	blank2r.bmp	800	1	NPLW	800	1	blank2r.bmp	880	2	mutig	880	1	!	1210	1	blank2r.bmp	1340	0	0	0
020518	12:52:33	1	20	5.0.10.0	d080_A21_A2_pleasB	dA21_valB_080	8	6	300	300	0	0	132	18	1	1	blank2r.bmp	0	1	+	0	4	B4r.bmp	500	1	blank2r.bmp	800	1	DHJF	800	1	blank2r.bmp	880	1	gut	880	1	!	1210	1	blank2r.bmp	1340	0	0	0
020518	12:52:33	1	20	5.0.10.0	d080_A21_A2_unplB	dA21_valB_080	8	7	300	300	0	0	92	18	1	1	blank2r.bmp	0	1	+	0	3	B3r.bmp	500	1	blank2r.bmp	800	1	DHJF	800	1	blank2r.bmp	880	4	böse	880	1	!	1210	1	blank2r.bmp	1340	0	0	0
020518	12:52:33	1	20	5.0.10.0	d080_A21_A1_pleasB	dA21_valB_080	8	8	300	300	0	0	1651	23	1	1	blank2r.bmp	0	1	+	0	1	B1r.bmp	500	1	blank2r.bmp	800	1	NPLW	800	1	blank2r.bmp	880	5	begabt	880	1	!	1210	1	blank2r.bmp	1340	0	0	0
020518	12:52:33	1	20	5.0.10.0	d080_A21_A2_pleasB	dA21_valB_080	8	9	300	300	0	0	290	18	1	1	blank2r.bmp	0	1	+	0	4	B4r.bmp	500	1	blank2r.bmp	800	1	DHJF	800	1	blank2r.bmp	880	3	kuss	880	1	!	1210	1	blank2r.bmp	1340	0	0	0
020518	12:52:33	1	20	5.0.10.0	d080_A21_A2_unplB	dA21_valB_080	8	10	300	300	0	0	65	18	1	1	blank2r.bmp	0	1	+	0	7	C3r.bmp	500	1	blank2r.bmp	800	1	DHJF	800	1	blank2r.bmp	880	6	traurig	880	1	!	1210	1	blank2r.bmp	1340	0	0	0
020518	12:52:33	1	20	5.0.10.0	d080_A21_A2_pleasB	dA21_valB_080	8	11	300	300	0	0	209	18	1	1	blank2r.bmp	0	1	+	0	3	B3r.bmp	500	1	blank2r.bmp	800	1	DHJF	800	1	blank2r.bmp	880	1	gut	880	1	!	1210	1	blank2r.bmp	1340	0	0	0
020518	12:52:33	1	20	5.0.10.0	d080_A21_A1_unplB	dA21_valB_080	8	12	300	300	0	0	354	23	1	1	blank2r.bmp	0	1	+	0	8	C4r.bmp	500	1	blank2r.bmp	800	1	NPLW	800	1	blank2r.bmp	880	2	geizig	880	1	!	1210	1	blank2r.bmp	1340	0	0	0
020518	12:52:33	1	20	5.0.10.0	d080_A21_A2_unplB	dA21_valB_080	8	13	300	300	0	0	29	18	1	1	blank2r.bmp	0	1	+	0	1	B1r.bmp	500	1	blank2r.bmp	800	1	DHJF	800	1	blank2r.bmp	880	5	kummer	880	1	!	1210	1	blank2r.bmp	1340	0	0	0
020518	12:52:33	1	20	5.0.10.0	d080_A21_A2_unplB	dA21_valB_080	8	14	300	300	0	0	102	18	1	1	blank2r.bmp	0	1	+	0	2	B2r.bmp	500	1	blank2r.bmp	800	1	DHJF	800	1	blank2r.bmp	880	4	böse	880	1	!	1210	1	blank2r.bmp	1340	0	0	0
020518	12:52:33	1	20	5.0.10.0	d080_A21_A2_unplB	dA21_valB_080	8	15	300	300	0	0	52	18	1	1	blank2r.bmp	0	1	+	0	6	C2r.bmp	500	1	blank2r.bmp	800	1	DHJF	800	1	blank2r.bmp	880	3	ärger	880	1	!	1210	1	blank2r.bmp	1340	0	0	0
020518	12:52:33	1	20	5.0.10.0	d080_A21_A2_unplB	dA21_valB_080	8	16	300	300	0	0	38	18	1	1	blank2r.bmp	0	1	+	0	5	C1r.bmp	500	1	blank2r.bmp	800	1	DHJF	800	1	blank2r.bmp	880	5	kummer	880	1	!	1210	1	blank2r.bmp	1340	0	0	0
020518	12:52:33	1	20	5.0.10.0	d080_A21_A2_pleasB	dA21_valB_080	8	17	300	300	0	0	9	18	1	1	blank2r.bmp	0	1	+	0	6	C2r.bmp	500	1	blank2r.bmp	800	1	DHJF	800	1	blank2r.bmp	880	5	begabt	880	1	!	1210	1	blank2r.bmp	1340	0	0	0
020518	12:52:33	1	20	5.0.10.0	d080_A21_A2_unplB	dA21_valB_080	8	18	300	300	0	0	56	18	1	1	blank2r.bmp	0	1	+	0	8	C4r.bmp	500	1	blank2r.bmp	800	1	DHJF	800	1	blank2r.bmp	880	1	grausam	880	1	!	1210	1	blank2r.bmp	1340	0	0	0
020518	12:52:33	1	20	5.0.10.0	d080_A21_A2_pleasB	dA21_valB_080	8	19	300	300	0	0	2305	18	1	1	blank2r.bmp	0	1	+	0	1	B1r.bmp	500	1	blank2r.bmp	800	1	DHJF	800	1	blank2r.bmp	880	4	treu	880	1	!	1210	1	blank2r.bmp	1340	0	0	0
020518	12:52:33	1	20	5.0.10.0	d080_A21_A2_unplB	dA21_valB_080	8	20	300	300	0	0	49	18	1	1	blank2r.bmp	0	1	+	0	4	B4r.bmp	500	1	blank2r.bmp	800	1	DHJF	800	1	blank2r.bmp	880	2	geizig	880	1	!	1210	1	blank2r.bmp	1340	0	0	0
020518	12:52:33	1	20	5.0.10.0	d080_A21_A1_unplB	dA21_valB_080	8	21	300	300	0	0	1341	23	1	1	blank2r.bmp	0	1	+	0	2	B2r.bmp	500	1	blank2r.bmp	800	1	NPLW	800	1	blank2r.bmp	880	6	traurig	880	1	!	1210	1	blank2r.bmp	1340	0	0	0
020518	12:52:33	1	20	5.0.10.0	d080_A21_A1_unplB	dA21_valB_080	8	22	300	300	0	0	268	23	1	1	blank2r.bmp	0	1	+	0	3	B3r.bmp	500	1	blank2r.bmp	800	1	NPLW	800	1	blank2r.bmp	880	1	grausam	880	1	!	1210	1	blank2r.bmp	1340	0	0	0
020518	12:52:33	1	20	5.0.10.0	d080_A21_A1_unplB	dA21_valB_080	8	23	300	300	0	0	1278	23	1	1	blank2r.bmp	0	1	+	0	5	C1r.bmp	500	1	blank2r.bmp	800	1	NPLW	800	1	blank2r.bmp	880	5	kummer	880	1	!	1210	1	blank2r.bmp	1340	0	0	0
020518	12:52:33	1	20	5.0.10.0	d080_A21_A1_pleasB	dA21_valB_080	8	24	300	300	0	0	94	23	1	1	blank2r.bmp	0	1	+	0	7	C3r.bmp	500	1	blank2r.bmp	800	1	NPLW	800	1	blank2r.bmp	880	3	kuss	880	1	!	1210	1	blank2r.bmp	1340	0	0	0
020518	12:52:33	1	20	5.0.10.0	d080_A21_A2_unplB	dA21_valB_080	8	25	300	300	0	0	1211	18	1	1	blank2r.bmp	0	1	+	0	6	C2r.bmp	500	1	blank2r.bmp	800	1	DHJF	800	1	blank2r.bmp	880	3	ärger	880	1	!	1210	1	blank2r.bmp	1340	0	0	0
020518	12:52:33	1	20	5.0.10.0	d080_A21_A2_pleasB	dA21_valB_080	8	26	300	300	0	0	234	18	1	1	blank2r.bmp	0	1	+	0	7	C3r.bmp	500	1	blank2r.bmp	800	1	DHJF	800	1	blank2r.bmp	880	2	mutig	880	1	!	1210	1	blank2r.bmp	1340	0	0	0
020518	12:52:33	1	20	5.0.10.0	d080_A21_A1_pleasB	dA21_valB_080	8	27	300	300	0	0	49	23	1	1	blank2r.bmp	0	1	+	0	1	B1r.bmp	500	1	blank2r.bmp	800	1	NPLW	800	1	blank2r.bmp	880	6	kreativ	880	1	!	1210	1	blank2r.bmp	1340	0	0	0
020518	12:52:33	1	20	5.0.10.0	d080_A21_A2_pleasB	dA21_valB_080	8	28	300	300	0	0	193	18	1	1	blank2r.bmp	0	1	+	0	2	B2r.bmp	500	1	blank2r.bmp	800	1	DHJF	800	1	blank2r.bmp	880	1	gut	880	1	!	1210	1	blank2r.bmp	1340	0	0	0
020518	12:52:33	1	20	5.0.10.0	d080_A21_A2_pleasB	dA21_valB_080	8	29	300	300	0	0	113	18	1	1	blank2r.bmp	0	1	+	0	4	B4r.bmp	500	1	blank2r.bmp	800	1	DHJF	800	1	blank2r.bmp	880	5	begabt	880	1	!	1210	1	blank2r.bmp	1340	0	0	0
020518	12:52:33	1	20	5.0.10.0	d080_A21_A1_unplB	dA21_valB_080	8	30	300	300	0	0	97	23	1	1	blank2r.bmp	0	1	+	0	3	B3r.bmp	500	1	blank2r.bmp	800	1	NPLW	800	1	blank2r.bmp	880	6	traurig	880	1	!	1210	1	blank2r.bmp	1340	0	0	0
020518	12:52:33	1	20	5.0.10.0	d080_A21_A2_pleasB	dA21_valB_080	8	31	300	300	0	0	172	18	1	1	blank2r.bmp	0	1	+	0	8	C4r.bmp	500	1	blank2r.bmp	800	1	DHJF	800	1	blank2r.bmp	880	2	mutig	880	1	!	1210	1	blank2r.bmp	1340	0	0	0
020518	12:52:33	1	20	5.0.10.0	d080_A21_A2_pleasB	dA21_valB_080	8	32	300	300	0	0	105	18	1	1	blank2r.bmp	0	1	+	0	5	C1r.bmp	500	1	blank2r.bmp	800	1	DHJF	800	1	blank2r.bmp	880	6	kreativ	880	1	!	1210	1	blank2r.bmp	1340	0	0	0
020518	12:52:33	1	20	5.0.10.0	d080_A21_A1_pleasB	dA21_valB_080	8	33	300	300	0	0	1316	23	1	1	blank2r.bmp	0	1	+	0	4	B4r.bmp	500	1	blank2r.bmp	800	1	NPLW	800	1	blank2r.bmp	880	4	treu	880	1	!	1210	1	blank2r.bmp	1340	0	0	0
020518	12:52:33	1	20	5.0.10.0	d080_A21_A1_pleasB	dA21_valB_080	8	34	300	300	0	0	179	18	0	1	blank2r.bmp	0	1	+	0	5	C1r.bmp	500	1	blank2r.bmp	800	1	NPLW	800	1	blank2r.bmp	880	3	kuss	880	1	!	1210	1	blank2r.bmp	1340	0	0	0
020518	12:52:33	1	20	5.0.10.0	d080_A21_A1_pleasB	dA21_valB_080	8	35	300	300	0	0	65	23	1	1	blank2r.bmp	0	1	+	0	7	C3r.bmp	500	1	blank2r.bmp	800	1	NPLW	800	1	blank2r.bmp	880	3	kuss	880	1	!	1210	1	blank2r.bmp	1340	0	0	0
020518	12:52:33	1	20	5.0.10.0	d080_A21_A1_unplB	dA21_valB_080	8	36	300	300	0	0	700	18	0	1	blank2r.bmp	0	1	+	0	6	C2r.bmp	500	1	blank2r.bmp	800	1	NPLW	800	1	blank2r.bmp	880	2	geizig	880	1	!	1210	1	blank2r.bmp	1340	0	0	0
020518	12:52:33	1	20	5.0.10.0	d080_A21_A2_pleasB	dA21_valB_080	8	37	300	300	0	0	225	18	1	1	blank2r.bmp	0	1	+	0	3	B3r.bmp	500	1	blank2r.bmp	800	1	DHJF	800	1	blank2r.bmp	880	1	gut	880	1	!	1210	1	blank2r.bmp	1340	0	0	0
020518	12:52:33	1	20	5.0.10.0	d080_A21_A1_unplB	dA21_valB_080	8	38	300	300	0	0	232	23	1	1	blank2r.bmp	0	1	+	0	2	B2r.bmp	500	1	blank2r.bmp	800	1	NPLW	800	1	blank2r.bmp	880	4	böse	880	1	!	1210	1	blank2r.bmp	1340	0	0	0
020518	12:52:33	1	20	5.0.10.0	d080_A21_A1_unplB	dA21_valB_080	8	39	300	300	0	0	74	23	1	1	blank2r.bmp	0	1	+	0	1	B1r.bmp	500	1	blank2r.bmp	800	1	NPLW	800	1	blank2r.bmp	880	6	traurig	880	1	!	1210	1	blank2r.bmp	1340	0	0	0
020518	12:52:33	1	20	5.0.10.0	d080_A21_A2_unplB	dA21_valB_080	8	40	300	300	0	0	316	18	1	1	blank2r.bmp	0	1	+	0	8	C4r.bmp	500	1	blank2r.bmp	800	1	DHJF	800	1	blank2r.bmp	880	4	böse	880	1	!	1210	1	blank2r.bmp	1340	0	0	0
020518	12:52:33	1	20	5.0.10.0	d080_A21_A1_unplB	dA21_valB_080	8	41	300	300	0	0	189	23	1	1	blank2r.bmp	0	1	+	0	8	C4r.bmp	500	1	blank2r.bmp	800	1	NPLW	800	1	blank2r.bmp	880	2	geizig	880	1	!	1210	1	blank2r.bmp	1340	0	0	0
020518	12:52:33	1	20	5.0.10.0	d080_A21_A2_unplB	dA21_valB_080	8	42	300	300	0	0	146	18	1	1	blank2r.bmp	0	1	+	0	5	C1r.bmp	500	1	blank2r.bmp	800	1	DHJF	800	1	blank2r.bmp	880	1	grausam	880	1	!	1210	1	blank2r.bmp	1340	0	0	0
020518	12:52:33	1	20	5.0.10.0	d080_A21_A1_pleasB	dA21_valB_080	8	43	300	300	0	0	310	23	1	1	blank2r.bmp	0	1	+	0	2	B2r.bmp	500	1	blank2r.bmp	800	1	NPLW	800	1	blank2r.bmp	880	4	treu	880	1	!	1210	1	blank2r.bmp	1340	0	0	0
020518	12:52:33	1	20	5.0.10.0	d080_A21_A2_unplB	dA21_valB_080	8	44	300	300	0	0	332	23	0	1	blank2r.bmp	0	1	+	0	7	C3r.bmp	500	1	blank2r.bmp	800	1	DHJF	800	1	blank2r.bmp	880	5	kummer	880	1	!	1210	1	blank2r.bmp	1340	0	0	0
020518	12:52:33	1	20	5.0.10.0	d080_A21_A1_unplB	dA21_valB_080	8	45	300	300	0	0	88	18	0	1	blank2r.bmp	0	1	+	0	3	B3r.bmp	500	1	blank2r.bmp	800	1	NPLW	800	1	blank2r.bmp	880	3	ärger	880	1	!	1210	1	blank2r.bmp	1340	0	0	0
020518	12:52:33	1	20	5.0.10.0	d080_A21_A1_pleasB	dA21_valB_080	8	46	300	300	0	0	5127	23	1	1	blank2r.bmp	0	1	+	0	6	C2r.bmp	500	1	blank2r.bmp	800	1	NPLW	800	1	blank2r.bmp	880	2	mutig	880	1	!	1210	1	blank2r.bmp	1340	0	0	0
020518	12:52:33	1	20	5.0.10.0	d080_A21_A1_pleasB	dA21_valB_080	8	47	300	300	0	0	84	23	1	1	blank2r.bmp	0	1	+	0	1	B1r.bmp	500	1	blank2r.bmp	800	1	NPLW	800	1	blank2r.bmp	880	6	kreativ	880	1	!	1210	1	blank2r.bmp	1340	0	0	0
020518	12:52:33	1	20	5.0.10.0	d080_A21_A1_pleasB	dA21_valB_080	8	48	300	300	0	0	118	23	1	1	blank2r.bmp	0	1	+	0	4	B4r.bmp	500	1	blank2r.bmp	800	1	NPLW	800	1	blank2r.bmp	880	5	begabt	880	1	!	1210	1	blank2r.bmp	1340	0	0	0
020518	12:52:33	1	20	5.0.10.0	d080_A21_A1_pleasB	dA21_valB_080	9	1	300	300	0	0	1533	23	1	1	blank2r.bmp	0	1	+	0	5	C1r.bmp	500	1	blank2r.bmp	800	1	NPLW	800	1	blank2r.bmp	880	5	begabt	880	1	!	1210	1	blank2r.bmp	1340	0	0	0
020518	12:52:33	1	20	5.0.10.0	d080_A21_A2_pleasB	dA21_valB_080	9	2	300	300	0	0	129	18	1	1	blank2r.bmp	0	1	+	0	3	B3r.bmp	500	1	blank2r.bmp	800	1	DHJF	800	1	blank2r.bmp	880	3	kuss	880	1	!	1210	1	blank2r.bmp	1340	0	0	0
020518	12:52:33	1	20	5.0.10.0	d080_A21_A1_pleasB	dA21_valB_080	9	3	300	300	0	0	1778	18	0	1	blank2r.bmp	0	1	+	0	6	C2r.bmp	500	1	blank2r.bmp	800	1	NPLW	800	1	blank2r.bmp	880	4	treu	880	1	!	1210	1	blank2r.bmp	1340	0	0	0
020518	12:52:33	1	20	5.0.10.0	d080_A21_A2_pleasB	dA21_valB_080	9	4	300	300	0	0	1411	18	1	1	blank2r.bmp	0	1	+	0	1	B1r.bmp	500	1	blank2r.bmp	800	1	DHJF	800	1	blank2r.bmp	880	2	mutig	880	1	!	1210	1	blank2r.bmp	1340	0	0	0
020518	12:52:33	1	20	5.0.10.0	d080_A21_A2_unplB	dA21_valB_080	9	5	300	300	0	0	1423	18	1	1	blank2r.bmp	0	1	+	0	2	B2r.bmp	500	1	blank2r.bmp	800	1	DHJF	800	1	blank2r.bmp	880	2	geizig	880	1	!	1210	1	blank2r.bmp	1340	0	0	0
020518	12:52:33	1	20	5.0.10.0	d080_A21_A2_unplB	dA21_valB_080	9	6	300	300	0	0	2290	18	1	1	blank2r.bmp	0	1	+	0	7	C3r.bmp	500	1	blank2r.bmp	800	1	DHJF	800	1	blank2r.bmp	880	3	ärger	880	1	!	1210	1	blank2r.bmp	1340	0	0	0
020518	12:52:33	1	20	5.0.10.0	d080_A21_A2_pleasB	dA21_valB_080	9	7	300	300	0	0	42	23	0	1	blank2r.bmp	0	1	+	0	8	C4r.bmp	500	1	blank2r.bmp	800	1	DHJF	800	1	blank2r.bmp	880	6	kreativ	880	1	!	1210	1	blank2r.bmp	1340	0	0	0
020518	12:52:33	1	20	5.0.10.0	d080_A21_A1_unplB	dA21_valB_080	9	8	300	300	0	0	28	23	1	1	blank2r.bmp	0	1	+	0	4	B4r.bmp	500	1	blank2r.bmp	800	1	NPLW	800	1	blank2r.bmp	880	1	grausam	880	1	!	1210	1	blank2r.bmp	1340	0	0	0
020518	12:52:33	1	20	5.0.10.0	d080_A21_A1_unplB	dA21_valB_080	9	9	300	300	0	0	145	23	1	1	blank2r.bmp	0	1	+	0	1	B1r.bmp	500	1	blank2r.bmp	800	1	NPLW	800	1	blank2r.bmp	880	6	traurig	880	1	!	1210	1	blank2r.bmp	1340	0	0	0
020518	12:52:33	1	20	5.0.10.0	d080_A21_A1_pleasB	dA21_valB_080	9	10	300	300	0	0	321	23	1	1	blank2r.bmp	0	1	+	0	7	C3r.bmp	500	1	blank2r.bmp	800	1	NPLW	800	1	blank2r.bmp	880	1	gut	880	1	!	1210	1	blank2r.bmp	1340	0	0	0
020518	12:52:33	1	20	5.0.10.0	d080_A21_A1_unplB	dA21_valB_080	9	11	300	300	0	0	107	23	1	1	blank2r.bmp	0	1	+	0	4	B4r.bmp	500	1	blank2r.bmp	800	1	NPLW	800	1	blank2r.bmp	880	4	böse	880	1	!	1210	1	blank2r.bmp	1340	0	0	0
020518	12:52:33	1	20	5.0.10.0	d080_A21_A1_pleasB	dA21_valB_080	9	12	300	300	0	0	95	23	1	1	blank2r.bmp	0	1	+	0	2	B2r.bmp	500	1	blank2r.bmp	800	1	NPLW	800	1	blank2r.bmp	880	1	gut	880	1	!	1210	1	blank2r.bmp	1340	0	0	0
020518	12:52:33	1	20	5.0.10.0	d080_A21_A2_pleasB	dA21_valB_080	9	13	300	300	0	0	54	18	1	1	blank2r.bmp	0	1	+	0	8	C4r.bmp	500	1	blank2r.bmp	800	1	DHJF	800	1	blank2r.bmp	880	3	kuss	880	1	!	1210	1	blank2r.bmp	1340	0	0	0
020518	12:52:33	1	20	5.0.10.0	d080_A21_A2_pleasB	dA21_valB_080	9	14	300	300	0	0	109	18	1	1	blank2r.bmp	0	1	+	0	6	C2r.bmp	500	1	blank2r.bmp	800	1	DHJF	800	1	blank2r.bmp	880	6	kreativ	880	1	!	1210	1	blank2r.bmp	1340	0	0	0
020518	12:52:33	1	20	5.0.10.0	d080_A21_A1_pleasB	dA21_valB_080	9	15	300	300	0	0	115	23	1	1	blank2r.bmp	0	1	+	0	5	C1r.bmp	500	1	blank2r.bmp	800	1	NPLW	800	1	blank2r.bmp	880	4	treu	880	1	!	1210	1	blank2r.bmp	1340	0	0	0
020518	12:52:33	1	20	5.0.10.0	d080_A21_A2_unplB	dA21_valB_080	9	16	300	300	0	0	120	18	1	1	blank2r.bmp	0	1	+	0	3	B3r.bmp	500	1	blank2r.bmp	800	1	DHJF	800	1	blank2r.bmp	880	5	kummer	880	1	!	1210	1	blank2r.bmp	1340	0	0	0
020518	12:52:33	1	20	5.0.10.0	d080_A21_A1_pleasB	dA21_valB_080	9	17	300	300	0	0	90	23	1	1	blank2r.bmp	0	1	+	0	7	C3r.bmp	500	1	blank2r.bmp	800	1	NPLW	800	1	blank2r.bmp	880	2	mutig	880	1	!	1210	1	blank2r.bmp	1340	0	0	0
020518	12:52:33	1	20	5.0.10.0	d080_A21_A1_pleasB	dA21_valB_080	9	18	300	300	0	0	85	18	0	1	blank2r.bmp	0	1	+	0	3	B3r.bmp	500	1	blank2r.bmp	800	1	NPLW	800	1	blank2r.bmp	880	5	begabt	880	1	!	1210	1	blank2r.bmp	1340	0	0	0
020518	12:52:33	1	20	5.0.10.0	d080_A21_A2_unplB	dA21_valB_080	9	19	300	300	0	0	111	18	1	1	blank2r.bmp	0	1	+	0	6	C2r.bmp	500	1	blank2r.bmp	800	1	DHJF	800	1	blank2r.bmp	880	2	geizig	880	1	!	1210	1	blank2r.bmp	1340	0	0	0
020518	12:52:33	1	20	5.0.10.0	d080_A21_A1_pleasB	dA21_valB_080	9	20	300	300	0	0	133	23	1	1	blank2r.bmp	0	1	+	0	1	B1r.bmp	500	1	blank2r.bmp	800	1	NPLW	800	1	blank2r.bmp	880	1	gut	880	1	!	1210	1	blank2r.bmp	1340	0	0	0
020518	12:52:33	1	20	5.0.10.0	d080_A21_A1_unplB	dA21_valB_080	9	21	300	300	0	0	257	23	1	1	blank2r.bmp	0	1	+	0	2	B2r.bmp	500	1	blank2r.bmp	800	1	NPLW	800	1	blank2r.bmp	880	1	grausam	880	1	!	1210	1	blank2r.bmp	1340	0	0	0
020518	12:52:33	1	20	5.0.10.0	d080_A21_A2_pleasB	dA21_valB_080	9	22	300	300	0	0	204	18	1	1	blank2r.bmp	0	1	+	0	8	C4r.bmp	500	1	blank2r.bmp	800	1	DHJF	800	1	blank2r.bmp	880	6	kreativ	880	1	!	1210	1	blank2r.bmp	1340	0	0	0
020518	12:52:33	1	20	5.0.10.0	d080_A21_A1_pleasB	dA21_valB_080	9	23	300	300	0	0	105	23	1	1	blank2r.bmp	0	1	+	0	5	C1r.bmp	500	1	blank2r.bmp	800	1	NPLW	800	1	blank2r.bmp	880	5	begabt	880	1	!	1210	1	blank2r.bmp	1340	0	0	0
020518	12:52:33	1	20	5.0.10.0	d080_A21_A2_unplB	dA21_valB_080	9	24	300	300	0	0	158	18	1	1	blank2r.bmp	0	1	+	0	4	B4r.bmp	500	1	blank2r.bmp	800	1	DHJF	800	1	blank2r.bmp	880	5	kummer	880	1	!	1210	1	blank2r.bmp	1340	0	0	0
020518	12:52:33	1	20	5.0.10.0	d080_A21_A2_pleasB	dA21_valB_080	9	25	300	300	0	0	118	18	1	1	blank2r.bmp	0	1	+	0	4	B4r.bmp	500	1	blank2r.bmp	800	1	DHJF	800	1	blank2r.bmp	880	3	kuss	880	1	!	1210	1	blank2r.bmp	1340	0	0	0
020518	12:52:33	1	20	5.0.10.0	d080_A21_A1_pleasB	dA21_valB_080	9	26	300	300	0	0	105	23	1	1	blank2r.bmp	0	1	+	0	7	C3r.bmp	500	1	blank2r.bmp	800	1	NPLW	800	1	blank2r.bmp	880	2	mutig	880	1	!	1210	1	blank2r.bmp	1340	0	0	0
020518	12:52:33	1	20	5.0.10.0	d080_A21_A1_unplB	dA21_valB_080	9	27	300	300	0	0	265	23	1	1	blank2r.bmp	0	1	+	0	8	C4r.bmp	500	1	blank2r.bmp	800	1	NPLW	800	1	blank2r.bmp	880	6	traurig	880	1	!	1210	1	blank2r.bmp	1340	0	0	0
020518	12:52:33	1	20	5.0.10.0	d080_A21_A2_unplB	dA21_valB_080	9	28	300	300	0	0	266	18	1	1	blank2r.bmp	0	1	+	0	3	B3r.bmp	500	1	blank2r.bmp	800	1	DHJF	800	1	blank2r.bmp	880	4	böse	880	1	!	1210	1	blank2r.bmp	1340	0	0	0
020518	12:52:33	1	20	5.0.10.0	d080_A21_A1_pleasB	dA21_valB_080	9	29	300	300	0	0	134	23	1	1	blank2r.bmp	0	1	+	0	2	B2r.bmp	500	1	blank2r.bmp	800	1	NPLW	800	1	blank2r.bmp	880	4	treu	880	1	!	1210	1	blank2r.bmp	1340	0	0	0
020518	12:52:33	1	20	5.0.10.0	d080_A21_A2_unplB	dA21_valB_080	9	30	300	300	0	0	80	18	1	1	blank2r.bmp	0	1	+	0	5	C1r.bmp	500	1	blank2r.bmp	800	1	DHJF	800	1	blank2r.bmp	880	3	ärger	880	1	!	1210	1	blank2r.bmp	1340	0	0	0
020518	12:52:33	1	20	5.0.10.0	d080_A21_A2_unplB	dA21_valB_080	9	31	300	300	0	0	148	18	1	1	blank2r.bmp	0	1	+	0	6	C2r.bmp	500	1	blank2r.bmp	800	1	DHJF	800	1	blank2r.bmp	880	5	kummer	880	1	!	1210	1	blank2r.bmp	1340	0	0	0
020518	12:52:33	1	20	5.0.10.0	d080_A21_A1_pleasB	dA21_valB_080	9	32	300	300	0	0	147	23	1	1	blank2r.bmp	0	1	+	0	1	B1r.bmp	500	1	blank2r.bmp	800	1	NPLW	800	1	blank2r.bmp	880	6	kreativ	880	1	!	1210	1	blank2r.bmp	1340	0	0	0
020518	12:52:33	1	20	5.0.10.0	d080_A21_A2_pleasB	dA21_valB_080	9	33	300	300	0	0	110	18	1	1	blank2r.bmp	0	1	+	0	7	C3r.bmp	500	1	blank2r.bmp	800	1	DHJF	800	1	blank2r.bmp	880	2	mutig	880	1	!	1210	1	blank2r.bmp	1340	0	0	0
020518	12:52:33	1	20	5.0.10.0	d080_A21_A1_unplB	dA21_valB_080	9	34	300	300	0	0	97	23	1	1	blank2r.bmp	0	1	+	0	3	B3r.bmp	500	1	blank2r.bmp	800	1	NPLW	800	1	blank2r.bmp	880	2	geizig	880	1	!	1210	1	blank2r.bmp	1340	0	0	0
020518	12:52:33	1	20	5.0.10.0	d080_A21_A2_unplB	dA21_valB_080	9	35	300	300	0	0	77	18	1	1	blank2r.bmp	0	1	+	0	2	B2r.bmp	500	1	blank2r.bmp	800	1	DHJF	800	1	blank2r.bmp	880	3	ärger	880	1	!	1210	1	blank2r.bmp	1340	0	0	0
020518	12:52:33	1	20	5.0.10.0	d080_A21_A1_unplB	dA21_valB_080	9	36	300	300	0	0	38	23	1	1	blank2r.bmp	0	1	+	0	1	B1r.bmp	500	1	blank2r.bmp	800	1	NPLW	800	1	blank2r.bmp	880	6	traurig	880	1	!	1210	1	blank2r.bmp	1340	0	0	0
020518	12:52:33	1	20	5.0.10.0	d080_A21_A2_unplB	dA21_valB_080	9	37	300	300	0	0	197	18	1	1	blank2r.bmp	0	1	+	0	6	C2r.bmp	500	1	blank2r.bmp	800	1	DHJF	800	1	blank2r.bmp	880	4	böse	880	1	!	1210	1	blank2r.bmp	1340	0	0	0
020518	12:52:33	1	20	5.0.10.0	d080_A21_A1_unplB	dA21_valB_080	9	38	300	300	0	0	136	18	0	1	blank2r.bmp	0	1	+	0	4	B4r.bmp	500	1	blank2r.bmp	800	1	NPLW	800	1	blank2r.bmp	880	1	grausam	880	1	!	1210	1	blank2r.bmp	1340	0	0	0
020518	12:52:33	1	20	5.0.10.0	d080_A21_A2_pleasB	dA21_valB_080	9	39	300	300	0	0	283	18	1	1	blank2r.bmp	0	1	+	0	5	C1r.bmp	500	1	blank2r.bmp	800	1	DHJF	800	1	blank2r.bmp	880	1	gut	880	1	!	1210	1	blank2r.bmp	1340	0	0	0
020518	12:52:33	1	20	5.0.10.0	d080_A21_A2_pleasB	dA21_valB_080	9	40	300	300	0	0	123	18	1	1	blank2r.bmp	0	1	+	0	8	C4r.bmp	500	1	blank2r.bmp	800	1	DHJF	800	1	blank2r.bmp	880	5	begabt	880	1	!	1210	1	blank2r.bmp	1340	0	0	0
020518	12:52:33	1	20	5.0.10.0	d080_A21_A1_unplB	dA21_valB_080	9	41	300	300	0	0	16	23	1	1	blank2r.bmp	0	1	+	0	6	C2r.bmp	500	1	blank2r.bmp	800	1	NPLW	800	1	blank2r.bmp	880	1	grausam	880	1	!	1210	1	blank2r.bmp	1340	0	0	0
020518	12:52:33	1	20	5.0.10.0	d080_A21_A1_unplB	dA21_valB_080	9	42	300	300	0	0	114	23	1	1	blank2r.bmp	0	1	+	0	3	B3r.bmp	500	1	blank2r.bmp	800	1	NPLW	800	1	blank2r.bmp	880	6	traurig	880	1	!	1210	1	blank2r.bmp	1340	0	0	0
020518	12:52:33	1	20	5.0.10.0	d080_A21_A2_unplB	dA21_valB_080	9	43	300	300	0	0	262	18	1	1	blank2r.bmp	0	1	+	0	5	C1r.bmp	500	1	blank2r.bmp	800	1	DHJF	800	1	blank2r.bmp	880	2	geizig	880	1	!	1210	1	blank2r.bmp	1340	0	0	0
020518	12:52:33	1	20	5.0.10.0	d080_A21_A1_unplB	dA21_valB_080	9	44	300	300	0	0	435	23	1	1	blank2r.bmp	0	1	+	0	8	C4r.bmp	500	1	blank2r.bmp	800	1	NPLW	800	1	blank2r.bmp	880	4	böse	880	1	!	1210	1	blank2r.bmp	1340	0	0	0
020518	12:52:33	1	20	5.0.10.0	d080_A21_A1_unplB	dA21_valB_080	9	45	300	300	0	0	6678	23	1	1	blank2r.bmp	0	1	+	0	1	B1r.bmp	500	1	blank2r.bmp	800	1	NPLW	800	1	blank2r.bmp	880	3	ärger	880	1	!	1210	1	blank2r.bmp	1340	0	0	0
020518	12:52:33	1	20	5.0.10.0	d080_A21_A2_pleasB	dA21_valB_080	9	46	300	300	0	0	68	18	1	1	blank2r.bmp	0	1	+	0	7	C3r.bmp	500	1	blank2r.bmp	800	1	DHJF	800	1	blank2r.bmp	880	4	treu	880	1	!	1210	1	blank2r.bmp	1340	0	0	0
020518	12:52:33	1	20	5.0.10.0	d080_A21_A2_pleasB	dA21_valB_080	9	47	300	300	0	0	116	18	1	1	blank2r.bmp	0	1	+	0	2	B2r.bmp	500	1	blank2r.bmp	800	1	DHJF	800	1	blank2r.bmp	880	3	kuss	880	1	!	1210	1	blank2r.bmp	1340	0	0	0
020518	12:52:33	1	20	5.0.10.0	d080_A21_A2_unplB	dA21_valB_080	9	48	300	300	0	0	677	23	0	1	blank2r.bmp	0	1	+	0	4	B4r.bmp	500	1	blank2r.bmp	800	1	DHJF	800	1	blank2r.bmp	880	5	kummer	880	1	!	1210	1	blank2r.bmp	1340	0	0	0
020518	12:52:33	1	20	5.0.10.0	endtrial	endblock	10	1	300	300	0	0	152191	21	0	0	0	0	0	0	0	0	0	0	0	0	0	0	0	0	0	0	0	0	0	0	0	0	0	0	0	0	0	0	0
