date	time	group	subject	build	trialcode	blockcode	blocknum	trialnum	pretrialpause	posttrialpause	trialduration	trialtimeout	latency	response	correct	stimulusnumber1	stimulusitem1	stimulusonset1	stimulusnumber2	stimulusitem2	stimulusonset2	stimulusnumber3	stimulusitem3	stimulusonset3	stimulusnumber4	stimulusitem4	stimulusonset4	stimulusnumber5	stimulusitem5	stimulusonset5	stimulusnumber6	stimulusitem6	stimulusonset6	stimulusnumber7	stimulusitem7	stimulusonset7	stimulusnumber8	stimulusitem8	stimulusonset8	stimulusnumber9	stimulusitem9	stimulusonset9	stimulusnumber10	stimulusitem10	stimulusonset10
013118	15:43:49	1	6	5.0.10.0	dL_A21_A1_unplB	dA21_valB_pract1	1	1	300	300	0	0	5309	18	0	1	blank2r.bmp	0	1	+	0	7	C3r.bmp	500	1	blank2r.bmp	700	1	NPLW	700	4	B4r.bmp	830	1	blank2r.bmp	870	6	traurig	870	1	!	1200	1	blank2r.bmp	1330
013118	15:43:49	1	6	5.0.10.0	dL_A21_A1_unplB	dA21_valB_pract1	1	2	300	300	0	0	9105	23	1	1	blank2r.bmp	0	1	+	0	2	B2r.bmp	500	1	blank2r.bmp	700	1	NPLW	700	8	C4r.bmp	830	1	blank2r.bmp	870	5	kummer	870	1	!	1200	1	blank2r.bmp	1330
013118	15:43:49	1	6	5.0.10.0	dL_A21_A2_unplB	dA21_valB_pract1	1	3	300	300	0	0	314	18	1	1	blank2r.bmp	0	1	+	0	3	B3r.bmp	500	1	blank2r.bmp	700	1	DHJF	700	5	C1r.bmp	830	1	blank2r.bmp	870	4	böse	870	1	!	1200	1	blank2r.bmp	1330
013118	15:43:49	1	6	5.0.10.0	dL_A21_A1_pleasB	dA21_valB_pract1	1	4	300	300	0	0	1269	23	1	1	blank2r.bmp	0	1	+	0	6	C2r.bmp	500	1	blank2r.bmp	700	1	NPLW	700	7	C3r.bmp	830	1	blank2r.bmp	870	5	begabt	870	1	!	1200	1	blank2r.bmp	1330
013118	15:43:49	1	6	5.0.10.0	dL_A21_A2_unplB	dA21_valB_pract1	1	5	300	300	0	0	347	18	1	1	blank2r.bmp	0	1	+	0	8	C4r.bmp	500	1	blank2r.bmp	700	1	DHJF	700	3	B3r.bmp	830	1	blank2r.bmp	870	2	geizig	870	1	!	1200	1	blank2r.bmp	1330
013118	15:43:49	1	6	5.0.10.0	dL_A21_A1_unplB	dA21_valB_pract1	1	6	300	300	0	0	446	23	1	1	blank2r.bmp	0	1	+	0	1	B1r.bmp	500	1	blank2r.bmp	700	1	NPLW	700	2	B2r.bmp	830	1	blank2r.bmp	870	3	ärger	870	1	!	1200	1	blank2r.bmp	1330
013118	15:43:49	1	6	5.0.10.0	dL_A21_A2_unplB	dA21_valB_pract1	1	7	300	300	0	0	395	18	1	1	blank2r.bmp	0	1	+	0	4	B4r.bmp	500	1	blank2r.bmp	700	1	DHJF	700	1	B1r.bmp	830	1	blank2r.bmp	870	1	grausam	870	1	!	1200	1	blank2r.bmp	1330
013118	15:43:49	1	6	5.0.10.0	dL_A21_A2_pleasB	dA21_valB_pract1	1	8	300	300	0	0	722	18	1	1	blank2r.bmp	0	1	+	0	5	C1r.bmp	500	1	blank2r.bmp	700	1	DHJF	700	6	C2r.bmp	830	1	blank2r.bmp	870	2	mutig	870	1	!	1200	1	blank2r.bmp	1330
013118	15:43:49	1	6	5.0.10.0	dL_A21_A1_pleasB	dA21_valB_pract1	1	9	300	300	0	0	343	23	1	1	blank2r.bmp	0	1	+	0	3	B3r.bmp	500	1	blank2r.bmp	700	1	NPLW	700	7	C3r.bmp	830	1	blank2r.bmp	870	6	kreativ	870	1	!	1200	1	blank2r.bmp	1330
013118	15:43:49	1	6	5.0.10.0	dL_A21_A2_pleasB	dA21_valB_pract1	1	10	300	300	0	0	509	18	1	1	blank2r.bmp	0	1	+	0	7	C3r.bmp	500	1	blank2r.bmp	700	1	DHJF	700	4	B4r.bmp	830	1	blank2r.bmp	870	3	kuss	870	1	!	1200	1	blank2r.bmp	1330
013118	15:43:49	1	6	5.0.10.0	dL_A21_A2_pleasB	dA21_valB_pract1	1	11	300	300	0	0	554	18	1	1	blank2r.bmp	0	1	+	0	1	B1r.bmp	500	1	blank2r.bmp	700	1	DHJF	700	5	C1r.bmp	830	1	blank2r.bmp	870	4	treu	870	1	!	1200	1	blank2r.bmp	1330
013118	15:43:49	1	6	5.0.10.0	dL_A21_A1_pleasB	dA21_valB_pract1	1	12	300	300	0	0	331	23	1	1	blank2r.bmp	0	1	+	0	6	C2r.bmp	500	1	blank2r.bmp	700	1	NPLW	700	2	B2r.bmp	830	1	blank2r.bmp	870	1	gut	870	1	!	1200	1	blank2r.bmp	1330
013118	15:43:49	1	6	5.0.10.0	dM_A21_A2_pleasB	dA21_valB_pract2	2	1	300	300	0	0	534	18	1	1	blank2r.bmp	0	1	+	0	4	B4r.bmp	500	1	blank2r.bmp	730	1	DHJF	730	3	B3r.bmp	830	1	blank2r.bmp	870	4	treu	870	1	!	1200	1	blank2r.bmp	1330
013118	15:43:49	1	6	5.0.10.0	dM_A21_A1_pleasB	dA21_valB_pract2	2	2	300	300	0	0	206	23	1	1	blank2r.bmp	0	1	+	0	5	C1r.bmp	500	1	blank2r.bmp	730	1	NPLW	730	8	C4r.bmp	830	1	blank2r.bmp	870	2	mutig	870	1	!	1200	1	blank2r.bmp	1330
013118	15:43:49	1	6	5.0.10.0	dM_A21_A2_unplB	dA21_valB_pract2	2	3	300	300	0	0	101	18	1	1	blank2r.bmp	0	1	+	0	2	B2r.bmp	500	1	blank2r.bmp	730	1	DHJF	730	1	B1r.bmp	830	1	blank2r.bmp	870	3	ärger	870	1	!	1200	1	blank2r.bmp	1330
013118	15:43:49	1	6	5.0.10.0	dM_A21_A1_pleasB	dA21_valB_pract2	2	4	300	300	0	0	207	23	1	1	blank2r.bmp	0	1	+	0	8	C4r.bmp	500	1	blank2r.bmp	730	1	NPLW	730	6	C2r.bmp	830	1	blank2r.bmp	870	5	begabt	870	1	!	1200	1	blank2r.bmp	1330
013118	15:43:49	1	6	5.0.10.0	dM_A21_A2_unplB	dA21_valB_pract2	2	5	300	300	0	0	150	18	1	1	blank2r.bmp	0	1	+	0	8	C4r.bmp	500	1	blank2r.bmp	730	1	DHJF	730	4	B4r.bmp	830	1	blank2r.bmp	870	5	kummer	870	1	!	1200	1	blank2r.bmp	1330
013118	15:43:49	1	6	5.0.10.0	dM_A21_A1_unplB	dA21_valB_pract2	2	6	300	300	0	0	183	23	1	1	blank2r.bmp	0	1	+	0	4	B4r.bmp	500	1	blank2r.bmp	730	1	NPLW	730	3	B3r.bmp	830	1	blank2r.bmp	870	2	geizig	870	1	!	1200	1	blank2r.bmp	1330
013118	15:43:49	1	6	5.0.10.0	dM_A21_A1_unplB	dA21_valB_pract2	2	7	300	300	0	0	245	23	1	1	blank2r.bmp	0	1	+	0	6	C2r.bmp	500	1	blank2r.bmp	730	1	NPLW	730	2	B2r.bmp	830	1	blank2r.bmp	870	6	traurig	870	1	!	1200	1	blank2r.bmp	1330
013118	15:43:49	1	6	5.0.10.0	dM_A21_A1_unplB	dA21_valB_pract2	2	8	300	300	0	0	224	23	1	1	blank2r.bmp	0	1	+	0	2	B2r.bmp	500	1	blank2r.bmp	730	1	NPLW	730	1	B1r.bmp	830	1	blank2r.bmp	870	1	grausam	870	1	!	1200	1	blank2r.bmp	1330
013118	15:43:49	1	6	5.0.10.0	dM_A21_A2_pleasB	dA21_valB_pract2	2	9	300	300	0	0	10403	18	1	1	blank2r.bmp	0	1	+	0	1	B1r.bmp	500	1	blank2r.bmp	730	1	DHJF	730	5	C1r.bmp	830	1	blank2r.bmp	870	1	gut	870	1	!	1200	1	blank2r.bmp	1330
013118	15:43:49	1	6	5.0.10.0	dM_A21_A2_pleasB	dA21_valB_pract2	2	10	300	300	0	0	322	18	1	1	blank2r.bmp	0	1	+	0	3	B3r.bmp	500	1	blank2r.bmp	730	1	DHJF	730	8	C4r.bmp	830	1	blank2r.bmp	870	3	kuss	870	1	!	1200	1	blank2r.bmp	1330
013118	15:43:49	1	6	5.0.10.0	dM_A21_A1_pleasB	dA21_valB_pract2	2	11	300	300	0	0	336	23	1	1	blank2r.bmp	0	1	+	0	5	C1r.bmp	500	1	blank2r.bmp	730	1	NPLW	730	6	C2r.bmp	830	1	blank2r.bmp	870	6	kreativ	870	1	!	1200	1	blank2r.bmp	1330
013118	15:43:49	1	6	5.0.10.0	dM_A21_A2_unplB	dA21_valB_pract2	2	12	300	300	0	0	141	18	1	1	blank2r.bmp	0	1	+	0	7	C3r.bmp	500	1	blank2r.bmp	730	1	DHJF	730	7	C3r.bmp	830	1	blank2r.bmp	870	4	böse	870	1	!	1200	1	blank2r.bmp	1330
013118	15:43:49	1	6	5.0.10.0	d070_A21_A1_pleasB	dA21_valB_070	3	1	300	300	0	0	157	23	1	1	blank2r.bmp	0	1	+	0	4	B4r.bmp	500	1	blank2r.bmp	800	1	NPLW	800	1	blank2r.bmp	870	5	begabt	870	1	!	1200	1	blank2r.bmp	1330	0	0	0
013118	15:43:49	1	6	5.0.10.0	d070_A21_A2_unplB	dA21_valB_070	3	2	300	300	0	0	127	18	1	1	blank2r.bmp	0	1	+	0	2	B2r.bmp	500	1	blank2r.bmp	800	1	DHJF	800	1	blank2r.bmp	870	6	traurig	870	1	!	1200	1	blank2r.bmp	1330	0	0	0
013118	15:43:49	1	6	5.0.10.0	d070_A21_A1_unplB	dA21_valB_070	3	3	300	300	0	0	163	23	1	1	blank2r.bmp	0	1	+	0	6	C2r.bmp	500	1	blank2r.bmp	800	1	NPLW	800	1	blank2r.bmp	870	5	kummer	870	1	!	1200	1	blank2r.bmp	1330	0	0	0
013118	15:43:49	1	6	5.0.10.0	d070_A21_A1_pleasB	dA21_valB_070	3	4	300	300	0	0	254	23	1	1	blank2r.bmp	0	1	+	0	8	C4r.bmp	500	1	blank2r.bmp	800	1	NPLW	800	1	blank2r.bmp	870	3	kuss	870	1	!	1200	1	blank2r.bmp	1330	0	0	0
013118	15:43:49	1	6	5.0.10.0	d070_A21_A2_pleasB	dA21_valB_070	3	5	300	300	0	0	157	18	1	1	blank2r.bmp	0	1	+	0	1	B1r.bmp	500	1	blank2r.bmp	800	1	DHJF	800	1	blank2r.bmp	870	4	treu	870	1	!	1200	1	blank2r.bmp	1330	0	0	0
013118	15:43:49	1	6	5.0.10.0	d070_A21_A2_unplB	dA21_valB_070	3	6	300	300	0	0	255	18	1	1	blank2r.bmp	0	1	+	0	7	C3r.bmp	500	1	blank2r.bmp	800	1	DHJF	800	1	blank2r.bmp	870	4	böse	870	1	!	1200	1	blank2r.bmp	1330	0	0	0
013118	15:43:49	1	6	5.0.10.0	d070_A21_A1_unplB	dA21_valB_070	3	7	300	300	0	0	338	18	0	1	blank2r.bmp	0	1	+	0	3	B3r.bmp	500	1	blank2r.bmp	800	1	NPLW	800	1	blank2r.bmp	870	3	ärger	870	1	!	1200	1	blank2r.bmp	1330	0	0	0
013118	15:43:49	1	6	5.0.10.0	d070_A21_A1_pleasB	dA21_valB_070	3	8	300	300	0	0	202	23	1	1	blank2r.bmp	0	1	+	0	5	C1r.bmp	500	1	blank2r.bmp	800	1	NPLW	800	1	blank2r.bmp	870	6	kreativ	870	1	!	1200	1	blank2r.bmp	1330	0	0	0
013118	15:43:49	1	6	5.0.10.0	d070_A21_A1_unplB	dA21_valB_070	3	9	300	300	0	0	386	23	1	1	blank2r.bmp	0	1	+	0	7	C3r.bmp	500	1	blank2r.bmp	800	1	NPLW	800	1	blank2r.bmp	870	1	grausam	870	1	!	1200	1	blank2r.bmp	1330	0	0	0
013118	15:43:49	1	6	5.0.10.0	d070_A21_A2_unplB	dA21_valB_070	3	10	300	300	0	0	239	18	1	1	blank2r.bmp	0	1	+	0	2	B2r.bmp	500	1	blank2r.bmp	800	1	DHJF	800	1	blank2r.bmp	870	2	geizig	870	1	!	1200	1	blank2r.bmp	1330	0	0	0
013118	15:43:49	1	6	5.0.10.0	d070_A21_A1_pleasB	dA21_valB_070	3	11	300	300	0	0	338	23	1	1	blank2r.bmp	0	1	+	0	8	C4r.bmp	500	1	blank2r.bmp	800	1	NPLW	800	1	blank2r.bmp	870	1	gut	870	1	!	1200	1	blank2r.bmp	1330	0	0	0
013118	15:43:49	1	6	5.0.10.0	d070_A21_A2_pleasB	dA21_valB_070	3	12	300	300	0	0	226	18	1	1	blank2r.bmp	0	1	+	0	4	B4r.bmp	500	1	blank2r.bmp	800	1	DHJF	800	1	blank2r.bmp	870	2	mutig	870	1	!	1200	1	blank2r.bmp	1330	0	0	0
013118	15:43:49	1	6	5.0.10.0	d070_A21_A1_pleasB	dA21_valB_070	3	13	300	300	0	0	237	23	1	1	blank2r.bmp	0	1	+	0	5	C1r.bmp	500	1	blank2r.bmp	800	1	NPLW	800	1	blank2r.bmp	870	6	kreativ	870	1	!	1200	1	blank2r.bmp	1330	0	0	0
013118	15:43:49	1	6	5.0.10.0	d070_A21_A1_unplB	dA21_valB_070	3	14	300	300	0	0	387	23	1	1	blank2r.bmp	0	1	+	0	6	C2r.bmp	500	1	blank2r.bmp	800	1	NPLW	800	1	blank2r.bmp	870	6	traurig	870	1	!	1200	1	blank2r.bmp	1330	0	0	0
013118	15:43:49	1	6	5.0.10.0	d070_A21_A2_unplB	dA21_valB_070	3	15	300	300	0	0	297	18	1	1	blank2r.bmp	0	1	+	0	3	B3r.bmp	500	1	blank2r.bmp	800	1	DHJF	800	1	blank2r.bmp	870	2	geizig	870	1	!	1200	1	blank2r.bmp	1330	0	0	0
013118	15:43:49	1	6	5.0.10.0	d070_A21_A2_unplB	dA21_valB_070	3	16	300	300	0	0	411	18	1	1	blank2r.bmp	0	1	+	0	1	B1r.bmp	500	1	blank2r.bmp	800	1	DHJF	800	1	blank2r.bmp	870	4	böse	870	1	!	1200	1	blank2r.bmp	1330	0	0	0
013118	15:43:49	1	6	5.0.10.0	d070_A21_A2_pleasB	dA21_valB_070	3	17	300	300	0	0	425	18	1	1	blank2r.bmp	0	1	+	0	3	B3r.bmp	500	1	blank2r.bmp	800	1	DHJF	800	1	blank2r.bmp	870	3	kuss	870	1	!	1200	1	blank2r.bmp	1330	0	0	0
013118	15:43:49	1	6	5.0.10.0	d070_A21_A1_unplB	dA21_valB_070	3	18	300	300	0	0	350	23	1	1	blank2r.bmp	0	1	+	0	4	B4r.bmp	500	1	blank2r.bmp	800	1	NPLW	800	1	blank2r.bmp	870	5	kummer	870	1	!	1200	1	blank2r.bmp	1330	0	0	0
013118	15:43:49	1	6	5.0.10.0	d070_A21_A2_unplB	dA21_valB_070	3	19	300	300	0	0	293	18	1	1	blank2r.bmp	0	1	+	0	1	B1r.bmp	500	1	blank2r.bmp	800	1	DHJF	800	1	blank2r.bmp	870	1	grausam	870	1	!	1200	1	blank2r.bmp	1330	0	0	0
013118	15:43:49	1	6	5.0.10.0	d070_A21_A1_pleasB	dA21_valB_070	3	20	300	300	0	0	230	23	1	1	blank2r.bmp	0	1	+	0	6	C2r.bmp	500	1	blank2r.bmp	800	1	NPLW	800	1	blank2r.bmp	870	5	begabt	870	1	!	1200	1	blank2r.bmp	1330	0	0	0
013118	15:43:49	1	6	5.0.10.0	d070_A21_A2_unplB	dA21_valB_070	3	21	300	300	0	0	248	18	1	1	blank2r.bmp	0	1	+	0	8	C4r.bmp	500	1	blank2r.bmp	800	1	DHJF	800	1	blank2r.bmp	870	3	ärger	870	1	!	1200	1	blank2r.bmp	1330	0	0	0
013118	15:43:49	1	6	5.0.10.0	d070_A21_A1_unplB	dA21_valB_070	3	22	300	300	0	0	374	18	0	1	blank2r.bmp	0	1	+	0	2	B2r.bmp	500	1	blank2r.bmp	800	1	NPLW	800	1	blank2r.bmp	870	2	geizig	870	1	!	1200	1	blank2r.bmp	1330	0	0	0
013118	15:43:49	1	6	5.0.10.0	d070_A21_A1_unplB	dA21_valB_070	3	23	300	300	0	0	165	23	1	1	blank2r.bmp	0	1	+	0	5	C1r.bmp	500	1	blank2r.bmp	800	1	NPLW	800	1	blank2r.bmp	870	1	grausam	870	1	!	1200	1	blank2r.bmp	1330	0	0	0
013118	15:43:49	1	6	5.0.10.0	d070_A21_A2_pleasB	dA21_valB_070	3	24	300	300	0	0	253	18	1	1	blank2r.bmp	0	1	+	0	7	C3r.bmp	500	1	blank2r.bmp	800	1	DHJF	800	1	blank2r.bmp	870	2	mutig	870	1	!	1200	1	blank2r.bmp	1330	0	0	0
013118	15:43:49	1	6	5.0.10.0	d070_A21_A1_pleasB	dA21_valB_070	3	25	300	300	0	0	371	23	1	1	blank2r.bmp	0	1	+	0	4	B4r.bmp	500	1	blank2r.bmp	800	1	NPLW	800	1	blank2r.bmp	870	1	gut	870	1	!	1200	1	blank2r.bmp	1330	0	0	0
013118	15:43:49	1	6	5.0.10.0	d070_A21_A2_pleasB	dA21_valB_070	3	26	300	300	0	0	301	18	1	1	blank2r.bmp	0	1	+	0	5	C1r.bmp	500	1	blank2r.bmp	800	1	DHJF	800	1	blank2r.bmp	870	4	treu	870	1	!	1200	1	blank2r.bmp	1330	0	0	0
013118	15:43:49	1	6	5.0.10.0	d070_A21_A2_pleasB	dA21_valB_070	3	27	300	300	0	0	314	18	1	1	blank2r.bmp	0	1	+	0	1	B1r.bmp	500	1	blank2r.bmp	800	1	DHJF	800	1	blank2r.bmp	870	1	gut	870	1	!	1200	1	blank2r.bmp	1330	0	0	0
013118	15:43:49	1	6	5.0.10.0	d070_A21_A2_pleasB	dA21_valB_070	3	28	300	300	0	0	432	18	1	1	blank2r.bmp	0	1	+	0	2	B2r.bmp	500	1	blank2r.bmp	800	1	DHJF	800	1	blank2r.bmp	870	2	mutig	870	1	!	1200	1	blank2r.bmp	1330	0	0	0
013118	15:43:49	1	6	5.0.10.0	d070_A21_A2_unplB	dA21_valB_070	3	29	300	300	0	0	352	18	1	1	blank2r.bmp	0	1	+	0	7	C3r.bmp	500	1	blank2r.bmp	800	1	DHJF	800	1	blank2r.bmp	870	3	ärger	870	1	!	1200	1	blank2r.bmp	1330	0	0	0
013118	15:43:49	1	6	5.0.10.0	d070_A21_A2_unplB	dA21_valB_070	3	30	300	300	0	0	375	23	0	1	blank2r.bmp	0	1	+	0	3	B3r.bmp	500	1	blank2r.bmp	800	1	DHJF	800	1	blank2r.bmp	870	5	kummer	870	1	!	1200	1	blank2r.bmp	1330	0	0	0
013118	15:43:49	1	6	5.0.10.0	d070_A21_A1_unplB	dA21_valB_070	3	31	300	300	0	0	423	18	0	1	blank2r.bmp	0	1	+	0	8	C4r.bmp	500	1	blank2r.bmp	800	1	NPLW	800	1	blank2r.bmp	870	4	böse	870	1	!	1200	1	blank2r.bmp	1330	0	0	0
013118	15:43:49	1	6	5.0.10.0	d070_A21_A1_unplB	dA21_valB_070	3	32	300	300	0	0	682	23	1	1	blank2r.bmp	0	1	+	0	6	C2r.bmp	500	1	blank2r.bmp	800	1	NPLW	800	1	blank2r.bmp	870	6	traurig	870	1	!	1200	1	blank2r.bmp	1330	0	0	0
013118	15:43:49	1	6	5.0.10.0	d070_A21_A2_unplB	dA21_valB_070	3	33	300	300	0	0	701	23	0	1	blank2r.bmp	0	1	+	0	2	B2r.bmp	500	1	blank2r.bmp	800	1	DHJF	800	1	blank2r.bmp	870	2	geizig	870	1	!	1200	1	blank2r.bmp	1330	0	0	0
013118	15:43:49	1	6	5.0.10.0	d070_A21_A2_pleasB	dA21_valB_070	3	34	300	300	0	0	292	18	1	1	blank2r.bmp	0	1	+	0	8	C4r.bmp	500	1	blank2r.bmp	800	1	DHJF	800	1	blank2r.bmp	870	6	kreativ	870	1	!	1200	1	blank2r.bmp	1330	0	0	0
013118	15:43:49	1	6	5.0.10.0	d070_A21_A2_unplB	dA21_valB_070	3	35	300	300	0	0	410	18	1	1	blank2r.bmp	0	1	+	0	7	C3r.bmp	500	1	blank2r.bmp	800	1	DHJF	800	1	blank2r.bmp	870	4	böse	870	1	!	1200	1	blank2r.bmp	1330	0	0	0
013118	15:43:49	1	6	5.0.10.0	d070_A21_A1_pleasB	dA21_valB_070	3	36	300	300	0	0	385	18	0	1	blank2r.bmp	0	1	+	0	1	B1r.bmp	500	1	blank2r.bmp	800	1	NPLW	800	1	blank2r.bmp	870	5	begabt	870	1	!	1200	1	blank2r.bmp	1330	0	0	0
013118	15:43:49	1	6	5.0.10.0	d070_A21_A1_unplB	dA21_valB_070	3	37	300	300	0	0	310	23	1	1	blank2r.bmp	0	1	+	0	5	C1r.bmp	500	1	blank2r.bmp	800	1	NPLW	800	1	blank2r.bmp	870	5	kummer	870	1	!	1200	1	blank2r.bmp	1330	0	0	0
013118	15:43:49	1	6	5.0.10.0	d070_A21_A2_pleasB	dA21_valB_070	3	38	300	300	0	0	249	18	1	1	blank2r.bmp	0	1	+	0	6	C2r.bmp	500	1	blank2r.bmp	800	1	DHJF	800	1	blank2r.bmp	870	4	treu	870	1	!	1200	1	blank2r.bmp	1330	0	0	0
013118	15:43:49	1	6	5.0.10.0	d070_A21_A2_pleasB	dA21_valB_070	3	39	300	300	0	0	285	18	1	1	blank2r.bmp	0	1	+	0	4	B4r.bmp	500	1	blank2r.bmp	800	1	DHJF	800	1	blank2r.bmp	870	3	kuss	870	1	!	1200	1	blank2r.bmp	1330	0	0	0
013118	15:43:49	1	6	5.0.10.0	d070_A21_A1_unplB	dA21_valB_070	3	40	300	300	0	0	319	23	1	1	blank2r.bmp	0	1	+	0	3	B3r.bmp	500	1	blank2r.bmp	800	1	NPLW	800	1	blank2r.bmp	870	1	grausam	870	1	!	1200	1	blank2r.bmp	1330	0	0	0
013118	15:43:49	1	6	5.0.10.0	d070_A21_A2_unplB	dA21_valB_070	3	41	300	300	0	0	278	18	1	1	blank2r.bmp	0	1	+	0	5	C1r.bmp	500	1	blank2r.bmp	800	1	DHJF	800	1	blank2r.bmp	870	6	traurig	870	1	!	1200	1	blank2r.bmp	1330	0	0	0
013118	15:43:49	1	6	5.0.10.0	d070_A21_A2_pleasB	dA21_valB_070	3	42	300	300	0	0	196	18	1	1	blank2r.bmp	0	1	+	0	6	C2r.bmp	500	1	blank2r.bmp	800	1	DHJF	800	1	blank2r.bmp	870	4	treu	870	1	!	1200	1	blank2r.bmp	1330	0	0	0
013118	15:43:49	1	6	5.0.10.0	d070_A21_A1_pleasB	dA21_valB_070	3	43	300	300	0	0	279	23	1	1	blank2r.bmp	0	1	+	0	3	B3r.bmp	500	1	blank2r.bmp	800	1	NPLW	800	1	blank2r.bmp	870	1	gut	870	1	!	1200	1	blank2r.bmp	1330	0	0	0
013118	15:43:49	1	6	5.0.10.0	d070_A21_A1_unplB	dA21_valB_070	3	44	300	300	0	0	518	18	0	1	blank2r.bmp	0	1	+	0	2	B2r.bmp	500	1	blank2r.bmp	800	1	NPLW	800	1	blank2r.bmp	870	3	ärger	870	1	!	1200	1	blank2r.bmp	1330	0	0	0
013118	15:43:49	1	6	5.0.10.0	d070_A21_A1_pleasB	dA21_valB_070	3	45	300	300	0	0	483	23	1	1	blank2r.bmp	0	1	+	0	7	C3r.bmp	500	1	blank2r.bmp	800	1	NPLW	800	1	blank2r.bmp	870	3	kuss	870	1	!	1200	1	blank2r.bmp	1330	0	0	0
013118	15:43:49	1	6	5.0.10.0	d070_A21_A1_pleasB	dA21_valB_070	3	46	300	300	0	0	502	18	0	1	blank2r.bmp	0	1	+	0	8	C4r.bmp	500	1	blank2r.bmp	800	1	NPLW	800	1	blank2r.bmp	870	5	begabt	870	1	!	1200	1	blank2r.bmp	1330	0	0	0
013118	15:43:49	1	6	5.0.10.0	d070_A21_A2_pleasB	dA21_valB_070	3	47	300	300	0	0	284	23	0	1	blank2r.bmp	0	1	+	0	4	B4r.bmp	500	1	blank2r.bmp	800	1	DHJF	800	1	blank2r.bmp	870	6	kreativ	870	1	!	1200	1	blank2r.bmp	1330	0	0	0
013118	15:43:49	1	6	5.0.10.0	d070_A21_A1_pleasB	dA21_valB_070	3	48	300	300	0	0	333	18	0	1	blank2r.bmp	0	1	+	0	1	B1r.bmp	500	1	blank2r.bmp	800	1	NPLW	800	1	blank2r.bmp	870	2	mutig	870	1	!	1200	1	blank2r.bmp	1330	0	0	0
013118	15:43:49	1	6	5.0.10.0	d070_A21_A2_unplB	dA21_valB_070	4	1	300	300	0	0	254	18	1	1	blank2r.bmp	0	1	+	0	5	C1r.bmp	500	1	blank2r.bmp	800	1	DHJF	800	1	blank2r.bmp	870	4	böse	870	1	!	1200	1	blank2r.bmp	1330	0	0	0
013118	15:43:49	1	6	5.0.10.0	d070_A21_A2_pleasB	dA21_valB_070	4	2	300	300	0	0	209	18	1	1	blank2r.bmp	0	1	+	0	7	C3r.bmp	500	1	blank2r.bmp	800	1	DHJF	800	1	blank2r.bmp	870	6	kreativ	870	1	!	1200	1	blank2r.bmp	1330	0	0	0
013118	15:43:49	1	6	5.0.10.0	d070_A21_A2_unplB	dA21_valB_070	4	3	300	300	0	0	222	18	1	1	blank2r.bmp	0	1	+	0	6	C2r.bmp	500	1	blank2r.bmp	800	1	DHJF	800	1	blank2r.bmp	870	1	grausam	870	1	!	1200	1	blank2r.bmp	1330	0	0	0
013118	15:43:49	1	6	5.0.10.0	d070_A21_A1_pleasB	dA21_valB_070	4	4	300	300	0	0	212	23	1	1	blank2r.bmp	0	1	+	0	4	B4r.bmp	500	1	blank2r.bmp	800	1	NPLW	800	1	blank2r.bmp	870	2	mutig	870	1	!	1200	1	blank2r.bmp	1330	0	0	0
013118	15:43:49	1	6	5.0.10.0	d070_A21_A2_pleasB	dA21_valB_070	4	5	300	300	0	0	154	18	1	1	blank2r.bmp	0	1	+	0	3	B3r.bmp	500	1	blank2r.bmp	800	1	DHJF	800	1	blank2r.bmp	870	5	begabt	870	1	!	1200	1	blank2r.bmp	1330	0	0	0
013118	15:43:49	1	6	5.0.10.0	d070_A21_A2_unplB	dA21_valB_070	4	6	300	300	0	0	126	18	1	1	blank2r.bmp	0	1	+	0	1	B1r.bmp	500	1	blank2r.bmp	800	1	DHJF	800	1	blank2r.bmp	870	3	ärger	870	1	!	1200	1	blank2r.bmp	1330	0	0	0
013118	15:43:49	1	6	5.0.10.0	d070_A21_A2_pleasB	dA21_valB_070	4	7	300	300	0	0	587	23	0	1	blank2r.bmp	0	1	+	0	2	B2r.bmp	500	1	blank2r.bmp	800	1	DHJF	800	1	blank2r.bmp	870	4	treu	870	1	!	1200	1	blank2r.bmp	1330	0	0	0
013118	15:43:49	1	6	5.0.10.0	d070_A21_A1_unplB	dA21_valB_070	4	8	300	300	0	0	1106	18	0	1	blank2r.bmp	0	1	+	0	8	C4r.bmp	500	1	blank2r.bmp	800	1	NPLW	800	1	blank2r.bmp	870	5	kummer	870	1	!	1200	1	blank2r.bmp	1330	0	0	0
013118	15:43:49	1	6	5.0.10.0	d070_A21_A2_pleasB	dA21_valB_070	4	9	300	300	0	0	432	18	1	1	blank2r.bmp	0	1	+	0	8	C4r.bmp	500	1	blank2r.bmp	800	1	DHJF	800	1	blank2r.bmp	870	1	gut	870	1	!	1200	1	blank2r.bmp	1330	0	0	0
013118	15:43:49	1	6	5.0.10.0	d070_A21_A1_pleasB	dA21_valB_070	4	10	300	300	0	0	568	23	1	1	blank2r.bmp	0	1	+	0	4	B4r.bmp	500	1	blank2r.bmp	800	1	NPLW	800	1	blank2r.bmp	870	3	kuss	870	1	!	1200	1	blank2r.bmp	1330	0	0	0
013118	15:43:49	1	6	5.0.10.0	d070_A21_A2_pleasB	dA21_valB_070	4	11	300	300	0	0	437	18	1	1	blank2r.bmp	0	1	+	0	2	B2r.bmp	500	1	blank2r.bmp	800	1	DHJF	800	1	blank2r.bmp	870	1	gut	870	1	!	1200	1	blank2r.bmp	1330	0	0	0
013118	15:43:49	1	6	5.0.10.0	d070_A21_A1_pleasB	dA21_valB_070	4	12	300	300	0	0	536	18	0	1	blank2r.bmp	0	1	+	0	1	B1r.bmp	500	1	blank2r.bmp	800	1	NPLW	800	1	blank2r.bmp	870	2	mutig	870	1	!	1200	1	blank2r.bmp	1330	0	0	0
013118	15:43:49	1	6	5.0.10.0	d070_A21_A1_unplB	dA21_valB_070	4	13	300	300	0	0	579	23	1	1	blank2r.bmp	0	1	+	0	3	B3r.bmp	500	1	blank2r.bmp	800	1	NPLW	800	1	blank2r.bmp	870	2	geizig	870	1	!	1200	1	blank2r.bmp	1330	0	0	0
013118	15:43:49	1	6	5.0.10.0	d070_A21_A1_unplB	dA21_valB_070	4	14	300	300	0	0	344	23	1	1	blank2r.bmp	0	1	+	0	6	C2r.bmp	500	1	blank2r.bmp	800	1	NPLW	800	1	blank2r.bmp	870	6	traurig	870	1	!	1200	1	blank2r.bmp	1330	0	0	0
013118	15:43:49	1	6	5.0.10.0	d070_A21_A2_pleasB	dA21_valB_070	4	15	300	300	0	0	194	23	0	1	blank2r.bmp	0	1	+	0	5	C1r.bmp	500	1	blank2r.bmp	800	1	DHJF	800	1	blank2r.bmp	870	3	kuss	870	1	!	1200	1	blank2r.bmp	1330	0	0	0
013118	15:43:49	1	6	5.0.10.0	d070_A21_A2_unplB	dA21_valB_070	4	16	300	300	0	0	778	23	0	1	blank2r.bmp	0	1	+	0	7	C3r.bmp	500	1	blank2r.bmp	800	1	DHJF	800	1	blank2r.bmp	870	4	böse	870	1	!	1200	1	blank2r.bmp	1330	0	0	0
013118	15:43:49	1	6	5.0.10.0	d070_A21_A2_unplB	dA21_valB_070	4	17	300	300	0	0	332	18	1	1	blank2r.bmp	0	1	+	0	3	B3r.bmp	500	1	blank2r.bmp	800	1	DHJF	800	1	blank2r.bmp	870	2	geizig	870	1	!	1200	1	blank2r.bmp	1330	0	0	0
013118	15:43:49	1	6	5.0.10.0	d070_A21_A2_unplB	dA21_valB_070	4	18	300	300	0	0	423	18	1	1	blank2r.bmp	0	1	+	0	4	B4r.bmp	500	1	blank2r.bmp	800	1	DHJF	800	1	blank2r.bmp	870	6	traurig	870	1	!	1200	1	blank2r.bmp	1330	0	0	0
013118	15:43:49	1	6	5.0.10.0	d070_A21_A2_unplB	dA21_valB_070	4	19	300	300	0	0	298	23	0	1	blank2r.bmp	0	1	+	0	5	C1r.bmp	500	1	blank2r.bmp	800	1	DHJF	800	1	blank2r.bmp	870	1	grausam	870	1	!	1200	1	blank2r.bmp	1330	0	0	0
013118	15:43:49	1	6	5.0.10.0	d070_A21_A2_pleasB	dA21_valB_070	4	20	300	300	0	0	233	18	1	1	blank2r.bmp	0	1	+	0	6	C2r.bmp	500	1	blank2r.bmp	800	1	DHJF	800	1	blank2r.bmp	870	6	kreativ	870	1	!	1200	1	blank2r.bmp	1330	0	0	0
013118	15:43:49	1	6	5.0.10.0	d070_A21_A1_unplB	dA21_valB_070	4	21	300	300	0	0	99	23	1	1	blank2r.bmp	0	1	+	0	1	B1r.bmp	500	1	blank2r.bmp	800	1	NPLW	800	1	blank2r.bmp	870	5	kummer	870	1	!	1200	1	blank2r.bmp	1330	0	0	0
013118	15:43:49	1	6	5.0.10.0	d070_A21_A1_pleasB	dA21_valB_070	4	22	300	300	0	0	119	18	0	1	blank2r.bmp	0	1	+	0	7	C3r.bmp	500	1	blank2r.bmp	800	1	NPLW	800	1	blank2r.bmp	870	5	begabt	870	1	!	1200	1	blank2r.bmp	1330	0	0	0
013118	15:43:49	1	6	5.0.10.0	d070_A21_A1_unplB	dA21_valB_070	4	23	300	300	0	0	513	18	0	1	blank2r.bmp	0	1	+	0	8	C4r.bmp	500	1	blank2r.bmp	800	1	NPLW	800	1	blank2r.bmp	870	3	ärger	870	1	!	1200	1	blank2r.bmp	1330	0	0	0
013118	15:43:49	1	6	5.0.10.0	d070_A21_A1_unplB	dA21_valB_070	4	24	300	300	0	0	285	18	0	1	blank2r.bmp	0	1	+	0	2	B2r.bmp	500	1	blank2r.bmp	800	1	NPLW	800	1	blank2r.bmp	870	4	böse	870	1	!	1200	1	blank2r.bmp	1330	0	0	0
013118	15:43:49	1	6	5.0.10.0	d070_A21_A2_unplB	dA21_valB_070	4	25	300	300	0	0	2575	23	0	1	blank2r.bmp	0	1	+	0	1	B1r.bmp	500	1	blank2r.bmp	800	1	DHJF	800	1	blank2r.bmp	870	6	traurig	870	1	!	1200	1	blank2r.bmp	1330	0	0	0
013118	15:43:49	1	6	5.0.10.0	d070_A21_A1_pleasB	dA21_valB_070	4	26	300	300	0	0	336	18	0	1	blank2r.bmp	0	1	+	0	8	C4r.bmp	500	1	blank2r.bmp	800	1	NPLW	800	1	blank2r.bmp	870	4	treu	870	1	!	1200	1	blank2r.bmp	1330	0	0	0
013118	15:43:49	1	6	5.0.10.0	d070_A21_A2_unplB	dA21_valB_070	4	27	300	300	0	0	300	23	0	1	blank2r.bmp	0	1	+	0	6	C2r.bmp	500	1	blank2r.bmp	800	1	DHJF	800	1	blank2r.bmp	870	5	kummer	870	1	!	1200	1	blank2r.bmp	1330	0	0	0
013118	15:43:49	1	6	5.0.10.0	d070_A21_A2_pleasB	dA21_valB_070	4	28	300	300	0	0	291	18	1	1	blank2r.bmp	0	1	+	0	4	B4r.bmp	500	1	blank2r.bmp	800	1	DHJF	800	1	blank2r.bmp	870	6	kreativ	870	1	!	1200	1	blank2r.bmp	1330	0	0	0
013118	15:43:49	1	6	5.0.10.0	d070_A21_A1_pleasB	dA21_valB_070	4	29	300	300	0	0	487	18	0	1	blank2r.bmp	0	1	+	0	2	B2r.bmp	500	1	blank2r.bmp	800	1	NPLW	800	1	blank2r.bmp	870	2	mutig	870	1	!	1200	1	blank2r.bmp	1330	0	0	0
013118	15:43:49	1	6	5.0.10.0	d070_A21_A1_unplB	dA21_valB_070	4	30	300	300	0	0	10	23	1	1	blank2r.bmp	0	1	+	0	5	C1r.bmp	500	1	blank2r.bmp	800	1	NPLW	800	1	blank2r.bmp	870	1	grausam	870	1	!	1200	1	blank2r.bmp	1330	0	0	0
013118	15:43:49	1	6	5.0.10.0	d070_A21_A2_unplB	dA21_valB_070	4	31	300	300	0	0	12	18	1	1	blank2r.bmp	0	1	+	0	3	B3r.bmp	500	1	blank2r.bmp	800	1	DHJF	800	1	blank2r.bmp	870	2	geizig	870	1	!	1200	1	blank2r.bmp	1330	0	0	0
013118	15:43:49	1	6	5.0.10.0	d070_A21_A1_unplB	dA21_valB_070	4	32	300	300	0	0	402	18	0	1	blank2r.bmp	0	1	+	0	7	C3r.bmp	500	1	blank2r.bmp	800	1	NPLW	800	1	blank2r.bmp	870	3	ärger	870	1	!	1200	1	blank2r.bmp	1330	0	0	0
013118	15:43:49	1	6	5.0.10.0	d070_A21_A2_pleasB	dA21_valB_070	4	33	300	300	0	0	349	23	0	1	blank2r.bmp	0	1	+	0	1	B1r.bmp	500	1	blank2r.bmp	800	1	DHJF	800	1	blank2r.bmp	870	1	gut	870	1	!	1200	1	blank2r.bmp	1330	0	0	0
013118	15:43:49	1	6	5.0.10.0	d070_A21_A1_pleasB	dA21_valB_070	4	34	300	300	0	0	125	18	0	1	blank2r.bmp	0	1	+	0	3	B3r.bmp	500	1	blank2r.bmp	800	1	NPLW	800	1	blank2r.bmp	870	3	kuss	870	1	!	1200	1	blank2r.bmp	1330	0	0	0
013118	15:43:49	1	6	5.0.10.0	d070_A21_A1_pleasB	dA21_valB_070	4	35	300	300	0	0	232	23	1	1	blank2r.bmp	0	1	+	0	6	C2r.bmp	500	1	blank2r.bmp	800	1	NPLW	800	1	blank2r.bmp	870	5	begabt	870	1	!	1200	1	blank2r.bmp	1330	0	0	0
013118	15:43:49	1	6	5.0.10.0	d070_A21_A2_unplB	dA21_valB_070	4	36	300	300	0	0	520	18	1	1	blank2r.bmp	0	1	+	0	8	C4r.bmp	500	1	blank2r.bmp	800	1	DHJF	800	1	blank2r.bmp	870	2	geizig	870	1	!	1200	1	blank2r.bmp	1330	0	0	0
013118	15:43:49	1	6	5.0.10.0	d070_A21_A1_unplB	dA21_valB_070	4	37	300	300	0	0	218	23	1	1	blank2r.bmp	0	1	+	0	2	B2r.bmp	500	1	blank2r.bmp	800	1	NPLW	800	1	blank2r.bmp	870	4	böse	870	1	!	1200	1	blank2r.bmp	1330	0	0	0
013118	15:43:49	1	6	5.0.10.0	d070_A21_A2_pleasB	dA21_valB_070	4	38	300	300	0	0	235	23	0	1	blank2r.bmp	0	1	+	0	7	C3r.bmp	500	1	blank2r.bmp	800	1	DHJF	800	1	blank2r.bmp	870	4	treu	870	1	!	1200	1	blank2r.bmp	1330	0	0	0
013118	15:43:49	1	6	5.0.10.0	d070_A21_A1_pleasB	dA21_valB_070	4	39	300	300	0	0	358	23	1	1	blank2r.bmp	0	1	+	0	5	C1r.bmp	500	1	blank2r.bmp	800	1	NPLW	800	1	blank2r.bmp	870	4	treu	870	1	!	1200	1	blank2r.bmp	1330	0	0	0
013118	15:43:49	1	6	5.0.10.0	d070_A21_A1_unplB	dA21_valB_070	4	40	300	300	0	0	262	18	0	1	blank2r.bmp	0	1	+	0	4	B4r.bmp	500	1	blank2r.bmp	800	1	NPLW	800	1	blank2r.bmp	870	5	kummer	870	1	!	1200	1	blank2r.bmp	1330	0	0	0
013118	15:43:49	1	6	5.0.10.0	d070_A21_A1_unplB	dA21_valB_070	4	41	300	300	0	0	124	23	1	1	blank2r.bmp	0	1	+	0	1	B1r.bmp	500	1	blank2r.bmp	800	1	NPLW	800	1	blank2r.bmp	870	6	traurig	870	1	!	1200	1	blank2r.bmp	1330	0	0	0
013118	15:43:49	1	6	5.0.10.0	d070_A21_A1_pleasB	dA21_valB_070	4	42	300	300	0	0	363	18	0	1	blank2r.bmp	0	1	+	0	4	B4r.bmp	500	1	blank2r.bmp	800	1	NPLW	800	1	blank2r.bmp	870	3	kuss	870	1	!	1200	1	blank2r.bmp	1330	0	0	0
013118	15:43:49	1	6	5.0.10.0	d070_A21_A2_pleasB	dA21_valB_070	4	43	300	300	0	0	1150	23	0	1	blank2r.bmp	0	1	+	0	5	C1r.bmp	500	1	blank2r.bmp	800	1	DHJF	800	1	blank2r.bmp	870	5	begabt	870	1	!	1200	1	blank2r.bmp	1330	0	0	0
013118	15:43:49	1	6	5.0.10.0	d070_A21_A1_unplB	dA21_valB_070	4	44	300	300	0	0	756	18	0	1	blank2r.bmp	0	1	+	0	8	C4r.bmp	500	1	blank2r.bmp	800	1	NPLW	800	1	blank2r.bmp	870	3	ärger	870	1	!	1200	1	blank2r.bmp	1330	0	0	0
013118	15:43:49	1	6	5.0.10.0	d070_A21_A2_pleasB	dA21_valB_070	4	45	300	300	0	0	679	18	1	1	blank2r.bmp	0	1	+	0	2	B2r.bmp	500	1	blank2r.bmp	800	1	DHJF	800	1	blank2r.bmp	870	2	mutig	870	1	!	1200	1	blank2r.bmp	1330	0	0	0
013118	15:43:49	1	6	5.0.10.0	d070_A21_A1_pleasB	dA21_valB_070	4	46	300	300	0	0	354	23	1	1	blank2r.bmp	0	1	+	0	7	C3r.bmp	500	1	blank2r.bmp	800	1	NPLW	800	1	blank2r.bmp	870	6	kreativ	870	1	!	1200	1	blank2r.bmp	1330	0	0	0
013118	15:43:49	1	6	5.0.10.0	d070_A21_A2_unplB	dA21_valB_070	4	47	300	300	0	0	235	18	1	1	blank2r.bmp	0	1	+	0	3	B3r.bmp	500	1	blank2r.bmp	800	1	DHJF	800	1	blank2r.bmp	870	1	grausam	870	1	!	1200	1	blank2r.bmp	1330	0	0	0
013118	15:43:49	1	6	5.0.10.0	d070_A21_A1_pleasB	dA21_valB_070	4	48	300	300	0	0	186	23	1	1	blank2r.bmp	0	1	+	0	6	C2r.bmp	500	1	blank2r.bmp	800	1	NPLW	800	1	blank2r.bmp	870	1	gut	870	1	!	1200	1	blank2r.bmp	1330	0	0	0
013118	15:43:49	1	6	5.0.10.0	dL_B21_B1_pleasA	dB21_valA_pract1	6	1	300	300	0	0	84	23	1	1	blank2r.bmp	0	1	+	0	5	C1r.bmp	500	1	blank2r.bmp	700	1	BMVZ	700	8	C4r.bmp	830	1	blank2r.bmp	870	3	freund	870	1	!	1200	1	blank2r.bmp	1330
013118	15:43:49	1	6	5.0.10.0	dL_B21_B2_unplA	dB21_valA_pract1	6	2	300	300	0	0	123	18	1	1	blank2r.bmp	0	1	+	0	1	B1r.bmp	500	1	blank2r.bmp	700	1	GKQX	700	2	B2r.bmp	830	1	blank2r.bmp	870	2	neidisch	870	1	!	1200	1	blank2r.bmp	1330
013118	15:43:49	1	6	5.0.10.0	dL_B21_B2_unplA	dB21_valA_pract1	6	3	300	300	0	0	259	18	1	1	blank2r.bmp	0	1	+	0	8	C4r.bmp	500	1	blank2r.bmp	700	1	GKQX	700	6	C2r.bmp	830	1	blank2r.bmp	870	1	unfair	870	1	!	1200	1	blank2r.bmp	1330
013118	15:43:49	1	6	5.0.10.0	dL_B21_B1_pleasA	dB21_valA_pract1	6	4	300	300	0	0	118	23	1	1	blank2r.bmp	0	1	+	0	4	B4r.bmp	500	1	blank2r.bmp	700	1	BMVZ	700	1	B1r.bmp	830	1	blank2r.bmp	870	4	heiter	870	1	!	1200	1	blank2r.bmp	1330
013118	15:43:49	1	6	5.0.10.0	dL_B21_B2_pleasA	dB21_valA_pract1	6	5	300	300	0	0	344	18	1	1	blank2r.bmp	0	1	+	0	7	C3r.bmp	500	1	blank2r.bmp	700	1	GKQX	700	3	B3r.bmp	830	1	blank2r.bmp	870	1	toll	870	1	!	1200	1	blank2r.bmp	1330
013118	15:43:49	1	6	5.0.10.0	dL_B21_B1_unplA	dB21_valA_pract1	6	6	300	300	0	0	285	23	1	1	blank2r.bmp	0	1	+	0	2	B2r.bmp	500	1	blank2r.bmp	700	1	BMVZ	700	5	C1r.bmp	830	1	blank2r.bmp	870	5	schlecht	870	1	!	1200	1	blank2r.bmp	1330
013118	15:43:49	1	6	5.0.10.0	dL_B21_B1_unplA	dB21_valA_pract1	6	7	300	300	0	0	422	23	1	1	blank2r.bmp	0	1	+	0	6	C2r.bmp	500	1	blank2r.bmp	700	1	BMVZ	700	7	C3r.bmp	830	1	blank2r.bmp	870	4	elend	870	1	!	1200	1	blank2r.bmp	1330
013118	15:43:49	1	6	5.0.10.0	dL_B21_B2_unplA	dB21_valA_pract1	6	8	300	300	0	0	216	18	1	1	blank2r.bmp	0	1	+	0	3	B3r.bmp	500	1	blank2r.bmp	700	1	GKQX	700	4	B4r.bmp	830	1	blank2r.bmp	870	3	töten	870	1	!	1200	1	blank2r.bmp	1330
013118	15:43:49	1	6	5.0.10.0	dL_B21_B1_pleasA	dB21_valA_pract1	6	9	300	300	0	0	2038	23	1	1	blank2r.bmp	0	1	+	0	5	C1r.bmp	500	1	blank2r.bmp	700	1	BMVZ	700	3	B3r.bmp	830	1	blank2r.bmp	870	5	friedlich	870	1	!	1200	1	blank2r.bmp	1330
013118	15:43:49	1	6	5.0.10.0	dL_B21_B1_unplA	dB21_valA_pract1	6	10	300	300	0	0	258	23	1	1	blank2r.bmp	0	1	+	0	3	B3r.bmp	500	1	blank2r.bmp	700	1	BMVZ	700	4	B4r.bmp	830	1	blank2r.bmp	870	6	leiden	870	1	!	1200	1	blank2r.bmp	1330
013118	15:43:49	1	6	5.0.10.0	dL_B21_B2_pleasA	dB21_valA_pract1	6	11	300	300	0	0	94	18	1	1	blank2r.bmp	0	1	+	0	8	C4r.bmp	500	1	blank2r.bmp	700	1	GKQX	700	5	C1r.bmp	830	1	blank2r.bmp	870	2	schön	870	1	!	1200	1	blank2r.bmp	1330
013118	15:43:49	1	6	5.0.10.0	dL_B21_B2_pleasA	dB21_valA_pract1	6	12	300	300	0	0	304	18	1	1	blank2r.bmp	0	1	+	0	6	C2r.bmp	500	1	blank2r.bmp	700	1	GKQX	700	7	C3r.bmp	830	1	blank2r.bmp	870	6	froh	870	1	!	1200	1	blank2r.bmp	1330
013118	15:43:49	1	6	5.0.10.0	dM_B21_B2_unplA	dB21_valA_pract2	7	1	300	300	0	0	14	18	1	1	blank2r.bmp	0	1	+	0	1	B1r.bmp	500	1	blank2r.bmp	730	1	GKQX	730	6	C2r.bmp	830	1	blank2r.bmp	870	1	unfair	870	1	!	1200	1	blank2r.bmp	1330
013118	15:43:49	1	6	5.0.10.0	dM_B21_B2_pleasA	dB21_valA_pract2	7	2	300	300	0	0	113	18	1	1	blank2r.bmp	0	1	+	0	4	B4r.bmp	500	1	blank2r.bmp	730	1	GKQX	730	2	B2r.bmp	830	1	blank2r.bmp	870	1	toll	870	1	!	1200	1	blank2r.bmp	1330
013118	15:43:49	1	6	5.0.10.0	dM_B21_B1_unplA	dB21_valA_pract2	7	3	300	300	0	0	39	23	1	1	blank2r.bmp	0	1	+	0	2	B2r.bmp	500	1	blank2r.bmp	730	1	BMVZ	730	1	B1r.bmp	830	1	blank2r.bmp	870	3	töten	870	1	!	1200	1	blank2r.bmp	1330
013118	15:43:49	1	6	5.0.10.0	dM_B21_B2_unplA	dB21_valA_pract2	7	4	300	300	0	0	79	18	1	1	blank2r.bmp	0	1	+	0	7	C3r.bmp	500	1	blank2r.bmp	730	1	GKQX	730	8	C4r.bmp	830	1	blank2r.bmp	870	5	schlecht	870	1	!	1200	1	blank2r.bmp	1330
013118	15:43:49	1	6	5.0.10.0	dM_B21_B2_unplA	dB21_valA_pract2	7	5	300	300	0	0	184	18	1	1	blank2r.bmp	0	1	+	0	4	B4r.bmp	500	1	blank2r.bmp	730	1	GKQX	730	7	C3r.bmp	830	1	blank2r.bmp	870	2	neidisch	870	1	!	1200	1	blank2r.bmp	1330
013118	15:43:49	1	6	5.0.10.0	dM_B21_B1_pleasA	dB21_valA_pract2	7	6	300	300	0	0	173	23	1	1	blank2r.bmp	0	1	+	0	6	C2r.bmp	500	1	blank2r.bmp	730	1	BMVZ	730	3	B3r.bmp	830	1	blank2r.bmp	870	6	froh	870	1	!	1200	1	blank2r.bmp	1330
013118	15:43:49	1	6	5.0.10.0	dM_B21_B1_unplA	dB21_valA_pract2	7	7	300	300	0	0	365	23	1	1	blank2r.bmp	0	1	+	0	3	B3r.bmp	500	1	blank2r.bmp	730	1	BMVZ	730	5	C1r.bmp	830	1	blank2r.bmp	870	4	elend	870	1	!	1200	1	blank2r.bmp	1330
013118	15:43:49	1	6	5.0.10.0	dM_B21_B2_pleasA	dB21_valA_pract2	7	8	300	300	0	0	233	18	1	1	blank2r.bmp	0	1	+	0	7	C3r.bmp	500	1	blank2r.bmp	730	1	GKQX	730	6	C2r.bmp	830	1	blank2r.bmp	870	2	schön	870	1	!	1200	1	blank2r.bmp	1330
013118	15:43:49	1	6	5.0.10.0	dM_B21_B1_pleasA	dB21_valA_pract2	7	9	300	300	0	0	225	23	1	1	blank2r.bmp	0	1	+	0	1	B1r.bmp	500	1	blank2r.bmp	730	1	BMVZ	730	8	C4r.bmp	830	1	blank2r.bmp	870	3	freund	870	1	!	1200	1	blank2r.bmp	1330
013118	15:43:49	1	6	5.0.10.0	dM_B21_B2_pleasA	dB21_valA_pract2	7	10	300	300	0	0	199	18	1	1	blank2r.bmp	0	1	+	0	2	B2r.bmp	500	1	blank2r.bmp	730	1	GKQX	730	4	B4r.bmp	830	1	blank2r.bmp	870	5	friedlich	870	1	!	1200	1	blank2r.bmp	1330
013118	15:43:49	1	6	5.0.10.0	dM_B21_B1_unplA	dB21_valA_pract2	7	11	300	300	0	0	378	23	1	1	blank2r.bmp	0	1	+	0	5	C1r.bmp	500	1	blank2r.bmp	730	1	BMVZ	730	1	B1r.bmp	830	1	blank2r.bmp	870	6	leiden	870	1	!	1200	1	blank2r.bmp	1330
013118	15:43:49	1	6	5.0.10.0	dM_B21_B1_pleasA	dB21_valA_pract2	7	12	300	300	0	0	319	23	1	1	blank2r.bmp	0	1	+	0	8	C4r.bmp	500	1	blank2r.bmp	730	1	BMVZ	730	2	B2r.bmp	830	1	blank2r.bmp	870	4	heiter	870	1	!	1200	1	blank2r.bmp	1330
013118	15:43:49	1	6	5.0.10.0	d080_B21_B2_pleasA	dB21_valA_080	8	1	300	300	0	0	210	18	1	1	blank2r.bmp	0	1	+	0	2	B2r.bmp	500	1	blank2r.bmp	800	1	GKQX	800	1	blank2r.bmp	880	1	toll	880	1	!	1210	1	blank2r.bmp	1340	0	0	0
013118	15:43:49	1	6	5.0.10.0	d080_B21_B1_unplA	dB21_valA_080	8	2	300	300	0	0	224	23	1	1	blank2r.bmp	0	1	+	0	3	B3r.bmp	500	1	blank2r.bmp	800	1	BMVZ	800	1	blank2r.bmp	880	1	unfair	880	1	!	1210	1	blank2r.bmp	1340	0	0	0
013118	15:43:49	1	6	5.0.10.0	d080_B21_B2_unplA	dB21_valA_080	8	3	300	300	0	0	215	18	1	1	blank2r.bmp	0	1	+	0	8	C4r.bmp	500	1	blank2r.bmp	800	1	GKQX	800	1	blank2r.bmp	880	5	schlecht	880	1	!	1210	1	blank2r.bmp	1340	0	0	0
013118	15:43:49	1	6	5.0.10.0	d080_B21_B2_unplA	dB21_valA_080	8	4	300	300	0	0	166	18	1	1	blank2r.bmp	0	1	+	0	7	C3r.bmp	500	1	blank2r.bmp	800	1	GKQX	800	1	blank2r.bmp	880	3	töten	880	1	!	1210	1	blank2r.bmp	1340	0	0	0
013118	15:43:49	1	6	5.0.10.0	d080_B21_B1_pleasA	dB21_valA_080	8	5	300	300	0	0	170	23	1	1	blank2r.bmp	0	1	+	0	5	C1r.bmp	500	1	blank2r.bmp	800	1	BMVZ	800	1	blank2r.bmp	880	4	heiter	880	1	!	1210	1	blank2r.bmp	1340	0	0	0
013118	15:43:49	1	6	5.0.10.0	d080_B21_B2_unplA	dB21_valA_080	8	6	300	300	0	0	239	18	1	1	blank2r.bmp	0	1	+	0	6	C2r.bmp	500	1	blank2r.bmp	800	1	GKQX	800	1	blank2r.bmp	880	6	leiden	880	1	!	1210	1	blank2r.bmp	1340	0	0	0
013118	15:43:49	1	6	5.0.10.0	d080_B21_B1_pleasA	dB21_valA_080	8	7	300	300	0	0	662	23	1	1	blank2r.bmp	0	1	+	0	1	B1r.bmp	500	1	blank2r.bmp	800	1	BMVZ	800	1	blank2r.bmp	880	6	froh	880	1	!	1210	1	blank2r.bmp	1340	0	0	0
013118	15:43:49	1	6	5.0.10.0	d080_B21_B1_unplA	dB21_valA_080	8	8	300	300	0	0	376	23	1	1	blank2r.bmp	0	1	+	0	4	B4r.bmp	500	1	blank2r.bmp	800	1	BMVZ	800	1	blank2r.bmp	880	2	neidisch	880	1	!	1210	1	blank2r.bmp	1340	0	0	0
013118	15:43:49	1	6	5.0.10.0	d080_B21_B2_pleasA	dB21_valA_080	8	9	300	300	0	0	108	18	1	1	blank2r.bmp	0	1	+	0	8	C4r.bmp	500	1	blank2r.bmp	800	1	GKQX	800	1	blank2r.bmp	880	2	schön	880	1	!	1210	1	blank2r.bmp	1340	0	0	0
013118	15:43:49	1	6	5.0.10.0	d080_B21_B1_unplA	dB21_valA_080	8	10	300	300	0	0	202	23	1	1	blank2r.bmp	0	1	+	0	1	B1r.bmp	500	1	blank2r.bmp	800	1	BMVZ	800	1	blank2r.bmp	880	4	elend	880	1	!	1210	1	blank2r.bmp	1340	0	0	0
013118	15:43:49	1	6	5.0.10.0	d080_B21_B1_pleasA	dB21_valA_080	8	11	300	300	0	0	197	23	1	1	blank2r.bmp	0	1	+	0	3	B3r.bmp	500	1	blank2r.bmp	800	1	BMVZ	800	1	blank2r.bmp	880	3	freund	880	1	!	1210	1	blank2r.bmp	1340	0	0	0
013118	15:43:49	1	6	5.0.10.0	d080_B21_B1_unplA	dB21_valA_080	8	12	300	300	0	0	71	23	1	1	blank2r.bmp	0	1	+	0	4	B4r.bmp	500	1	blank2r.bmp	800	1	BMVZ	800	1	blank2r.bmp	880	1	unfair	880	1	!	1210	1	blank2r.bmp	1340	0	0	0
013118	15:43:49	1	6	5.0.10.0	d080_B21_B1_pleasA	dB21_valA_080	8	13	300	300	0	0	316	23	1	1	blank2r.bmp	0	1	+	0	2	B2r.bmp	502	1	blank2r.bmp	800	1	BMVZ	800	1	blank2r.bmp	880	5	friedlich	880	1	!	1210	1	blank2r.bmp	1340	0	0	0
013118	15:43:49	1	6	5.0.10.0	d080_B21_B2_unplA	dB21_valA_080	8	14	300	300	0	0	231	18	1	1	blank2r.bmp	0	1	+	0	7	C3r.bmp	500	1	blank2r.bmp	800	1	GKQX	800	1	blank2r.bmp	880	5	schlecht	880	1	!	1210	1	blank2r.bmp	1340	0	0	0
013118	15:43:49	1	6	5.0.10.0	d080_B21_B1_pleasA	dB21_valA_080	8	15	300	300	0	0	91	23	1	1	blank2r.bmp	0	1	+	0	5	C1r.bmp	500	1	blank2r.bmp	800	1	BMVZ	800	1	blank2r.bmp	880	3	freund	880	1	!	1210	1	blank2r.bmp	1340	0	0	0
013118	15:43:49	1	6	5.0.10.0	d080_B21_B1_pleasA	dB21_valA_080	8	16	300	300	0	0	360	23	1	1	blank2r.bmp	0	1	+	0	6	C2r.bmp	500	1	blank2r.bmp	800	1	BMVZ	800	1	blank2r.bmp	880	1	toll	880	1	!	1210	1	blank2r.bmp	1340	0	0	0
013118	15:43:49	1	6	5.0.10.0	d080_B21_B1_unplA	dB21_valA_080	8	17	300	300	0	0	267	23	1	1	blank2r.bmp	0	1	+	0	8	C4r.bmp	500	1	blank2r.bmp	800	1	BMVZ	800	1	blank2r.bmp	880	4	elend	880	1	!	1210	1	blank2r.bmp	1340	0	0	0
013118	15:43:49	1	6	5.0.10.0	d080_B21_B2_pleasA	dB21_valA_080	8	18	300	300	0	0	201	18	1	1	blank2r.bmp	0	1	+	0	1	B1r.bmp	500	1	blank2r.bmp	800	1	GKQX	800	1	blank2r.bmp	880	5	friedlich	880	1	!	1210	1	blank2r.bmp	1340	0	0	0
013118	15:43:49	1	6	5.0.10.0	d080_B21_B1_pleasA	dB21_valA_080	8	19	300	300	0	0	297	23	1	1	blank2r.bmp	0	1	+	0	2	B2r.bmp	500	1	blank2r.bmp	800	1	BMVZ	800	1	blank2r.bmp	880	4	heiter	880	1	!	1210	1	blank2r.bmp	1340	0	0	0
013118	15:43:49	1	6	5.0.10.0	d080_B21_B1_pleasA	dB21_valA_080	8	20	300	300	0	0	563	23	1	1	blank2r.bmp	0	1	+	0	5	C1r.bmp	500	1	blank2r.bmp	800	1	BMVZ	800	1	blank2r.bmp	880	2	schön	880	1	!	1210	1	blank2r.bmp	1340	0	0	0
013118	15:43:49	1	6	5.0.10.0	d080_B21_B1_pleasA	dB21_valA_080	8	21	300	300	0	0	445	23	1	1	blank2r.bmp	0	1	+	0	4	B4r.bmp	500	1	blank2r.bmp	800	1	BMVZ	800	1	blank2r.bmp	880	6	froh	880	1	!	1210	1	blank2r.bmp	1340	0	0	0
013118	15:43:49	1	6	5.0.10.0	d080_B21_B1_pleasA	dB21_valA_080	8	22	300	300	0	0	267	23	1	1	blank2r.bmp	0	1	+	0	3	B3r.bmp	500	1	blank2r.bmp	800	1	BMVZ	800	1	blank2r.bmp	880	1	toll	880	1	!	1210	1	blank2r.bmp	1340	0	0	0
013118	15:43:49	1	6	5.0.10.0	d080_B21_B2_unplA	dB21_valA_080	8	23	300	300	0	0	249	18	1	1	blank2r.bmp	0	1	+	0	7	C3r.bmp	500	1	blank2r.bmp	800	1	GKQX	800	1	blank2r.bmp	880	6	leiden	880	1	!	1210	1	blank2r.bmp	1340	0	0	0
013118	15:43:49	1	6	5.0.10.0	d080_B21_B2_pleasA	dB21_valA_080	8	24	300	300	0	0	492	18	1	1	blank2r.bmp	0	1	+	0	6	C2r.bmp	500	1	blank2r.bmp	800	1	GKQX	800	1	blank2r.bmp	880	5	friedlich	880	1	!	1210	1	blank2r.bmp	1340	0	0	0
013118	15:43:49	1	6	5.0.10.0	d080_B21_B2_unplA	dB21_valA_080	8	25	300	300	0	0	346	18	1	1	blank2r.bmp	0	1	+	0	5	C1r.bmp	500	1	blank2r.bmp	800	1	GKQX	800	1	blank2r.bmp	880	2	neidisch	880	1	!	1210	1	blank2r.bmp	1340	0	0	0
013118	15:43:49	1	6	5.0.10.0	d080_B21_B1_unplA	dB21_valA_080	8	26	300	300	0	0	235	23	1	1	blank2r.bmp	0	1	+	0	8	C4r.bmp	500	1	blank2r.bmp	800	1	BMVZ	800	1	blank2r.bmp	880	3	töten	880	1	!	1210	1	blank2r.bmp	1340	0	0	0
013118	15:43:49	1	6	5.0.10.0	d080_B21_B2_pleasA	dB21_valA_080	8	27	300	300	0	0	340	18	1	1	blank2r.bmp	0	1	+	0	6	C2r.bmp	500	1	blank2r.bmp	800	1	GKQX	800	1	blank2r.bmp	880	3	freund	880	1	!	1210	1	blank2r.bmp	1340	0	0	0
013118	15:43:49	1	6	5.0.10.0	d080_B21_B1_unplA	dB21_valA_080	8	28	300	300	0	0	433	23	1	1	blank2r.bmp	0	1	+	0	1	B1r.bmp	500	1	blank2r.bmp	800	1	BMVZ	800	1	blank2r.bmp	880	1	unfair	880	1	!	1210	1	blank2r.bmp	1340	0	0	0
013118	15:43:49	1	6	5.0.10.0	d080_B21_B2_pleasA	dB21_valA_080	8	29	300	300	0	0	471	18	1	1	blank2r.bmp	0	1	+	0	4	B4r.bmp	500	1	blank2r.bmp	800	1	GKQX	800	1	blank2r.bmp	880	6	froh	880	1	!	1210	1	blank2r.bmp	1340	0	0	0
013118	15:43:49	1	6	5.0.10.0	d080_B21_B2_pleasA	dB21_valA_080	8	30	300	300	0	0	323	18	1	1	blank2r.bmp	0	1	+	0	3	B3r.bmp	500	1	blank2r.bmp	800	1	GKQX	800	1	blank2r.bmp	880	4	heiter	880	1	!	1210	1	blank2r.bmp	1340	0	0	0
013118	15:43:49	1	6	5.0.10.0	d080_B21_B2_unplA	dB21_valA_080	8	31	300	300	0	0	260	23	0	1	blank2r.bmp	0	1	+	0	7	C3r.bmp	500	1	blank2r.bmp	800	1	GKQX	800	1	blank2r.bmp	880	4	elend	880	1	!	1210	1	blank2r.bmp	1340	0	0	0
013118	15:43:49	1	6	5.0.10.0	d080_B21_B2_pleasA	dB21_valA_080	8	32	300	300	0	0	395	18	1	1	blank2r.bmp	0	1	+	0	2	B2r.bmp	500	1	blank2r.bmp	800	1	GKQX	800	1	blank2r.bmp	880	2	schön	880	1	!	1210	1	blank2r.bmp	1340	0	0	0
013118	15:43:49	1	6	5.0.10.0	d080_B21_B2_pleasA	dB21_valA_080	8	33	300	300	0	0	270	23	0	1	blank2r.bmp	0	1	+	0	6	C2r.bmp	500	1	blank2r.bmp	800	1	GKQX	800	1	blank2r.bmp	880	4	heiter	880	1	!	1210	1	blank2r.bmp	1340	0	0	0
013118	15:43:49	1	6	5.0.10.0	d080_B21_B2_unplA	dB21_valA_080	8	34	300	300	0	0	222	23	0	1	blank2r.bmp	0	1	+	0	1	B1r.bmp	500	1	blank2r.bmp	800	1	GKQX	800	1	blank2r.bmp	880	2	neidisch	880	1	!	1210	1	blank2r.bmp	1340	0	0	0
013118	15:43:49	1	6	5.0.10.0	d080_B21_B1_unplA	dB21_valA_080	8	35	300	300	0	0	80	18	0	1	blank2r.bmp	0	1	+	0	4	B4r.bmp	500	1	blank2r.bmp	800	1	BMVZ	800	1	blank2r.bmp	880	3	töten	880	1	!	1210	1	blank2r.bmp	1340	0	0	0
013118	15:43:49	1	6	5.0.10.0	d080_B21_B1_unplA	dB21_valA_080	8	36	300	300	0	0	81	23	1	1	blank2r.bmp	0	1	+	0	7	C3r.bmp	500	1	blank2r.bmp	800	1	BMVZ	800	1	blank2r.bmp	880	5	schlecht	880	1	!	1210	1	blank2r.bmp	1340	0	0	0
013118	15:43:49	1	6	5.0.10.0	d080_B21_B2_pleasA	dB21_valA_080	8	37	300	300	0	0	23	18	1	1	blank2r.bmp	0	1	+	0	3	B3r.bmp	500	1	blank2r.bmp	800	1	GKQX	800	1	blank2r.bmp	880	6	froh	880	1	!	1210	1	blank2r.bmp	1340	0	0	0
013118	15:43:49	1	6	5.0.10.0	d080_B21_B1_pleasA	dB21_valA_080	8	38	300	300	0	0	624	23	1	1	blank2r.bmp	0	1	+	0	2	B2r.bmp	500	1	blank2r.bmp	800	1	BMVZ	800	1	blank2r.bmp	880	5	friedlich	880	1	!	1210	1	blank2r.bmp	1340	0	0	0
013118	15:43:49	1	6	5.0.10.0	d080_B21_B2_unplA	dB21_valA_080	8	39	300	300	0	0	109	18	1	1	blank2r.bmp	0	1	+	0	8	C4r.bmp	500	1	blank2r.bmp	800	1	GKQX	800	1	blank2r.bmp	880	6	leiden	880	1	!	1210	1	blank2r.bmp	1340	0	0	0
013118	15:43:49	1	6	5.0.10.0	d080_B21_B2_unplA	dB21_valA_080	8	40	300	300	0	0	130	18	1	1	blank2r.bmp	0	1	+	0	5	C1r.bmp	500	1	blank2r.bmp	800	1	GKQX	800	1	blank2r.bmp	880	1	unfair	880	1	!	1210	1	blank2r.bmp	1340	0	0	0
013118	15:43:49	1	6	5.0.10.0	d080_B21_B2_unplA	dB21_valA_080	8	41	300	300	0	0	273	18	1	1	blank2r.bmp	0	1	+	0	2	B2r.bmp	500	1	blank2r.bmp	800	1	GKQX	800	1	blank2r.bmp	880	2	neidisch	880	1	!	1210	1	blank2r.bmp	1340	0	0	0
013118	15:43:49	1	6	5.0.10.0	d080_B21_B2_pleasA	dB21_valA_080	8	42	300	300	0	0	1694	18	1	1	blank2r.bmp	0	1	+	0	8	C4r.bmp	500	1	blank2r.bmp	800	1	GKQX	800	1	blank2r.bmp	880	2	schön	880	1	!	1210	1	blank2r.bmp	1340	0	0	0
013118	15:43:49	1	6	5.0.10.0	d080_B21_B1_unplA	dB21_valA_080	8	43	300	300	0	0	313	23	1	1	blank2r.bmp	0	1	+	0	3	B3r.bmp	500	1	blank2r.bmp	800	1	BMVZ	800	1	blank2r.bmp	880	5	schlecht	880	1	!	1210	1	blank2r.bmp	1340	0	0	0
013118	15:43:49	1	6	5.0.10.0	d080_B21_B2_pleasA	dB21_valA_080	8	44	300	300	0	0	488	23	0	1	blank2r.bmp	0	1	+	0	7	C3r.bmp	500	1	blank2r.bmp	800	1	GKQX	800	1	blank2r.bmp	880	3	freund	880	1	!	1210	1	blank2r.bmp	1340	0	0	0
013118	15:43:49	1	6	5.0.10.0	d080_B21_B1_pleasA	dB21_valA_080	8	45	300	300	0	0	403	23	1	1	blank2r.bmp	0	1	+	0	1	B1r.bmp	500	1	blank2r.bmp	800	1	BMVZ	800	1	blank2r.bmp	880	1	toll	880	1	!	1210	1	blank2r.bmp	1340	0	0	0
013118	15:43:49	1	6	5.0.10.0	d080_B21_B1_unplA	dB21_valA_080	8	46	300	300	0	0	805	23	1	1	blank2r.bmp	0	1	+	0	5	C1r.bmp	500	1	blank2r.bmp	800	1	BMVZ	800	1	blank2r.bmp	880	6	leiden	880	1	!	1210	1	blank2r.bmp	1340	0	0	0
013118	15:43:49	1	6	5.0.10.0	d080_B21_B2_unplA	dB21_valA_080	8	47	300	300	0	0	687	18	1	1	blank2r.bmp	0	1	+	0	6	C2r.bmp	500	1	blank2r.bmp	800	1	GKQX	800	1	blank2r.bmp	880	4	elend	880	1	!	1210	1	blank2r.bmp	1340	0	0	0
013118	15:43:49	1	6	5.0.10.0	d080_B21_B1_unplA	dB21_valA_080	8	48	300	300	0	0	354	23	1	1	blank2r.bmp	0	1	+	0	4	B4r.bmp	500	1	blank2r.bmp	800	1	BMVZ	800	1	blank2r.bmp	880	3	töten	880	1	!	1210	1	blank2r.bmp	1340	0	0	0
013118	15:43:49	1	6	5.0.10.0	d080_B21_B1_pleasA	dB21_valA_080	9	1	300	300	0	0	269	18	0	1	blank2r.bmp	0	1	+	0	8	C4r.bmp	500	1	blank2r.bmp	800	1	BMVZ	800	1	blank2r.bmp	880	2	schön	880	1	!	1210	1	blank2r.bmp	1340	0	0	0
013118	15:43:49	1	6	5.0.10.0	d080_B21_B1_pleasA	dB21_valA_080	9	2	300	300	0	0	585	23	1	1	blank2r.bmp	0	1	+	0	2	B2r.bmp	500	1	blank2r.bmp	800	1	BMVZ	800	1	blank2r.bmp	880	4	heiter	880	1	!	1210	1	blank2r.bmp	1340	0	0	0
013118	15:43:49	1	6	5.0.10.0	d080_B21_B2_unplA	dB21_valA_080	9	3	300	300	0	0	166	18	1	1	blank2r.bmp	0	1	+	0	5	C1r.bmp	500	1	blank2r.bmp	800	1	GKQX	800	1	blank2r.bmp	880	4	elend	880	1	!	1210	1	blank2r.bmp	1340	0	0	0
013118	15:43:49	1	6	5.0.10.0	d080_B21_B2_unplA	dB21_valA_080	9	4	300	300	0	0	283	18	1	1	blank2r.bmp	0	1	+	0	7	C3r.bmp	500	1	blank2r.bmp	800	1	GKQX	800	1	blank2r.bmp	880	3	töten	880	1	!	1210	1	blank2r.bmp	1340	0	0	0
013118	15:43:49	1	6	5.0.10.0	d080_B21_B2_unplA	dB21_valA_080	9	5	300	300	0	0	262	18	1	1	blank2r.bmp	0	1	+	0	6	C2r.bmp	500	1	blank2r.bmp	800	1	GKQX	800	1	blank2r.bmp	880	5	schlecht	880	1	!	1210	1	blank2r.bmp	1340	0	0	0
013118	15:43:49	1	6	5.0.10.0	d080_B21_B2_pleasA	dB21_valA_080	9	6	300	300	0	0	251	23	0	1	blank2r.bmp	0	1	+	0	3	B3r.bmp	500	1	blank2r.bmp	800	1	GKQX	800	1	blank2r.bmp	880	5	friedlich	880	1	!	1210	1	blank2r.bmp	1340	0	0	0
013118	15:43:49	1	6	5.0.10.0	d080_B21_B2_unplA	dB21_valA_080	9	7	300	300	0	0	416	18	1	1	blank2r.bmp	0	1	+	0	4	B4r.bmp	500	1	blank2r.bmp	800	1	GKQX	800	1	blank2r.bmp	880	6	leiden	880	1	!	1210	1	blank2r.bmp	1340	0	0	0
013118	15:43:49	1	6	5.0.10.0	d080_B21_B1_pleasA	dB21_valA_080	9	8	300	300	0	0	319	23	1	1	blank2r.bmp	0	1	+	0	1	B1r.bmp	500	1	blank2r.bmp	800	1	BMVZ	800	1	blank2r.bmp	880	1	toll	880	1	!	1210	1	blank2r.bmp	1340	0	0	0
013118	15:43:49	1	6	5.0.10.0	d080_B21_B2_unplA	dB21_valA_080	9	9	300	300	0	0	358	18	1	1	blank2r.bmp	0	1	+	0	4	B4r.bmp	500	1	blank2r.bmp	800	1	GKQX	800	1	blank2r.bmp	880	1	unfair	880	1	!	1210	1	blank2r.bmp	1340	0	0	0
013118	15:43:49	1	6	5.0.10.0	d080_B21_B2_unplA	dB21_valA_080	9	10	300	300	0	0	355	18	1	1	blank2r.bmp	0	1	+	0	1	B1r.bmp	500	1	blank2r.bmp	800	1	GKQX	800	1	blank2r.bmp	880	2	neidisch	880	1	!	1210	1	blank2r.bmp	1340	0	0	0
013118	15:43:49	1	6	5.0.10.0	d080_B21_B1_pleasA	dB21_valA_080	9	11	300	300	0	0	650	18	0	1	blank2r.bmp	0	1	+	0	5	C1r.bmp	500	1	blank2r.bmp	800	1	BMVZ	800	1	blank2r.bmp	880	3	freund	880	1	!	1210	1	blank2r.bmp	1340	0	0	0
013118	15:43:49	1	6	5.0.10.0	d080_B21_B1_unplA	dB21_valA_080	9	12	300	300	0	0	405	23	1	1	blank2r.bmp	0	1	+	0	6	C2r.bmp	500	1	blank2r.bmp	800	1	BMVZ	800	1	blank2r.bmp	880	2	neidisch	880	1	!	1210	1	blank2r.bmp	1340	0	0	0
013118	15:43:49	1	6	5.0.10.0	d080_B21_B2_unplA	dB21_valA_080	9	13	300	300	0	0	417	18	1	1	blank2r.bmp	0	1	+	0	7	C3r.bmp	500	1	blank2r.bmp	800	1	GKQX	800	1	blank2r.bmp	880	6	leiden	880	1	!	1210	1	blank2r.bmp	1340	0	0	0
013118	15:43:49	1	6	5.0.10.0	d080_B21_B2_pleasA	dB21_valA_080	9	14	300	300	0	0	307	18	1	1	blank2r.bmp	0	1	+	0	3	B3r.bmp	500	1	blank2r.bmp	800	1	GKQX	800	1	blank2r.bmp	880	6	froh	880	1	!	1210	1	blank2r.bmp	1340	0	0	0
013118	15:43:49	1	6	5.0.10.0	d080_B21_B2_unplA	dB21_valA_080	9	15	300	300	0	0	308	18	1	1	blank2r.bmp	0	1	+	0	2	B2r.bmp	500	1	blank2r.bmp	800	1	GKQX	800	1	blank2r.bmp	880	3	töten	880	1	!	1210	1	blank2r.bmp	1340	0	0	0
013118	15:43:49	1	6	5.0.10.0	d080_B21_B2_unplA	dB21_valA_080	9	16	300	300	0	0	469	18	1	1	blank2r.bmp	0	1	+	0	8	C4r.bmp	500	1	blank2r.bmp	800	1	GKQX	800	1	blank2r.bmp	880	4	elend	880	1	!	1210	1	blank2r.bmp	1340	0	0	0
013118	15:43:49	1	6	5.0.10.0	d080_B21_B2_pleasA	dB21_valA_080	9	17	300	300	0	0	636	18	1	1	blank2r.bmp	0	1	+	0	6	C2r.bmp	500	1	blank2r.bmp	800	1	GKQX	800	1	blank2r.bmp	880	3	freund	880	1	!	1210	1	blank2r.bmp	1340	0	0	0
013118	15:43:49	1	6	5.0.10.0	d080_B21_B1_unplA	dB21_valA_080	9	18	300	300	0	0	830	23	1	1	blank2r.bmp	0	1	+	0	5	C1r.bmp	500	1	blank2r.bmp	800	1	BMVZ	800	1	blank2r.bmp	880	5	schlecht	880	1	!	1210	1	blank2r.bmp	1340	0	0	0
013118	15:43:49	1	6	5.0.10.0	d080_B21_B1_unplA	dB21_valA_080	9	19	300	300	0	0	420	23	1	1	blank2r.bmp	0	1	+	0	3	B3r.bmp	500	1	blank2r.bmp	800	1	BMVZ	800	1	blank2r.bmp	880	1	unfair	880	1	!	1210	1	blank2r.bmp	1340	0	0	0
013118	15:43:49	1	6	5.0.10.0	d080_B21_B1_unplA	dB21_valA_080	9	20	300	300	0	0	332	23	1	1	blank2r.bmp	0	1	+	0	7	C3r.bmp	500	1	blank2r.bmp	800	1	BMVZ	800	1	blank2r.bmp	880	6	leiden	880	1	!	1210	1	blank2r.bmp	1340	0	0	0
013118	15:43:49	1	6	5.0.10.0	d080_B21_B1_pleasA	dB21_valA_080	9	21	300	300	0	0	334	23	1	1	blank2r.bmp	0	1	+	0	8	C4r.bmp	500	1	blank2r.bmp	800	1	BMVZ	800	1	blank2r.bmp	880	2	schön	880	1	!	1210	1	blank2r.bmp	1340	0	0	0
013118	15:43:49	1	6	5.0.10.0	d080_B21_B2_pleasA	dB21_valA_080	9	22	300	300	0	0	360	18	1	1	blank2r.bmp	0	1	+	0	2	B2r.bmp	500	1	blank2r.bmp	800	1	GKQX	800	1	blank2r.bmp	880	5	friedlich	880	1	!	1210	1	blank2r.bmp	1340	0	0	0
013118	15:43:49	1	6	5.0.10.0	d080_B21_B1_unplA	dB21_valA_080	9	23	300	300	0	0	392	23	1	1	blank2r.bmp	0	1	+	0	1	B1r.bmp	500	1	blank2r.bmp	800	1	BMVZ	800	1	blank2r.bmp	880	5	schlecht	880	1	!	1210	1	blank2r.bmp	1340	0	0	0
013118	15:43:49	1	6	5.0.10.0	d080_B21_B2_pleasA	dB21_valA_080	9	24	300	300	0	0	405	23	0	1	blank2r.bmp	0	1	+	0	4	B4r.bmp	500	1	blank2r.bmp	800	1	GKQX	800	1	blank2r.bmp	880	1	toll	880	1	!	1210	1	blank2r.bmp	1340	0	0	0
013118	15:43:49	1	6	5.0.10.0	d080_B21_B1_unplA	dB21_valA_080	9	25	300	300	0	0	447	23	1	1	blank2r.bmp	0	1	+	0	3	B3r.bmp	500	1	blank2r.bmp	800	1	BMVZ	800	1	blank2r.bmp	880	3	töten	880	1	!	1210	1	blank2r.bmp	1340	0	0	0
013118	15:43:49	1	6	5.0.10.0	d080_B21_B2_unplA	dB21_valA_080	9	26	300	300	0	0	199	18	1	1	blank2r.bmp	0	1	+	0	8	C4r.bmp	500	1	blank2r.bmp	800	1	GKQX	800	1	blank2r.bmp	880	4	elend	880	1	!	1210	1	blank2r.bmp	1340	0	0	0
013118	15:43:49	1	6	5.0.10.0	d080_B21_B1_unplA	dB21_valA_080	9	27	300	300	0	0	292	23	1	1	blank2r.bmp	0	1	+	0	1	B1r.bmp	500	1	blank2r.bmp	800	1	BMVZ	800	1	blank2r.bmp	880	1	unfair	880	1	!	1210	1	blank2r.bmp	1340	0	0	0
013118	15:43:49	1	6	5.0.10.0	d080_B21_B2_pleasA	dB21_valA_080	9	28	300	300	0	0	271	23	0	1	blank2r.bmp	0	1	+	0	7	C3r.bmp	500	1	blank2r.bmp	800	1	GKQX	800	1	blank2r.bmp	880	6	froh	880	1	!	1210	1	blank2r.bmp	1340	0	0	0
013118	15:43:49	1	6	5.0.10.0	d080_B21_B1_unplA	dB21_valA_080	9	29	300	300	0	0	451	23	1	1	blank2r.bmp	0	1	+	0	4	B4r.bmp	500	1	blank2r.bmp	800	1	BMVZ	800	1	blank2r.bmp	880	2	neidisch	880	1	!	1210	1	blank2r.bmp	1340	0	0	0
013118	15:43:49	1	6	5.0.10.0	d080_B21_B1_pleasA	dB21_valA_080	9	30	300	300	0	0	378	18	0	1	blank2r.bmp	0	1	+	0	6	C2r.bmp	500	1	blank2r.bmp	800	1	BMVZ	800	1	blank2r.bmp	880	4	heiter	880	1	!	1210	1	blank2r.bmp	1340	0	0	0
013118	15:43:49	1	6	5.0.10.0	d080_B21_B1_pleasA	dB21_valA_080	9	31	300	300	0	0	753	18	0	1	blank2r.bmp	0	1	+	0	5	C1r.bmp	500	1	blank2r.bmp	800	1	BMVZ	800	1	blank2r.bmp	880	1	toll	880	1	!	1210	1	blank2r.bmp	1340	0	0	0
013118	15:43:49	1	6	5.0.10.0	d080_B21_B2_pleasA	dB21_valA_080	9	32	300	300	0	0	430	23	0	1	blank2r.bmp	0	1	+	0	2	B2r.bmp	500	1	blank2r.bmp	800	1	GKQX	800	1	blank2r.bmp	880	2	schön	880	1	!	1210	1	blank2r.bmp	1340	0	0	0
013118	15:43:49	1	6	5.0.10.0	d080_B21_B1_unplA	dB21_valA_080	9	33	300	300	0	0	470	18	0	1	blank2r.bmp	0	1	+	0	7	C3r.bmp	500	1	blank2r.bmp	800	1	BMVZ	800	1	blank2r.bmp	880	1	unfair	880	1	!	1210	1	blank2r.bmp	1340	0	0	0
013118	15:43:49	1	6	5.0.10.0	d080_B21_B1_pleasA	dB21_valA_080	9	34	300	300	0	0	489	23	1	1	blank2r.bmp	0	1	+	0	6	C2r.bmp	500	1	blank2r.bmp	800	1	BMVZ	800	1	blank2r.bmp	880	4	heiter	880	1	!	1210	1	blank2r.bmp	1340	0	0	0
013118	15:43:49	1	6	5.0.10.0	d080_B21_B1_pleasA	dB21_valA_080	9	35	300	300	0	0	317	23	1	1	blank2r.bmp	0	1	+	0	5	C1r.bmp	500	1	blank2r.bmp	800	1	BMVZ	800	1	blank2r.bmp	880	6	froh	880	1	!	1210	1	blank2r.bmp	1340	0	0	0
013118	15:43:49	1	6	5.0.10.0	d080_B21_B2_unplA	dB21_valA_080	9	36	300	300	0	0	272	18	1	1	blank2r.bmp	0	1	+	0	2	B2r.bmp	500	1	blank2r.bmp	800	1	GKQX	800	1	blank2r.bmp	880	3	töten	880	1	!	1210	1	blank2r.bmp	1340	0	0	0
013118	15:43:49	1	6	5.0.10.0	d080_B21_B1_pleasA	dB21_valA_080	9	37	300	300	0	0	304	23	1	1	blank2r.bmp	0	1	+	0	4	B4r.bmp	500	1	blank2r.bmp	800	1	BMVZ	800	1	blank2r.bmp	880	5	friedlich	880	1	!	1210	1	blank2r.bmp	1340	0	0	0
013118	15:43:49	1	6	5.0.10.0	d080_B21_B2_pleasA	dB21_valA_080	9	38	300	300	0	0	291	18	1	1	blank2r.bmp	0	1	+	0	1	B1r.bmp	500	1	blank2r.bmp	800	1	GKQX	800	1	blank2r.bmp	880	3	freund	880	1	!	1210	1	blank2r.bmp	1340	0	0	0
013118	15:43:49	1	6	5.0.10.0	d080_B21_B2_pleasA	dB21_valA_080	9	39	300	300	0	0	308	18	1	1	blank2r.bmp	0	1	+	0	8	C4r.bmp	500	1	blank2r.bmp	800	1	GKQX	800	1	blank2r.bmp	880	4	heiter	880	1	!	1210	1	blank2r.bmp	1340	0	0	0
013118	15:43:49	1	6	5.0.10.0	d080_B21_B1_unplA	dB21_valA_080	9	40	300	300	0	0	343	23	1	1	blank2r.bmp	0	1	+	0	3	B3r.bmp	500	1	blank2r.bmp	800	1	BMVZ	800	1	blank2r.bmp	880	6	leiden	880	1	!	1210	1	blank2r.bmp	1340	0	0	0
013118	15:43:49	1	6	5.0.10.0	d080_B21_B1_unplA	dB21_valA_080	9	41	300	300	0	0	466	18	0	1	blank2r.bmp	0	1	+	0	4	B4r.bmp	500	1	blank2r.bmp	800	1	BMVZ	800	1	blank2r.bmp	880	4	elend	880	1	!	1210	1	blank2r.bmp	1340	0	0	0
013118	15:43:49	1	6	5.0.10.0	d080_B21_B2_pleasA	dB21_valA_080	9	42	300	300	0	0	148	23	0	1	blank2r.bmp	0	1	+	0	7	C3r.bmp	500	1	blank2r.bmp	800	1	GKQX	800	1	blank2r.bmp	880	6	froh	880	1	!	1210	1	blank2r.bmp	1340	0	0	0
013118	15:43:49	1	6	5.0.10.0	d080_B21_B1_unplA	dB21_valA_080	9	43	300	300	0	0	272	23	1	1	blank2r.bmp	0	1	+	0	6	C2r.bmp	500	1	blank2r.bmp	800	1	BMVZ	800	1	blank2r.bmp	880	2	neidisch	880	1	!	1210	1	blank2r.bmp	1340	0	0	0
013118	15:43:49	1	6	5.0.10.0	d080_B21_B1_pleasA	dB21_valA_080	9	44	300	300	0	0	285	18	0	1	blank2r.bmp	0	1	+	0	1	B1r.bmp	500	1	blank2r.bmp	800	1	BMVZ	800	1	blank2r.bmp	880	3	freund	880	1	!	1210	1	blank2r.bmp	1340	0	0	0
013118	15:43:49	1	6	5.0.10.0	d080_B21_B2_pleasA	dB21_valA_080	9	45	300	300	0	0	215	18	1	1	blank2r.bmp	0	1	+	0	8	C4r.bmp	500	1	blank2r.bmp	800	1	GKQX	800	1	blank2r.bmp	880	5	friedlich	880	1	!	1210	1	blank2r.bmp	1340	0	0	0
013118	15:43:49	1	6	5.0.10.0	d080_B21_B1_pleasA	dB21_valA_080	9	46	300	300	0	0	480	18	0	1	blank2r.bmp	0	1	+	0	3	B3r.bmp	500	1	blank2r.bmp	800	1	BMVZ	800	1	blank2r.bmp	880	2	schön	880	1	!	1210	1	blank2r.bmp	1340	0	0	0
013118	15:43:49	1	6	5.0.10.0	d080_B21_B2_unplA	dB21_valA_080	9	47	300	300	0	0	292	23	0	1	blank2r.bmp	0	1	+	0	5	C1r.bmp	500	1	blank2r.bmp	800	1	GKQX	800	1	blank2r.bmp	880	5	schlecht	880	1	!	1210	1	blank2r.bmp	1340	0	0	0
013118	15:43:49	1	6	5.0.10.0	d080_B21_B2_pleasA	dB21_valA_080	9	48	300	300	0	0	431	18	1	1	blank2r.bmp	0	1	+	0	2	B2r.bmp	500	1	blank2r.bmp	800	1	GKQX	800	1	blank2r.bmp	880	1	toll	880	1	!	1210	1	blank2r.bmp	1340	0	0	0
013118	15:43:49	1	6	5.0.10.0	endtrial	endblock	10	1	300	300	0	0	138405	21	0	0	0	0	0	0	0	0	0	0	0	0	0	0	0	0	0	0	0	0	0	0	0	0	0	0	0	0	0	0	0
